count,behav_recall_instructions.thisRepN,behav_recall_instructions.thisTrialN,behav_recall_instructions.thisN,behav_recall_instructions.thisIndex,trials.thisRepN,trials.thisTrialN,trials.thisN,trials.thisIndex,trials_4.thisRepN,trials_4.thisTrialN,trials_4.thisN,trials_4.thisIndex,trials_13.thisRepN,trials_13.thisTrialN,trials_13.thisN,trials_13.thisIndex,trials_17.thisRepN,trials_17.thisTrialN,trials_17.thisN,trials_17.thisIndex,story_list_block1,action_list_block1,text_76.started,text_76.stopped,key_resp_30.keys,key_resp_30.rt,key_resp_30.started,key_resp_30.stopped,textTrigger.started,textTrigger.stopped,getTrigger.keys,getTrigger.rt,getTrigger.started,getTrigger.stopped,triggerTime,text_77.started,text_77.stopped,text_78.started,text_78.stopped,waitStart,image_23.started,image_23.stopped,waitEnd,text_41.started,text_41.stopped,key_resp_26.keys,key_resp_26.rt,key_resp_26.started,key_resp_26.stopped,text_42.started,text_42.stopped,text_51.started,text_51.stopped,recall_StartTime,recall_EndTime,image_18.started,image_18.stopped,text_69.started,text_69.stopped,recall_audio.filename,recall_audio.started,recall_audio.stopped,key_resp_25.keys,key_resp_25.rt,key_resp_25.started,key_resp_25.stopped,text_80.started,text_80.stopped,participant,sA,sB,lA,lB,block_struct,block,behavioral,random_seed,date,expName,psychopyVersion,frameRate,
,,,,,,,,,,,,,,,,,,,,,[43 34 41 32 14 12 23 21],[2 3 4 1 3 1 2 4],9.732410999000422,None,space,15.23782592400039,9.732410999000422,None,,,,,,,,,,,,,,,,,,,,,,,,,,,,,,,,,,,,,,,,,110521,0,2,2,3,0,1,0,24,2021_Nov_05_1605,recall_fmri,3.2.4,60.05443189581112,
0,,,,,0,0,0,0,0,0,0,0,,,,,0,0,0,0,,,,,,,,,24.998128097000517,None,equal,23.95097293099934,24.998128097000517,None,39.25413893099994,24.998128097000517,None,24.998128097000517,None,0.0003579679996619234,48.982395357000314,None,5.999792218999573,54.98165631400025,None,2,1.8364868409998962,54.98165631400025,None,54.98165631400025,None,54.98165631400025,None,7.867263455000284,70.21641736600031,56.93189799799984,None,56.93189799799984,None,/Users/columbiadpml/Documents/GitHub/ebs/fMRI experiment/psychopy code/data/110521_bk1_recall_fmri_wav/recall_audio-1636142755.911.wav,0.005675653998878261,None,2,62.24237538199941,56.93189799799984,None,56.93189799799984,None,110521,0,2,2,3,0,1,0,24,2021_Nov_05_1605,recall_fmri,3.2.4,60.05443189581112,
﻿count,behav_recall_instructions.thisRepN,behav_recall_instructions.thisTrialN,behav_recall_instructions.thisN,behav_recall_instructions.thisIndex,trials.thisRepN,trials.thisTrialN,trials.thisN,trials.thisIndex,trials_4.thisRepN,trials_4.thisTrialN,trials_4.thisN,trials_4.thisIndex,trials_13.thisRepN,trials_13.thisTrialN,trials_13.thisN,trials_13.thisIndex,trials_17.thisRepN,trials_17.thisTrialN,trials_17.thisN,trials_17.thisIndex,story_list_block1,action_list_block1,text_76.started,text_76.stopped,key_resp_30.keys,key_resp_30.rt,key_resp_30.started,key_resp_30.stopped,textTrigger.started,textTrigger.stopped,getTrigger.keys,getTrigger.rt,getTrigger.started,getTrigger.stopped,triggerTime,text_77.started,text_77.stopped,text_78.started,text_78.stopped,waitStart,image_23.started,image_23.stopped,waitEnd,text_41.started,text_41.stopped,key_resp_26.keys,key_resp_26.rt,key_resp_26.started,key_resp_26.stopped,text_42.started,text_42.stopped,text_51.started,text_51.stopped,recall_StartTime,recall_EndTime,image_18.started,image_18.stopped,text_69.started,text_69.stopped,recall_audio.filename,recall_audio.started,recall_audio.stopped,key_resp_25.keys,key_resp_25.rt,key_resp_25.started,key_resp_25.stopped,text_80.started,text_80.stopped,participant,sA,sB,lA,lB,block_struct,block,behavioral,random_seed,date,expName,psychopyVersion,frameRate,
,,,,,,,,,,,,,,,,,,,,,[43 34 41 32 14 12 23 21],[2 3 4 1 3 1 2 4],9.732410999000422,None,space,15.23782592400039,9.732410999000422,None,,,,,,,,,,,,,,,,,,,,,,,,,,,,,,,,,,,,,,,,,110521,0,2,2,3,0,1,0,24,2021_Nov_05_1605,recall_fmri,3.2.4,60.05443189581112,
0,,,,,0,0,0,0,0,0,0,0,,,,,0,0,0,0,,,,,,,,,24.998128097000517,None,equal,23.95097293099934,24.998128097000517,None,39.25413893099994,24.998128097000517,None,24.998128097000517,None,0.0003579679996619234,48.982395357000314,None,5.999792218999573,54.98165631400025,None,2,1.8364868409998962,54.98165631400025,None,54.98165631400025,None,54.98165631400025,None,7.867263455000284,70.21641736600031,56.93189799799984,None,56.93189799799984,None,/Users/columbiadpml/Documents/GitHub/ebs/fMRI experiment/psychopy code/data/110521_bk1_recall_fmri_wav/recall_audio-1636142755.911.wav,0.005675653998878261,None,2,62.24237538199941,56.93189799799984,None,56.93189799799984,None,110521,0,2,2,3,0,1,0,24,2021_Nov_05_1605,recall_fmri,3.2.4,60.05443189581112,
0,,,,,0,0,0,0,0,0,0,0,,,,,,,,,,,,,,,,,,,,,,,,,,,,70.2197222320001,119.19883132700033,None,76.2165839649997,,,,,,,,,,,,,,,,,,,,,,,,,,110521,0,2,2,3,0,1,0,24,2021_Nov_05_1605,recall_fmri,3.2.4,60.05443189581112,
﻿count,behav_recall_instructions.thisRepN,behav_recall_instructions.thisTrialN,behav_recall_instructions.thisN,behav_recall_instructions.thisIndex,trials.thisRepN,trials.thisTrialN,trials.thisN,trials.thisIndex,trials_4.thisRepN,trials_4.thisTrialN,trials_4.thisN,trials_4.thisIndex,trials_13.thisRepN,trials_13.thisTrialN,trials_13.thisN,trials_13.thisIndex,trials_17.thisRepN,trials_17.thisTrialN,trials_17.thisN,trials_17.thisIndex,story_list_block1,action_list_block1,text_76.started,text_76.stopped,key_resp_30.keys,key_resp_30.rt,key_resp_30.started,key_resp_30.stopped,textTrigger.started,textTrigger.stopped,getTrigger.keys,getTrigger.rt,getTrigger.started,getTrigger.stopped,triggerTime,text_77.started,text_77.stopped,text_78.started,text_78.stopped,waitStart,image_23.started,image_23.stopped,waitEnd,text_41.started,text_41.stopped,key_resp_26.keys,key_resp_26.rt,key_resp_26.started,key_resp_26.stopped,text_42.started,text_42.stopped,text_51.started,text_51.stopped,recall_StartTime,recall_EndTime,image_18.started,image_18.stopped,text_69.started,text_69.stopped,recall_audio.filename,recall_audio.started,recall_audio.stopped,key_resp_25.keys,key_resp_25.rt,key_resp_25.started,key_resp_25.stopped,text_80.started,text_80.stopped,participant,sA,sB,lA,lB,block_struct,block,behavioral,random_seed,date,expName,psychopyVersion,frameRate,
,,,,,,,,,,,,,,,,,,,,,[43 34 41 32 14 12 23 21],[2 3 4 1 3 1 2 4],9.732410999000422,None,space,15.23782592400039,9.732410999000422,None,,,,,,,,,,,,,,,,,,,,,,,,,,,,,,,,,,,,,,,,,110521,0,2,2,3,0,1,0,24,2021_Nov_05_1605,recall_fmri,3.2.4,60.05443189581112,
0,,,,,0,0,0,0,0,0,0,0,,,,,0,0,0,0,,,,,,,,,24.998128097000517,None,equal,23.95097293099934,24.998128097000517,None,39.25413893099994,24.998128097000517,None,24.998128097000517,None,0.0003579679996619234,48.982395357000314,None,5.999792218999573,54.98165631400025,None,2,1.8364868409998962,54.98165631400025,None,54.98165631400025,None,54.98165631400025,None,7.867263455000284,70.21641736600031,56.93189799799984,None,56.93189799799984,None,/Users/columbiadpml/Documents/GitHub/ebs/fMRI experiment/psychopy code/data/110521_bk1_recall_fmri_wav/recall_audio-1636142755.911.wav,0.005675653998878261,None,2,62.24237538199941,56.93189799799984,None,56.93189799799984,None,110521,0,2,2,3,0,1,0,24,2021_Nov_05_1605,recall_fmri,3.2.4,60.05443189581112,
0,,,,,0,0,0,0,0,0,0,0,,,,,,,,,,,,,,,,,,,,,,,,,,,,70.2197222320001,119.19883132700033,None,76.2165839649997,,,,,,,,,,,,,,,,,,,,,,,,,,110521,0,2,2,3,0,1,0,24,2021_Nov_05_1605,recall_fmri,3.2.4,60.05443189581112,
1,,,,,0,0,0,0,0,1,1,1,,,,,,,,,,,,,,,,,,,,,,,,,,,,76.2186096280002,125.19955288599976,125.19955288599976,82.216944238,,,,,,,,,,,,,,,,,,,,,,,,,,110521,0,2,2,3,0,1,0,24,2021_Nov_05_1605,recall_fmri,3.2.4,60.05443189581112,
2,,,,,0,0,0,0,0,2,2,2,,,,,0,0,0,0,,,,,,,,,,,,,,,,,,,,,,,,131.19935681300012,None,2,1.9889113009994617,131.19935681300012,None,131.19935681300012,None,131.19935681300012,None,84.23520124100014,141.49997142600023,133.23104906400022,None,133.23104906400022,None,/Users/columbiadpml/Documents/GitHub/ebs/fMRI experiment/psychopy code/data/110521_bk1_recall_fmri_wav/recall_audio-1636142832.221.wav,0.012414662199262239,None,2,57.23326406100023,133.23104906400022,None,133.23104906400022,None,110521,0,2,2,3,0,1,0,24,2021_Nov_05_1605,recall_fmri,3.2.4,60.05443189581112,
﻿count,behav_recall_instructions.thisRepN,behav_recall_instructions.thisTrialN,behav_recall_instructions.thisN,behav_recall_instructions.thisIndex,trials.thisRepN,trials.thisTrialN,trials.thisN,trials.thisIndex,trials_4.thisRepN,trials_4.thisTrialN,trials_4.thisN,trials_4.thisIndex,trials_13.thisRepN,trials_13.thisTrialN,trials_13.thisN,trials_13.thisIndex,trials_17.thisRepN,trials_17.thisTrialN,trials_17.thisN,trials_17.thisIndex,story_list_block1,action_list_block1,text_76.started,text_76.stopped,key_resp_30.keys,key_resp_30.rt,key_resp_30.started,key_resp_30.stopped,textTrigger.started,textTrigger.stopped,getTrigger.keys,getTrigger.rt,getTrigger.started,getTrigger.stopped,triggerTime,text_77.started,text_77.stopped,text_78.started,text_78.stopped,waitStart,image_23.started,image_23.stopped,waitEnd,text_41.started,text_41.stopped,key_resp_26.keys,key_resp_26.rt,key_resp_26.started,key_resp_26.stopped,text_42.started,text_42.stopped,text_51.started,text_51.stopped,recall_StartTime,recall_EndTime,image_18.started,image_18.stopped,text_69.started,text_69.stopped,recall_audio.filename,recall_audio.started,recall_audio.stopped,key_resp_25.keys,key_resp_25.rt,key_resp_25.started,key_resp_25.stopped,text_80.started,text_80.stopped,participant,sA,sB,lA,lB,block_struct,block,behavioral,random_seed,date,expName,psychopyVersion,frameRate,
,,,,,,,,,,,,,,,,,,,,,[43 34 41 32 14 12 23 21],[2 3 4 1 3 1 2 4],9.732410999000422,None,space,15.23782592400039,9.732410999000422,None,,,,,,,,,,,,,,,,,,,,,,,,,,,,,,,,,,,,,,,,,110521,0,2,2,3,0,1,0,24,2021_Nov_05_1605,recall_fmri,3.2.4,60.05443189581112,
0,,,,,0,0,0,0,0,0,0,0,,,,,0,0,0,0,,,,,,,,,24.998128097000517,None,equal,23.95097293099934,24.998128097000517,None,39.25413893099994,24.998128097000517,None,24.998128097000517,None,0.0003579679996619234,48.982395357000314,None,5.999792218999573,54.98165631400025,None,2,1.8364868409998962,54.98165631400025,None,54.98165631400025,None,54.98165631400025,None,7.867263455000284,70.21641736600031,56.93189799799984,None,56.93189799799984,None,/Users/columbiadpml/Documents/GitHub/ebs/fMRI experiment/psychopy code/data/110521_bk1_recall_fmri_wav/recall_audio-1636142755.911.wav,0.005675653998878261,None,2,62.24237538199941,56.93189799799984,None,56.93189799799984,None,110521,0,2,2,3,0,1,0,24,2021_Nov_05_1605,recall_fmri,3.2.4,60.05443189581112,
0,,,,,0,0,0,0,0,0,0,0,,,,,,,,,,,,,,,,,,,,,,,,,,,,70.2197222320001,119.19883132700033,None,76.2165839649997,,,,,,,,,,,,,,,,,,,,,,,,,,110521,0,2,2,3,0,1,0,24,2021_Nov_05_1605,recall_fmri,3.2.4,60.05443189581112,
1,,,,,0,0,0,0,0,1,1,1,,,,,,,,,,,,,,,,,,,,,,,,,,,,76.2186096280002,125.19955288599976,125.19955288599976,82.216944238,,,,,,,,,,,,,,,,,,,,,,,,,,110521,0,2,2,3,0,1,0,24,2021_Nov_05_1605,recall_fmri,3.2.4,60.05443189581112,
2,,,,,0,0,0,0,0,2,2,2,,,,,0,0,0,0,,,,,,,,,,,,,,,,,,,,,,,,131.19935681300012,None,2,1.9889113009994617,131.19935681300012,None,131.19935681300012,None,131.19935681300012,None,84.23520124100014,141.49997142600023,133.23104906400022,None,133.23104906400022,None,/Users/columbiadpml/Documents/GitHub/ebs/fMRI experiment/psychopy code/data/110521_bk1_recall_fmri_wav/recall_audio-1636142832.221.wav,0.012414662199262239,None,2,57.23326406100023,133.23104906400022,None,133.23104906400022,None,110521,0,2,2,3,0,1,0,24,2021_Nov_05_1605,recall_fmri,3.2.4,60.05443189581112,
2,,,,,0,0,0,0,0,2,2,2,,,,,,,,,,,,,,,,,,,,,,,,,,,,141.50537403999988,190.48234482899989,None,147.50063024300016,,,,,,,,,,,,,,,,,,,,,,,,,,110521,0,2,2,3,0,1,0,24,2021_Nov_05_1605,recall_fmri,3.2.4,60.05443189581112,
3,,,,,0,0,0,0,0,3,3,3,,,,,0,0,0,0,,,,,,,,,,,,,,,,,,,,,,,,196.48226367000007,None,2,1.5869007710007281,196.48226367000007,None,196.48226367000007,None,196.48226367000007,None,149.11757428800047,220.47942825599966,198.11291536299996,None,198.11291536299996,None,/Users/columbiadpml/Documents/GitHub/ebs/fMRI experiment/psychopy code/data/110521_bk1_recall_fmri_wav/recall_audio-1636142897.103.wav,0.013105125200127077,None,2,71.3263578240003,198.11291536299996,None,198.11291536299996,None,110521,0,2,2,3,0,1,0,24,2021_Nov_05_1605,recall_fmri,3.2.4,60.05443189581112,
﻿count,behav_recall_instructions.thisRepN,behav_recall_instructions.thisTrialN,behav_recall_instructions.thisN,behav_recall_instructions.thisIndex,trials.thisRepN,trials.thisTrialN,trials.thisN,trials.thisIndex,trials_4.thisRepN,trials_4.thisTrialN,trials_4.thisN,trials_4.thisIndex,trials_13.thisRepN,trials_13.thisTrialN,trials_13.thisN,trials_13.thisIndex,trials_17.thisRepN,trials_17.thisTrialN,trials_17.thisN,trials_17.thisIndex,story_list_block1,action_list_block1,text_76.started,text_76.stopped,key_resp_30.keys,key_resp_30.rt,key_resp_30.started,key_resp_30.stopped,textTrigger.started,textTrigger.stopped,getTrigger.keys,getTrigger.rt,getTrigger.started,getTrigger.stopped,triggerTime,text_77.started,text_77.stopped,text_78.started,text_78.stopped,waitStart,image_23.started,image_23.stopped,waitEnd,text_41.started,text_41.stopped,key_resp_26.keys,key_resp_26.rt,key_resp_26.started,key_resp_26.stopped,text_42.started,text_42.stopped,text_51.started,text_51.stopped,recall_StartTime,recall_EndTime,image_18.started,image_18.stopped,text_69.started,text_69.stopped,recall_audio.filename,recall_audio.started,recall_audio.stopped,key_resp_25.keys,key_resp_25.rt,key_resp_25.started,key_resp_25.stopped,text_80.started,text_80.stopped,participant,sA,sB,lA,lB,block_struct,block,behavioral,random_seed,date,expName,psychopyVersion,frameRate,
,,,,,,,,,,,,,,,,,,,,,[43 34 41 32 14 12 23 21],[2 3 4 1 3 1 2 4],9.732410999000422,None,space,15.23782592400039,9.732410999000422,None,,,,,,,,,,,,,,,,,,,,,,,,,,,,,,,,,,,,,,,,,110521,0,2,2,3,0,1,0,24,2021_Nov_05_1605,recall_fmri,3.2.4,60.05443189581112,
0,,,,,0,0,0,0,0,0,0,0,,,,,0,0,0,0,,,,,,,,,24.998128097000517,None,equal,23.95097293099934,24.998128097000517,None,39.25413893099994,24.998128097000517,None,24.998128097000517,None,0.0003579679996619234,48.982395357000314,None,5.999792218999573,54.98165631400025,None,2,1.8364868409998962,54.98165631400025,None,54.98165631400025,None,54.98165631400025,None,7.867263455000284,70.21641736600031,56.93189799799984,None,56.93189799799984,None,/Users/columbiadpml/Documents/GitHub/ebs/fMRI experiment/psychopy code/data/110521_bk1_recall_fmri_wav/recall_audio-1636142755.911.wav,0.005675653998878261,None,2,62.24237538199941,56.93189799799984,None,56.93189799799984,None,110521,0,2,2,3,0,1,0,24,2021_Nov_05_1605,recall_fmri,3.2.4,60.05443189581112,
0,,,,,0,0,0,0,0,0,0,0,,,,,,,,,,,,,,,,,,,,,,,,,,,,70.2197222320001,119.19883132700033,None,76.2165839649997,,,,,,,,,,,,,,,,,,,,,,,,,,110521,0,2,2,3,0,1,0,24,2021_Nov_05_1605,recall_fmri,3.2.4,60.05443189581112,
1,,,,,0,0,0,0,0,1,1,1,,,,,,,,,,,,,,,,,,,,,,,,,,,,76.2186096280002,125.19955288599976,125.19955288599976,82.216944238,,,,,,,,,,,,,,,,,,,,,,,,,,110521,0,2,2,3,0,1,0,24,2021_Nov_05_1605,recall_fmri,3.2.4,60.05443189581112,
2,,,,,0,0,0,0,0,2,2,2,,,,,0,0,0,0,,,,,,,,,,,,,,,,,,,,,,,,131.19935681300012,None,2,1.9889113009994617,131.19935681300012,None,131.19935681300012,None,131.19935681300012,None,84.23520124100014,141.49997142600023,133.23104906400022,None,133.23104906400022,None,/Users/columbiadpml/Documents/GitHub/ebs/fMRI experiment/psychopy code/data/110521_bk1_recall_fmri_wav/recall_audio-1636142832.221.wav,0.012414662199262239,None,2,57.23326406100023,133.23104906400022,None,133.23104906400022,None,110521,0,2,2,3,0,1,0,24,2021_Nov_05_1605,recall_fmri,3.2.4,60.05443189581112,
2,,,,,0,0,0,0,0,2,2,2,,,,,,,,,,,,,,,,,,,,,,,,,,,,141.50537403999988,190.48234482899989,None,147.50063024300016,,,,,,,,,,,,,,,,,,,,,,,,,,110521,0,2,2,3,0,1,0,24,2021_Nov_05_1605,recall_fmri,3.2.4,60.05443189581112,
3,,,,,0,0,0,0,0,3,3,3,,,,,0,0,0,0,,,,,,,,,,,,,,,,,,,,,,,,196.48226367000007,None,2,1.5869007710007281,196.48226367000007,None,196.48226367000007,None,196.48226367000007,None,149.11757428800047,220.47942825599966,198.11291536299996,None,198.11291536299996,None,/Users/columbiadpml/Documents/GitHub/ebs/fMRI experiment/psychopy code/data/110521_bk1_recall_fmri_wav/recall_audio-1636142897.103.wav,0.013105125200127077,None,2,71.3263578240003,198.11291536299996,None,198.11291536299996,None,110521,0,2,2,3,0,1,0,24,2021_Nov_05_1605,recall_fmri,3.2.4,60.05443189581112,
3,,,,,0,0,0,0,0,3,3,3,,,,,,,,,,,,,,,,,,,,,,,,,,,,220.48286348199963,269.4622328790001,None,226.4953217680004,,,,,,,,,,,,,,,,,,,,,,,,,,110521,0,2,2,3,0,1,0,24,2021_Nov_05_1605,recall_fmri,3.2.4,60.05443189581112,
﻿count,behav_recall_instructions.thisRepN,behav_recall_instructions.thisTrialN,behav_recall_instructions.thisN,behav_recall_instructions.thisIndex,trials.thisRepN,trials.thisTrialN,trials.thisN,trials.thisIndex,trials_4.thisRepN,trials_4.thisTrialN,trials_4.thisN,trials_4.thisIndex,trials_13.thisRepN,trials_13.thisTrialN,trials_13.thisN,trials_13.thisIndex,trials_17.thisRepN,trials_17.thisTrialN,trials_17.thisN,trials_17.thisIndex,story_list_block1,action_list_block1,text_76.started,text_76.stopped,key_resp_30.keys,key_resp_30.rt,key_resp_30.started,key_resp_30.stopped,textTrigger.started,textTrigger.stopped,getTrigger.keys,getTrigger.rt,getTrigger.started,getTrigger.stopped,triggerTime,text_77.started,text_77.stopped,text_78.started,text_78.stopped,waitStart,image_23.started,image_23.stopped,waitEnd,text_41.started,text_41.stopped,key_resp_26.keys,key_resp_26.rt,key_resp_26.started,key_resp_26.stopped,text_42.started,text_42.stopped,text_51.started,text_51.stopped,recall_StartTime,recall_EndTime,image_18.started,image_18.stopped,text_69.started,text_69.stopped,recall_audio.filename,recall_audio.started,recall_audio.stopped,key_resp_25.keys,key_resp_25.rt,key_resp_25.started,key_resp_25.stopped,text_80.started,text_80.stopped,participant,sA,sB,lA,lB,block_struct,block,behavioral,random_seed,date,expName,psychopyVersion,frameRate,
,,,,,,,,,,,,,,,,,,,,,[43 34 41 32 14 12 23 21],[2 3 4 1 3 1 2 4],9.732410999000422,None,space,15.23782592400039,9.732410999000422,None,,,,,,,,,,,,,,,,,,,,,,,,,,,,,,,,,,,,,,,,,110521,0,2,2,3,0,1,0,24,2021_Nov_05_1605,recall_fmri,3.2.4,60.05443189581112,
0,,,,,0,0,0,0,0,0,0,0,,,,,0,0,0,0,,,,,,,,,24.998128097000517,None,equal,23.95097293099934,24.998128097000517,None,39.25413893099994,24.998128097000517,None,24.998128097000517,None,0.0003579679996619234,48.982395357000314,None,5.999792218999573,54.98165631400025,None,2,1.8364868409998962,54.98165631400025,None,54.98165631400025,None,54.98165631400025,None,7.867263455000284,70.21641736600031,56.93189799799984,None,56.93189799799984,None,/Users/columbiadpml/Documents/GitHub/ebs/fMRI experiment/psychopy code/data/110521_bk1_recall_fmri_wav/recall_audio-1636142755.911.wav,0.005675653998878261,None,2,62.24237538199941,56.93189799799984,None,56.93189799799984,None,110521,0,2,2,3,0,1,0,24,2021_Nov_05_1605,recall_fmri,3.2.4,60.05443189581112,
0,,,,,0,0,0,0,0,0,0,0,,,,,,,,,,,,,,,,,,,,,,,,,,,,70.2197222320001,119.19883132700033,None,76.2165839649997,,,,,,,,,,,,,,,,,,,,,,,,,,110521,0,2,2,3,0,1,0,24,2021_Nov_05_1605,recall_fmri,3.2.4,60.05443189581112,
1,,,,,0,0,0,0,0,1,1,1,,,,,,,,,,,,,,,,,,,,,,,,,,,,76.2186096280002,125.19955288599976,125.19955288599976,82.216944238,,,,,,,,,,,,,,,,,,,,,,,,,,110521,0,2,2,3,0,1,0,24,2021_Nov_05_1605,recall_fmri,3.2.4,60.05443189581112,
2,,,,,0,0,0,0,0,2,2,2,,,,,0,0,0,0,,,,,,,,,,,,,,,,,,,,,,,,131.19935681300012,None,2,1.9889113009994617,131.19935681300012,None,131.19935681300012,None,131.19935681300012,None,84.23520124100014,141.49997142600023,133.23104906400022,None,133.23104906400022,None,/Users/columbiadpml/Documents/GitHub/ebs/fMRI experiment/psychopy code/data/110521_bk1_recall_fmri_wav/recall_audio-1636142832.221.wav,0.012414662199262239,None,2,57.23326406100023,133.23104906400022,None,133.23104906400022,None,110521,0,2,2,3,0,1,0,24,2021_Nov_05_1605,recall_fmri,3.2.4,60.05443189581112,
2,,,,,0,0,0,0,0,2,2,2,,,,,,,,,,,,,,,,,,,,,,,,,,,,141.50537403999988,190.48234482899989,None,147.50063024300016,,,,,,,,,,,,,,,,,,,,,,,,,,110521,0,2,2,3,0,1,0,24,2021_Nov_05_1605,recall_fmri,3.2.4,60.05443189581112,
3,,,,,0,0,0,0,0,3,3,3,,,,,0,0,0,0,,,,,,,,,,,,,,,,,,,,,,,,196.48226367000007,None,2,1.5869007710007281,196.48226367000007,None,196.48226367000007,None,196.48226367000007,None,149.11757428800047,220.47942825599966,198.11291536299996,None,198.11291536299996,None,/Users/columbiadpml/Documents/GitHub/ebs/fMRI experiment/psychopy code/data/110521_bk1_recall_fmri_wav/recall_audio-1636142897.103.wav,0.013105125200127077,None,2,71.3263578240003,198.11291536299996,None,198.11291536299996,None,110521,0,2,2,3,0,1,0,24,2021_Nov_05_1605,recall_fmri,3.2.4,60.05443189581112,
3,,,,,0,0,0,0,0,3,3,3,,,,,,,,,,,,,,,,,,,,,,,,,,,,220.48286348199963,269.4622328790001,None,226.4953217680004,,,,,,,,,,,,,,,,,,,,,,,,,,110521,0,2,2,3,0,1,0,24,2021_Nov_05_1605,recall_fmri,3.2.4,60.05443189581112,
4,,,,,0,0,0,0,0,4,4,4,,,,,,,,,,,,,,,,,,,,,,,,,,,,226.498616416,275.4783983819998,None,232.5123830149996,,,,,,,,,,,,,,,,,,,,,,,,,,110521,0,2,2,3,0,1,0,24,2021_Nov_05_1605,recall_fmri,3.2.4,60.05443189581112,
5,,,,,0,0,0,0,0,5,5,5,,,,,0,0,0,0,,,,,,,,,,,,,,,,,,,,,,,,281.49532881600044,None,2,1.2819842389999394,281.49532881600044,None,281.49532881600044,None,281.49532881600044,None,233.81760024400046,304.5996972490002,282.81217919200026,None,282.81217919200026,None,/Users/columbiadpml/Documents/GitHub/ebs/fMRI experiment/psychopy code/data/110521_bk1_recall_fmri_wav/recall_audio-1636142981.804.wav,0.012567253200359119,None,2,70.71693083700029,282.81217919200026,None,282.81217919200026,None,110521,0,2,2,3,0,1,0,24,2021_Nov_05_1605,recall_fmri,3.2.4,60.05443189581112,
﻿count,behav_recall_instructions.thisRepN,behav_recall_instructions.thisTrialN,behav_recall_instructions.thisN,behav_recall_instructions.thisIndex,trials.thisRepN,trials.thisTrialN,trials.thisN,trials.thisIndex,trials_4.thisRepN,trials_4.thisTrialN,trials_4.thisN,trials_4.thisIndex,trials_13.thisRepN,trials_13.thisTrialN,trials_13.thisN,trials_13.thisIndex,trials_17.thisRepN,trials_17.thisTrialN,trials_17.thisN,trials_17.thisIndex,story_list_block1,action_list_block1,text_76.started,text_76.stopped,key_resp_30.keys,key_resp_30.rt,key_resp_30.started,key_resp_30.stopped,textTrigger.started,textTrigger.stopped,getTrigger.keys,getTrigger.rt,getTrigger.started,getTrigger.stopped,triggerTime,text_77.started,text_77.stopped,text_78.started,text_78.stopped,waitStart,image_23.started,image_23.stopped,waitEnd,text_41.started,text_41.stopped,key_resp_26.keys,key_resp_26.rt,key_resp_26.started,key_resp_26.stopped,text_42.started,text_42.stopped,text_51.started,text_51.stopped,recall_StartTime,recall_EndTime,image_18.started,image_18.stopped,text_69.started,text_69.stopped,recall_audio.filename,recall_audio.started,recall_audio.stopped,key_resp_25.keys,key_resp_25.rt,key_resp_25.started,key_resp_25.stopped,text_80.started,text_80.stopped,participant,sA,sB,lA,lB,block_struct,block,behavioral,random_seed,date,expName,psychopyVersion,frameRate,
,,,,,,,,,,,,,,,,,,,,,[43 34 41 32 14 12 23 21],[2 3 4 1 3 1 2 4],9.732410999000422,None,space,15.23782592400039,9.732410999000422,None,,,,,,,,,,,,,,,,,,,,,,,,,,,,,,,,,,,,,,,,,110521,0,2,2,3,0,1,0,24,2021_Nov_05_1605,recall_fmri,3.2.4,60.05443189581112,
0,,,,,0,0,0,0,0,0,0,0,,,,,0,0,0,0,,,,,,,,,24.998128097000517,None,equal,23.95097293099934,24.998128097000517,None,39.25413893099994,24.998128097000517,None,24.998128097000517,None,0.0003579679996619234,48.982395357000314,None,5.999792218999573,54.98165631400025,None,2,1.8364868409998962,54.98165631400025,None,54.98165631400025,None,54.98165631400025,None,7.867263455000284,70.21641736600031,56.93189799799984,None,56.93189799799984,None,/Users/columbiadpml/Documents/GitHub/ebs/fMRI experiment/psychopy code/data/110521_bk1_recall_fmri_wav/recall_audio-1636142755.911.wav,0.005675653998878261,None,2,62.24237538199941,56.93189799799984,None,56.93189799799984,None,110521,0,2,2,3,0,1,0,24,2021_Nov_05_1605,recall_fmri,3.2.4,60.05443189581112,
0,,,,,0,0,0,0,0,0,0,0,,,,,,,,,,,,,,,,,,,,,,,,,,,,70.2197222320001,119.19883132700033,None,76.2165839649997,,,,,,,,,,,,,,,,,,,,,,,,,,110521,0,2,2,3,0,1,0,24,2021_Nov_05_1605,recall_fmri,3.2.4,60.05443189581112,
1,,,,,0,0,0,0,0,1,1,1,,,,,,,,,,,,,,,,,,,,,,,,,,,,76.2186096280002,125.19955288599976,125.19955288599976,82.216944238,,,,,,,,,,,,,,,,,,,,,,,,,,110521,0,2,2,3,0,1,0,24,2021_Nov_05_1605,recall_fmri,3.2.4,60.05443189581112,
2,,,,,0,0,0,0,0,2,2,2,,,,,0,0,0,0,,,,,,,,,,,,,,,,,,,,,,,,131.19935681300012,None,2,1.9889113009994617,131.19935681300012,None,131.19935681300012,None,131.19935681300012,None,84.23520124100014,141.49997142600023,133.23104906400022,None,133.23104906400022,None,/Users/columbiadpml/Documents/GitHub/ebs/fMRI experiment/psychopy code/data/110521_bk1_recall_fmri_wav/recall_audio-1636142832.221.wav,0.012414662199262239,None,2,57.23326406100023,133.23104906400022,None,133.23104906400022,None,110521,0,2,2,3,0,1,0,24,2021_Nov_05_1605,recall_fmri,3.2.4,60.05443189581112,
2,,,,,0,0,0,0,0,2,2,2,,,,,,,,,,,,,,,,,,,,,,,,,,,,141.50537403999988,190.48234482899989,None,147.50063024300016,,,,,,,,,,,,,,,,,,,,,,,,,,110521,0,2,2,3,0,1,0,24,2021_Nov_05_1605,recall_fmri,3.2.4,60.05443189581112,
3,,,,,0,0,0,0,0,3,3,3,,,,,0,0,0,0,,,,,,,,,,,,,,,,,,,,,,,,196.48226367000007,None,2,1.5869007710007281,196.48226367000007,None,196.48226367000007,None,196.48226367000007,None,149.11757428800047,220.47942825599966,198.11291536299996,None,198.11291536299996,None,/Users/columbiadpml/Documents/GitHub/ebs/fMRI experiment/psychopy code/data/110521_bk1_recall_fmri_wav/recall_audio-1636142897.103.wav,0.013105125200127077,None,2,71.3263578240003,198.11291536299996,None,198.11291536299996,None,110521,0,2,2,3,0,1,0,24,2021_Nov_05_1605,recall_fmri,3.2.4,60.05443189581112,
3,,,,,0,0,0,0,0,3,3,3,,,,,,,,,,,,,,,,,,,,,,,,,,,,220.48286348199963,269.4622328790001,None,226.4953217680004,,,,,,,,,,,,,,,,,,,,,,,,,,110521,0,2,2,3,0,1,0,24,2021_Nov_05_1605,recall_fmri,3.2.4,60.05443189581112,
4,,,,,0,0,0,0,0,4,4,4,,,,,,,,,,,,,,,,,,,,,,,,,,,,226.498616416,275.4783983819998,None,232.5123830149996,,,,,,,,,,,,,,,,,,,,,,,,,,110521,0,2,2,3,0,1,0,24,2021_Nov_05_1605,recall_fmri,3.2.4,60.05443189581112,
5,,,,,0,0,0,0,0,5,5,5,,,,,0,0,0,0,,,,,,,,,,,,,,,,,,,,,,,,281.49532881600044,None,2,1.2819842389999394,281.49532881600044,None,281.49532881600044,None,281.49532881600044,None,233.81760024400046,304.5996972490002,282.81217919200026,None,282.81217919200026,None,/Users/columbiadpml/Documents/GitHub/ebs/fMRI experiment/psychopy code/data/110521_bk1_recall_fmri_wav/recall_audio-1636142981.804.wav,0.012567253200359119,None,2,70.71693083700029,282.81217919200026,None,282.81217919200026,None,110521,0,2,2,3,0,1,0,24,2021_Nov_05_1605,recall_fmri,3.2.4,60.05443189581112,
5,,,,,0,0,0,0,0,5,5,5,,,,,,,,,,,,,,,,,,,,,,,,,,,,304.60396772999957,353.577372705,None,310.5949823359997,,,,,,,,,,,,,,,,,,,,,,,,,,110521,0,2,2,3,0,1,0,24,2021_Nov_05_1605,recall_fmri,3.2.4,60.05443189581112,
6,,,,,0,0,0,0,0,6,6,6,,,,,0,0,0,0,,,,,,,,,,,,,,,,,,,,,,,,359.57775518000017,None,2,1.3025055150001208,359.57775518000017,None,359.57775518000017,None,359.57775518000017,None,311.9186469899996,395.40053080100006,360.9103492490003,None,360.9103492490003,None,/Users/columbiadpml/Documents/GitHub/ebs/fMRI experiment/psychopy code/data/110521_bk1_recall_fmri_wav/recall_audio-1636143059.904.wav,0.01314482420002605,None,2,83.45491651799966,360.9103492490003,None,360.9103492490003,None,110521,0,2,2,3,0,1,0,24,2021_Nov_05_1605,recall_fmri,3.2.4,60.05443189581112,
﻿count,behav_recall_instructions.thisRepN,behav_recall_instructions.thisTrialN,behav_recall_instructions.thisN,behav_recall_instructions.thisIndex,trials.thisRepN,trials.thisTrialN,trials.thisN,trials.thisIndex,trials_4.thisRepN,trials_4.thisTrialN,trials_4.thisN,trials_4.thisIndex,trials_13.thisRepN,trials_13.thisTrialN,trials_13.thisN,trials_13.thisIndex,trials_17.thisRepN,trials_17.thisTrialN,trials_17.thisN,trials_17.thisIndex,story_list_block1,action_list_block1,text_76.started,text_76.stopped,key_resp_30.keys,key_resp_30.rt,key_resp_30.started,key_resp_30.stopped,textTrigger.started,textTrigger.stopped,getTrigger.keys,getTrigger.rt,getTrigger.started,getTrigger.stopped,triggerTime,text_77.started,text_77.stopped,text_78.started,text_78.stopped,waitStart,image_23.started,image_23.stopped,waitEnd,text_41.started,text_41.stopped,key_resp_26.keys,key_resp_26.rt,key_resp_26.started,key_resp_26.stopped,text_42.started,text_42.stopped,text_51.started,text_51.stopped,recall_StartTime,recall_EndTime,image_18.started,image_18.stopped,text_69.started,text_69.stopped,recall_audio.filename,recall_audio.started,recall_audio.stopped,key_resp_25.keys,key_resp_25.rt,key_resp_25.started,key_resp_25.stopped,text_80.started,text_80.stopped,participant,sA,sB,lA,lB,block_struct,block,behavioral,random_seed,date,expName,psychopyVersion,frameRate,
,,,,,,,,,,,,,,,,,,,,,[43 34 41 32 14 12 23 21],[2 3 4 1 3 1 2 4],9.732410999000422,None,space,15.23782592400039,9.732410999000422,None,,,,,,,,,,,,,,,,,,,,,,,,,,,,,,,,,,,,,,,,,110521,0,2,2,3,0,1,0,24,2021_Nov_05_1605,recall_fmri,3.2.4,60.05443189581112,
0,,,,,0,0,0,0,0,0,0,0,,,,,0,0,0,0,,,,,,,,,24.998128097000517,None,equal,23.95097293099934,24.998128097000517,None,39.25413893099994,24.998128097000517,None,24.998128097000517,None,0.0003579679996619234,48.982395357000314,None,5.999792218999573,54.98165631400025,None,2,1.8364868409998962,54.98165631400025,None,54.98165631400025,None,54.98165631400025,None,7.867263455000284,70.21641736600031,56.93189799799984,None,56.93189799799984,None,/Users/columbiadpml/Documents/GitHub/ebs/fMRI experiment/psychopy code/data/110521_bk1_recall_fmri_wav/recall_audio-1636142755.911.wav,0.005675653998878261,None,2,62.24237538199941,56.93189799799984,None,56.93189799799984,None,110521,0,2,2,3,0,1,0,24,2021_Nov_05_1605,recall_fmri,3.2.4,60.05443189581112,
0,,,,,0,0,0,0,0,0,0,0,,,,,,,,,,,,,,,,,,,,,,,,,,,,70.2197222320001,119.19883132700033,None,76.2165839649997,,,,,,,,,,,,,,,,,,,,,,,,,,110521,0,2,2,3,0,1,0,24,2021_Nov_05_1605,recall_fmri,3.2.4,60.05443189581112,
1,,,,,0,0,0,0,0,1,1,1,,,,,,,,,,,,,,,,,,,,,,,,,,,,76.2186096280002,125.19955288599976,125.19955288599976,82.216944238,,,,,,,,,,,,,,,,,,,,,,,,,,110521,0,2,2,3,0,1,0,24,2021_Nov_05_1605,recall_fmri,3.2.4,60.05443189581112,
2,,,,,0,0,0,0,0,2,2,2,,,,,0,0,0,0,,,,,,,,,,,,,,,,,,,,,,,,131.19935681300012,None,2,1.9889113009994617,131.19935681300012,None,131.19935681300012,None,131.19935681300012,None,84.23520124100014,141.49997142600023,133.23104906400022,None,133.23104906400022,None,/Users/columbiadpml/Documents/GitHub/ebs/fMRI experiment/psychopy code/data/110521_bk1_recall_fmri_wav/recall_audio-1636142832.221.wav,0.012414662199262239,None,2,57.23326406100023,133.23104906400022,None,133.23104906400022,None,110521,0,2,2,3,0,1,0,24,2021_Nov_05_1605,recall_fmri,3.2.4,60.05443189581112,
2,,,,,0,0,0,0,0,2,2,2,,,,,,,,,,,,,,,,,,,,,,,,,,,,141.50537403999988,190.48234482899989,None,147.50063024300016,,,,,,,,,,,,,,,,,,,,,,,,,,110521,0,2,2,3,0,1,0,24,2021_Nov_05_1605,recall_fmri,3.2.4,60.05443189581112,
3,,,,,0,0,0,0,0,3,3,3,,,,,0,0,0,0,,,,,,,,,,,,,,,,,,,,,,,,196.48226367000007,None,2,1.5869007710007281,196.48226367000007,None,196.48226367000007,None,196.48226367000007,None,149.11757428800047,220.47942825599966,198.11291536299996,None,198.11291536299996,None,/Users/columbiadpml/Documents/GitHub/ebs/fMRI experiment/psychopy code/data/110521_bk1_recall_fmri_wav/recall_audio-1636142897.103.wav,0.013105125200127077,None,2,71.3263578240003,198.11291536299996,None,198.11291536299996,None,110521,0,2,2,3,0,1,0,24,2021_Nov_05_1605,recall_fmri,3.2.4,60.05443189581112,
3,,,,,0,0,0,0,0,3,3,3,,,,,,,,,,,,,,,,,,,,,,,,,,,,220.48286348199963,269.4622328790001,None,226.4953217680004,,,,,,,,,,,,,,,,,,,,,,,,,,110521,0,2,2,3,0,1,0,24,2021_Nov_05_1605,recall_fmri,3.2.4,60.05443189581112,
4,,,,,0,0,0,0,0,4,4,4,,,,,,,,,,,,,,,,,,,,,,,,,,,,226.498616416,275.4783983819998,None,232.5123830149996,,,,,,,,,,,,,,,,,,,,,,,,,,110521,0,2,2,3,0,1,0,24,2021_Nov_05_1605,recall_fmri,3.2.4,60.05443189581112,
5,,,,,0,0,0,0,0,5,5,5,,,,,0,0,0,0,,,,,,,,,,,,,,,,,,,,,,,,281.49532881600044,None,2,1.2819842389999394,281.49532881600044,None,281.49532881600044,None,281.49532881600044,None,233.81760024400046,304.5996972490002,282.81217919200026,None,282.81217919200026,None,/Users/columbiadpml/Documents/GitHub/ebs/fMRI experiment/psychopy code/data/110521_bk1_recall_fmri_wav/recall_audio-1636142981.804.wav,0.012567253200359119,None,2,70.71693083700029,282.81217919200026,None,282.81217919200026,None,110521,0,2,2,3,0,1,0,24,2021_Nov_05_1605,recall_fmri,3.2.4,60.05443189581112,
5,,,,,0,0,0,0,0,5,5,5,,,,,,,,,,,,,,,,,,,,,,,,,,,,304.60396772999957,353.577372705,None,310.5949823359997,,,,,,,,,,,,,,,,,,,,,,,,,,110521,0,2,2,3,0,1,0,24,2021_Nov_05_1605,recall_fmri,3.2.4,60.05443189581112,
6,,,,,0,0,0,0,0,6,6,6,,,,,0,0,0,0,,,,,,,,,,,,,,,,,,,,,,,,359.57775518000017,None,2,1.3025055150001208,359.57775518000017,None,359.57775518000017,None,359.57775518000017,None,311.9186469899996,395.40053080100006,360.9103492490003,None,360.9103492490003,None,/Users/columbiadpml/Documents/GitHub/ebs/fMRI experiment/psychopy code/data/110521_bk1_recall_fmri_wav/recall_audio-1636143059.904.wav,0.01314482420002605,None,2,83.45491651799966,360.9103492490003,None,360.9103492490003,None,110521,0,2,2,3,0,1,0,24,2021_Nov_05_1605,recall_fmri,3.2.4,60.05443189581112,
6,,,,,0,0,0,0,0,6,6,6,,,,,,,,,,,,,,,,,,,,,,,,,,,,395.4065009149999,444.38400464200004,None,401.41110499499973,,,,,,,,,,,,,,,,,,,,,,,,,,110521,0,2,2,3,0,1,0,24,2021_Nov_05_1605,recall_fmri,3.2.4,60.05443189581112,
7,,,,,0,0,0,0,0,7,7,7,,,,,0,0,0,0,,,,,,,,,,,,,,,,,,,,,,,,450.3926524469998,None,2,1.873550451000483,450.3926524469998,None,450.3926524469998,None,450.3926524469998,None,403.3016909119997,440.8341103539997,452.3000308720002,None,452.3000308720002,None,/Users/columbiadpml/Documents/GitHub/ebs/fMRI experiment/psychopy code/data/110521_bk1_recall_fmri_wav/recall_audio-1636143151.288.wav,0.012308615199799533,None,2,37.48715748900031,452.3000308720002,None,452.3000308720002,None,110521,0,2,2,3,0,1,0,24,2021_Nov_05_1605,recall_fmri,3.2.4,60.05443189581112,
