instructText,count,trials_5.thisRepN,trials_5.thisTrialN,trials_5.thisN,trials_5.thisIndex,trials_6.thisRepN,trials_6.thisTrialN,trials_6.thisN,trials_6.thisIndex,trials.thisRepN,trials.thisTrialN,trials.thisN,trials.thisIndex,trials_8.thisRepN,trials_8.thisTrialN,trials_8.thisN,trials_8.thisIndex,story_list_block1,action_list_block1,story_list_block2,action_list_block2,key_resp_3.keys,key_resp_3.rt,key_resp_3.started,key_resp_3.stopped,text_13.started,text_13.stopped,text_23.started,text_23.stopped,text_43.started,text_43.stopped,key_resp_11.keys,key_resp_11.rt,key_resp_11.started,key_resp_11.stopped,text_44.started,text_44.stopped,text_53.started,text_53.stopped,image_10.started,image_10.stopped,text_22.started,text_22.stopped,recall,question1_answer,order of question,text_14.started,text_14.stopped,text_15.started,text_15.stopped,image_6.started,image_6.stopped,polygon_3.started,polygon_3.stopped,bottom_line_3.started,bottom_line_3.stopped,right_line_3.started,right_line_3.stopped,left_line_3.started,left_line_3.stopped,question2_answer,text_16.started,text_16.stopped,text_17.started,text_17.stopped,image_7.started,image_7.stopped,polygon_4.started,polygon_4.stopped,bottom_line_4.started,bottom_line_4.stopped,right_line_4.started,right_line_4.stopped,left_line_4.started,left_line_4.stopped,question3_answer,text_18.started,text_18.stopped,text_19.started,text_19.stopped,image_8.started,image_8.stopped,polygon_5.started,polygon_5.stopped,bottom_line_5.started,bottom_line_5.stopped,right_line_5.started,right_line_5.stopped,left_line_5.started,left_line_5.stopped,question4_answer,text_20.started,text_20.stopped,text_21.started,text_21.stopped,image_9.started,image_9.stopped,polygon_6.started,polygon_6.stopped,bottom_line_6.started,bottom_line_6.stopped,right_line_6.started,right_line_6.stopped,left_line_6.started,left_line_6.stopped,question5_answer,text_25.started,text_25.stopped,text_26.started,text_26.stopped,image_11.started,image_11.stopped,polygon_7.started,polygon_7.stopped,bottom_line_7.started,bottom_line_7.stopped,right_line_7.started,right_line_7.stopped,left_line_7.started,left_line_7.stopped,question6_answer,text_27.started,text_27.stopped,text_28.started,text_28.stopped,image_12.started,image_12.stopped,polygon_8.started,polygon_8.stopped,bottom_line_8.started,bottom_line_8.stopped,right_line_8.started,right_line_8.stopped,left_line_8.started,left_line_8.stopped,question7_answer,text_29.started,text_29.stopped,text_30.started,text_30.stopped,image_13.started,image_13.stopped,polygon_9.started,polygon_9.stopped,bottom_line_9.started,bottom_line_9.stopped,right_line_9.started,right_line_9.stopped,left_line_9.started,left_line_9.stopped,question8_answer,text_31.started,text_31.stopped,text_32.started,text_32.stopped,image_14.started,image_14.stopped,polygon_10.started,polygon_10.stopped,bottom_line_10.started,bottom_line_10.stopped,right_line_10.started,right_line_10.stopped,left_line_10.started,left_line_10.stopped,text_36.started,text_36.stopped,participant,sA,sB,lA,lB,block_struct,random_seed,date,expName,psychopyVersion,frameRate,
"In the final part of the experiment, please answer 8 questions about each story.",,0,0,0,0,,,,,,,,,,,,,[14 34 23 12 41 32 21 43],[4 1 2 2 1 3 4 3],[31 33 11 22 44 13 24 42],[1 3 4 2 1 2 4 3],space,4.664486229999966,7.109758201999284,None,7.109758201999284,None,7.109758201999284,None,,,,,,,,,,,,,,,,,,,,,,,,,,,,,,,,,,,,,,,,,,,,,,,,,,,,,,,,,,,,,,,,,,,,,,,,,,,,,,,,,,,,,,,,,,,,,,,,,,,,,,,,,,,,,,,,,,,,,,,,,,,,,,,,,,,,,,,,,,,101821,2,3,1,2,0,68,2021_Oct_18_1050,short_answer,3.2.4,59.90690383267799,
"We did not tell you to think of all or some of these questions during the story, but please do your best to answer them.",,0,1,1,1,,,,,,,,,,,,,,,,,space,5.3591480890008825,11.808926680998411,None,11.808926680998411,None,11.808926680998411,None,,,,,,,,,,,,,,,,,,,,,,,,,,,,,,,,,,,,,,,,,,,,,,,,,,,,,,,,,,,,,,,,,,,,,,,,,,,,,,,,,,,,,,,,,,,,,,,,,,,,,,,,,,,,,,,,,,,,,,,,,,,,,,,,,,,,,,,,,,,101821,2,3,1,2,0,68,2021_Oct_18_1050,short_answer,3.2.4,59.90690383267799,
"Answer as much as you remember, and be specific and concrete in your answers. It is best to try to be as faithful as possible to what the story actually said.
",,0,2,2,2,,,,,,,,,,,,,,,,,space,7.680974924000111,17.20887315299842,None,17.20887315299842,None,17.20887315299842,None,,,,,,,,,,,,,,,,,,,,,,,,,,,,,,,,,,,,,,,,,,,,,,,,,,,,,,,,,,,,,,,,,,,,,,,,,,,,,,,,,,,,,,,,,,,,,,,,,,,,,,,,,,,,,,,,,,,,,,,,,,,,,,,,,,,,,,,,,,,101821,2,3,1,2,0,68,2021_Oct_18_1050,short_answer,3.2.4,59.90690383267799,
"When you have finished typing your answer, hit ‘return’ to submit your answer and move onto the next question. ",,0,3,3,3,,,,,,,,,,,,,,,,,space,5.138903434000895,24.925933946999066,None,24.925933946999066,None,24.925933946999066,None,,,,,,,,,,,,,,,,,,,,,,,,,,,,,,,,,,,,,,,,,,,,,,,,,,,,,,,,,,,,,,,,,,,,,,,,,,,,,,,,,,,,,,,,,,,,,,,,,,,,,,,,,,,,,,,,,,,,,,,,,,,,,,,,,,,,,,,,,,,101821,2,3,1,2,0,68,2021_Oct_18_1050,short_answer,3.2.4,59.90690383267799,
,0,,,,,0,0,0,0,0,0,0,0,,,,,,,,,,,,,,,,,30.10980797999946,None,space,11.576856818999659,30.10980797999946,None,30.10980797999946,None,30.10980797999946,None,41.75942808799846,None,41.75942808799846,None,"Maria wants her alpaca sweater back, which she left in henry's room","Very full, maria and tom are confined to the back","[2, 1]",44.77621872099917,None,44.77621872099917,None,44.77621872099917,None,44.77621872099917,None,44.77621872099917,None,44.77621872099917,None,44.77621872099917,None,,66.70977786099866,None,66.70977786099866,None,66.70977786099866,None,66.70977786099866,None,66.70977786099866,None,66.70977786099866,None,66.70977786099866,None,,71.95877023399953,None,71.95877023399953,None,71.95877023399953,None,71.95877023399953,None,71.95877023399953,None,71.95877023399953,None,71.95877023399953,None,"Midterm, tuesday",75.89316856299956,None,75.89316856299956,None,75.89316856299956,None,75.89316856299956,None,75.89316856299956,None,75.89316856299956,None,75.89316856299956,None,A couple weeks,83.47642847699899,None,83.47642847699899,None,83.47642847699899,None,83.47642847699899,None,83.47642847699899,None,83.47642847699899,None,83.47642847699899,None,"Travelling abroad, wants to get the most out of the experience",105.37607561799996,None,105.37607561799996,None,105.37607561799996,None,105.37607561799996,None,105.37607561799996,None,105.37607561799996,None,105.37607561799996,None,Henry does not want to break up because he is willing to do long distance and will visit maria,122.12634183099908,None,122.12634183099908,None,122.12634183099908,None,122.12634183099908,None,122.12634183099908,None,122.12634183099908,None,122.12634183099908,None,"Maria wants her alpaca sweater back, which she left in henry's room",146.9091742749988,None,146.9091742749988,None,146.9091742749988,None,146.9091742749988,None,146.9091742749988,None,146.9091742749988,None,146.9091742749988,None,,,101821,2,3,1,2,0,68,2021_Oct_18_1050,short_answer,3.2.4,59.90690383267799,
,0,,,,,0,0,0,0,,,,,,,,,,,,,,,,,,,,,,,,,,,,,,,,,,,,,,,,,,,,,,,,,,,,,,,,,,,,,,,,,,,,,,,,,,,,,,,,,,,,,,,,,,,,,,,,,,,,,,,,,,,,,,,,,,,,,,,,,,,,,,,,,,,,,,,,,,,,,,,,,,,,,,,,,,,,,,,101821,2,3,1,2,0,68,2021_Oct_18_1050,short_answer,3.2.4,59.90690383267799,
,1,,,,,0,1,1,1,0,0,0,0,,,,,,,,,,,,,,,,,165.257460978999,None,space,1.926831709999533,165.257460978999,None,165.257460978999,None,165.257460978999,None,167.2244065750001,None,167.2244065750001,None,Midterm,"Charlie is fund manager, alma is founder and ceo","[1, 2]",168.39152444499996,None,168.39152444499996,None,168.39152444499996,None,168.39152444499996,None,168.39152444499996,None,168.39152444499996,None,168.39152444499996,None,"$26,000",187.42418693699983,None,187.42418693699983,None,187.42418693699983,None,187.42418693699983,None,187.42418693699983,None,187.42418693699983,None,187.42418693699983,None,Churchill partners,197.39151731699894,None,197.39151731699894,None,197.39151731699894,None,197.39151731699894,None,197.39151731699894,None,197.39151731699894,None,197.39151731699894,None,A hug,225.95782610199967,None,225.95782610199967,None,225.95782610199967,None,225.95782610199967,None,225.95782610199967,None,225.95782610199967,None,225.95782610199967,None,"Large, filled",229.4406750299986,None,229.4406750299986,None,229.4406750299986,None,229.4406750299986,None,229.4406750299986,None,229.4406750299986,None,229.4406750299986,None,"Roman art/architecture, and today's class is about augustus's influence in rome in shaping architecture, especially as defining a roman identity",239.3738857979988,None,239.3738857979988,None,239.3738857979988,None,239.3738857979988,None,239.3738857979988,None,239.3738857979988,None,239.3738857979988,None,Augustus wants to differentiate from the greeks,282.3901180819994,None,282.3901180819994,None,282.3901180819994,None,282.3901180819994,None,282.3901180819994,None,282.3901180819994,None,282.3901180819994,None,Midterm,294.1405533699999,None,294.1405533699999,None,294.1405533699999,None,294.1405533699999,None,294.1405533699999,None,294.1405533699999,None,294.1405533699999,None,,,101821,2,3,1,2,0,68,2021_Oct_18_1050,short_answer,3.2.4,59.90690383267799,
,1,,,,,0,1,1,1,,,,,,,,,,,,,,,,,,,,,,,,,,,,,,,,,,,,,,,,,,,,,,,,,,,,,,,,,,,,,,,,,,,,,,,,,,,,,,,,,,,,,,,,,,,,,,,,,,,,,,,,,,,,,,,,,,,,,,,,,,,,,,,,,,,,,,,,,,,,,,,,,,,,,,,,,,,,,,,101821,2,3,1,2,0,68,2021_Oct_18_1050,short_answer,3.2.4,59.90690383267799,
,2,,,,,0,2,2,2,0,0,0,0,,,,,,,,,,,,,,,,,302.22220444899904,None,space,1.2453321769989998,302.22220444899904,None,302.22220444899904,None,302.22220444899904,None,303.5061764359998,None,303.5061764359998,None,Mom,,"[2, 1]",304.4070966349991,None,304.4070966349991,None,304.4070966349991,None,304.4070966349991,None,304.4070966349991,None,304.4070966349991,None,304.4070966349991,None,"Sweet potatoe puree, vinegar",309.6072063749998,None,309.6072063749998,None,309.6072063749998,None,309.6072063749998,None,309.6072063749998,None,309.6072063749998,None,309.6072063749998,None,"5 are open, they go to lane 3",322.47236335899834,None,322.47236335899834,None,322.47236335899834,None,322.47236335899834,None,322.47236335899834,None,322.47236335899834,None,322.47236335899834,None,Alex pays $14 in cash,333.55613702999835,None,333.55613702999835,None,333.55613702999835,None,333.55613702999835,None,333.55613702999835,None,333.55613702999835,None,333.55613702999835,None,5 years,342.2227066139985,None,342.2227066139985,None,342.2227066139985,None,342.2227066139985,None,342.2227066139985,None,342.2227066139985,None,342.2227066139985,None,1 white diamond,353.6558820759983,None,353.6558820759983,None,353.6558820759983,None,353.6558820759983,None,353.6558820759983,None,353.6558820759983,None,353.6558820759983,None,,359.9727787949996,None,359.9727787949996,None,359.9727787949996,None,359.9727787949996,None,359.9727787949996,None,359.9727787949996,None,359.9727787949996,None,Mom,367.5394737009992,None,367.5394737009992,None,367.5394737009992,None,367.5394737009992,None,367.5394737009992,None,367.5394737009992,None,367.5394737009992,None,,,101821,2,3,1,2,0,68,2021_Oct_18_1050,short_answer,3.2.4,59.90690383267799,
,2,,,,,0,2,2,2,,,,,,,,,,,,,,,,,,,,,,,,,,,,,,,,,,,,,,,,,,,,,,,,,,,,,,,,,,,,,,,,,,,,,,,,,,,,,,,,,,,,,,,,,,,,,,,,,,,,,,,,,,,,,,,,,,,,,,,,,,,,,,,,,,,,,,,,,,,,,,,,,,,,,,,,,,,,,,,101821,2,3,1,2,0,68,2021_Oct_18_1050,short_answer,3.2.4,59.90690383267799,
,3,,,,,0,3,3,3,0,0,0,0,,,,,,,,,,,,,,,,,370.38909550899916,None,space,0.9313470510005573,370.38909550899916,None,370.38909550899916,None,370.38909550899916,None,371.35532744400007,None,371.35532744400007,None,Jessie wants her books of philosophy back from calvin,45 minutes,"[2, 1]",372.30630314099835,None,372.30630314099835,None,372.30630314099835,None,372.30630314099835,None,372.30630314099835,None,372.30630314099835,None,372.30630314099835,None,The security guards are changing shifts,383.38943022700005,None,383.38943022700005,None,383.38943022700005,None,383.38943022700005,None,383.38943022700005,None,383.38943022700005,None,383.38943022700005,None,30,395.93908767099856,None,395.93908767099856,None,395.93908767099856,None,395.93908767099856,None,395.93908767099856,None,395.93908767099856,None,395.93908767099856,None,"Jessie sits in 33a, calving sits in 36c",399.4385790439992,None,399.4385790439992,None,399.4385790439992,None,399.4385790439992,None,399.4385790439992,None,399.4385790439992,None,399.4385790439992,None,Jessie has been thinking about breaking up with calvin for 6 weeks,415.2724053699985,None,415.2724053699985,None,415.2724053699985,None,415.2724053699985,None,415.2724053699985,None,415.2724053699985,None,415.2724053699985,None,,433.721552297,None,433.721552297,None,433.721552297,None,433.721552297,None,433.721552297,None,433.721552297,None,433.721552297,None,"No, calvin doesn't want to break up",449.4384645509999,None,449.4384645509999,None,449.4384645509999,None,449.4384645509999,None,449.4384645509999,None,449.4384645509999,None,449.4384645509999,None,Jessie wants her books of philosophy back from calvin,472.9052125769995,None,472.9052125769995,None,472.9052125769995,None,472.9052125769995,None,472.9052125769995,None,472.9052125769995,None,472.9052125769995,None,,,101821,2,3,1,2,0,68,2021_Oct_18_1050,short_answer,3.2.4,59.90690383267799,
,3,,,,,0,3,3,3,,,,,,,,,,,,,,,,,,,,,,,,,,,,,,,,,,,,,,,,,,,,,,,,,,,,,,,,,,,,,,,,,,,,,,,,,,,,,,,,,,,,,,,,,,,,,,,,,,,,,,,,,,,,,,,,,,,,,,,,,,,,,,,,,,,,,,,,,,,,,,,,,,,,,,,,,,,,,,,101821,2,3,1,2,0,68,2021_Oct_18_1050,short_answer,3.2.4,59.90690383267799,
,4,,,,,0,4,4,4,0,0,0,0,,,,,,,,,,,,,,,,,485.20356195899876,None,space,0.7457022640010109,485.20356195899876,None,485.20356195899876,None,485.20356195899876,None,485.98701905599955,None,485.98701905599955,None,,Coffee cup,"[1, 2]",487.15466493299937,None,487.15466493299937,None,487.15466493299937,None,487.15466493299937,None,487.15466493299937,None,487.15466493299937,None,487.15466493299937,None,James asks teresa if she hurt her head running into the door,493.70410498399906,None,493.70410498399906,None,493.70410498399906,None,493.70410498399906,None,493.70410498399906,None,493.70410498399906,None,493.70410498399906,None,James will pick teresa up to go to a concert,507.9545728189987,None,507.9545728189987,None,507.9545728189987,None,507.9545728189987,None,507.9545728189987,None,507.9545728189987,None,507.9545728189987,None,3 pm,518.604027551999,None,518.604027551999,None,518.604027551999,None,518.604027551999,None,518.604027551999,None,518.604027551999,None,518.604027551999,None,,529.9536211389986,None,529.9536211389986,None,529.9536211389986,None,529.9536211389986,None,529.9536211389986,None,529.9536211389986,None,529.9536211389986,None,,534.6199020449985,None,534.6199020449985,None,534.6199020449985,None,534.6199020449985,None,534.6199020449985,None,534.6199020449985,None,534.6199020449985,None,,539.2037621549989,None,539.2037621549989,None,539.2037621549989,None,539.2037621549989,None,539.2037621549989,None,539.2037621549989,None,539.2037621549989,None,,544.2704821409989,None,544.2704821409989,None,544.2704821409989,None,544.2704821409989,None,544.2704821409989,None,544.2704821409989,None,544.2704821409989,None,,,101821,2,3,1,2,0,68,2021_Oct_18_1050,short_answer,3.2.4,59.90690383267799,
,4,,,,,0,4,4,4,,,,,,,,,,,,,,,,,,,,,,,,,,,,,,,,,,,,,,,,,,,,,,,,,,,,,,,,,,,,,,,,,,,,,,,,,,,,,,,,,,,,,,,,,,,,,,,,,,,,,,,,,,,,,,,,,,,,,,,,,,,,,,,,,,,,,,,,,,,,,,,,,,,,,,,,,,,,,,,101821,2,3,1,2,0,68,2021_Oct_18_1050,short_answer,3.2.4,59.90690383267799,
,5,,,,,0,5,5,5,,,,,,,,,,,,,,,,,,,,,,,,,,,,,,,,,,,,,,,,,,,,,,,,,,,,,,,,,,,,,,,,,,,,,,,,,,,,,,,,,,,,,,,,,,,,,,,,,,,,,,,,,,,,,,,,,,,,,,,,,,,,,,,,,,,,,,,,,,,,,,,,,,,,,,,,,,,,,,,101821,2,3,1,2,0,68,2021_Oct_18_1050,short_answer,3.2.4,59.90690383267799,
,6,,,,,0,6,6,6,0,0,0,0,,,,,,,,,,,,,,,,,550.9534460369996,None,space,0.7963212480008224,550.9534460369996,None,550.9534460369996,None,550.9534460369996,None,551.7863988829995,None,551.7863988829995,None,,,"[2, 1]",552.7532259129985,None,552.7532259129985,None,552.7532259129985,None,552.7532259129985,None,552.7532259129985,None,552.7532259129985,None,552.7532259129985,None,,555.3025351669985,None,555.3025351669985,None,555.3025351669985,None,555.3025351669985,None,555.3025351669985,None,555.3025351669985,None,555.3025351669985,None,,556.619596556,None,556.619596556,None,556.619596556,None,556.619596556,None,556.619596556,None,556.619596556,None,556.619596556,None,,558.403967536,None,558.403967536,None,558.403967536,None,558.403967536,None,558.403967536,None,558.403967536,None,558.403967536,None,,559.719889811,None,559.719889811,None,559.719889811,None,559.719889811,None,559.719889811,None,559.719889811,None,559.719889811,None,"5 red diamonds, because alvira likes the avant-garde",563.6540821409999,None,563.6540821409999,None,563.6540821409999,None,563.6540821409999,None,563.6540821409999,None,563.6540821409999,None,563.6540821409999,None,,578.9368465729985,None,578.9368465729985,None,578.9368465729985,None,578.9368465729985,None,578.9368465729985,None,578.9368465729985,None,578.9368465729985,None,,584.1033246429997,None,584.1033246429997,None,584.1033246429997,None,584.1033246429997,None,584.1033246429997,None,584.1033246429997,None,584.1033246429997,None,,,101821,2,3,1,2,0,68,2021_Oct_18_1050,short_answer,3.2.4,59.90690383267799,
,6,,,,,0,6,6,6,,,,,,,,,,,,,,,,,,,,,,,,,,,,,,,,,,,,,,,,,,,,,,,,,,,,,,,,,,,,,,,,,,,,,,,,,,,,,,,,,,,,,,,,,,,,,,,,,,,,,,,,,,,,,,,,,,,,,,,,,,,,,,,,,,,,,,,,,,,,,,,,,,,,,,,,,,,,,,,101821,2,3,1,2,0,68,2021_Oct_18_1050,short_answer,3.2.4,59.90690383267799,
,7,,,,,0,7,7,7,,,,,,,,,,,,,,,,,,,,,,,,,,,,,,,,,,,,,,,,,,,,,,,,,,,,,,,,,,,,,,,,,,,,,,,,,,,,,,,,,,,,,,,,,,,,,,,,,,,,,,,,,,,,,,,,,,,,,,,,,,,,,,,,,,,,,,,,,,,,,,,,,,,,,,,,,,,,,,,101821,2,3,1,2,0,68,2021_Oct_18_1050,short_answer,3.2.4,59.90690383267799,
,8,,,,,0,8,8,8,0,0,0,0,,,,,,,,,,,,,,,,,587.06887551,None,space,0.6792652650001401,587.06887551,None,587.06887551,None,587.06887551,None,587.7859559249991,None,587.7859559249991,None,A toast of their martinis,It's dimly lit,"[2, 1]",588.7860041280001,None,588.7860041280001,None,588.7860041280001,None,588.7860041280001,None,588.7860041280001,None,588.7860041280001,None,588.7860041280001,None,Covered with felt,600.952321417999,None,600.952321417999,None,600.952321417999,None,600.952321417999,None,600.952321417999,None,600.952321417999,None,600.952321417999,None,"Shelton orders veal and a manhattan, gordon orders medium-rare steak and a martini",605.1354990869986,None,605.1354990869986,None,605.1354990869986,None,605.1354990869986,None,605.1354990869986,None,605.1354990869986,None,605.1354990869986,None,They both found their meals to be poor believing each item to be over cooked,624.5190893419986,None,624.5190893419986,None,624.5190893419986,None,624.5190893419986,None,624.5190893419986,None,624.5190893419986,None,624.5190893419986,None,"Shelton is cfo, gordon is ceo",644.1359872249996,None,644.1359872249996,None,644.1359872249996,None,644.1359872249996,None,644.1359872249996,None,644.1359872249996,None,644.1359872249996,None,$600 million,662.0356503739986,None,662.0356503739986,None,662.0356503739986,None,662.0356503739986,None,662.0356503739986,None,662.0356503739986,None,662.0356503739986,None,Techjet,669.0190950609995,None,669.0190950609995,None,669.0190950609995,None,669.0190950609995,None,669.0190950609995,None,669.0190950609995,None,669.0190950609995,None,A toast of their martinis,672.5690065969993,None,672.5690065969993,None,672.5690065969993,None,672.5690065969993,None,672.5690065969993,None,672.5690065969993,None,672.5690065969993,None,,,101821,2,3,1,2,0,68,2021_Oct_18_1050,short_answer,3.2.4,59.90690383267799,
,8,,,,,0,8,8,8,,,,,,,,,,,,,,,,,,,,,,,,,,,,,,,,,,,,,,,,,,,,,,,,,,,,,,,,,,,,,,,,,,,,,,,,,,,,,,,,,,,,,,,,,,,,,,,,,,,,,,,,,,,,,,,,,,,,,,,,,,,,,,,,,,,,,,,,,,,,,,,,,,,,,,,,,,,,,,,101821,2,3,1,2,0,68,2021_Oct_18_1050,short_answer,3.2.4,59.90690383267799,
,9,,,,,0,9,9,9,,,,,,,,,,,,,,,,,,,,,,,,,,,,,,,,,,,,,,,,,,,,,,,,,,,,,,,,,,,,,,,,,,,,,,,,,,,,,,,,,,,,,,,,,,,,,,,,,,,,,,,,,,,,,,,,,,,,,,,,,,,,,,,,,,,,,,,,,,,,,,,,,,,,,,,,,,,,,,,101821,2,3,1,2,0,68,2021_Oct_18_1050,short_answer,3.2.4,59.90690383267799,
,10,,,,,0,10,10,10,0,0,0,0,,,,,,,,,,,,,,,,,681.3182520339997,None,space,0.7108262509991619,681.3182520339997,None,681.3182520339997,None,681.3182520339997,None,682.0679267709984,None,682.0679267709984,None,Thomas thinks the burger smells fishy,2 months ,"[1, 2]",682.7188369859996,None,682.7188369859996,None,682.7188369859996,None,682.7188369859996,None,682.7188369859996,None,682.7188369859996,None,682.7188369859996,None,Thomas wants to figure out his career path on his own,724.7010397829999,None,724.7010397829999,None,724.7010397829999,None,724.7010397829999,None,724.7010397829999,None,724.7010397829999,None,724.7010397829999,None,Sadie does not want to break up,735.5016684499988,None,735.5016684499988,None,735.5016684499988,None,735.5016684499988,None,735.5016684499988,None,735.5016684499988,None,735.5016684499988,None,,747.068028181,None,747.068028181,None,747.068028181,None,747.068028181,None,747.068028181,None,747.068028181,None,747.068028181,None,70's diner esque,753.301298635999,None,753.301298635999,None,753.301298635999,None,753.301298635999,None,753.301298635999,None,753.301298635999,None,753.301298635999,None,,760.7174809199987,None,760.7174809199987,None,760.7174809199987,None,760.7174809199987,None,760.7174809199987,None,760.7174809199987,None,760.7174809199987,None,"Thomas orders burger no tomato, sadie orders rueben sandwich",767.9007655639998,None,767.9007655639998,None,767.9007655639998,None,767.9007655639998,None,767.9007655639998,None,767.9007655639998,None,767.9007655639998,None,Thomas thinks the burger smells fishy,786.4162872709985,None,786.4162872709985,None,786.4162872709985,None,786.4162872709985,None,786.4162872709985,None,786.4162872709985,None,786.4162872709985,None,,,101821,2,3,1,2,0,68,2021_Oct_18_1050,short_answer,3.2.4,59.90690383267799,
,10,,,,,0,10,10,10,,,,,,,,,,,,,,,,,,,,,,,,,,,,,,,,,,,,,,,,,,,,,,,,,,,,,,,,,,,,,,,,,,,,,,,,,,,,,,,,,,,,,,,,,,,,,,,,,,,,,,,,,,,,,,,,,,,,,,,,,,,,,,,,,,,,,,,,,,,,,,,,,,,,,,,,,,,,,,,101821,2,3,1,2,0,68,2021_Oct_18_1050,short_answer,3.2.4,59.90690383267799,
,11,,,,,0,11,11,11,0,0,0,0,,,,,,,,,,,,,,,,,794.0325027319996,None,space,0.8262432929986971,794.0325027319996,None,794.0325027319996,None,794.0325027319996,None,794.9002848439995,None,794.9002848439995,None,2a and 2b in first class,11 months,"[1, 2]",795.5340968379987,None,795.5340968379987,None,795.5340968379987,None,795.5340968379987,None,795.5340968379987,None,795.5340968379987,None,795.5340968379987,None,,798.900268034,None,798.900268034,None,798.900268034,None,798.900268034,None,798.900268034,None,798.900268034,None,798.900268034,None,,804.1331366629984,None,804.1331366629984,None,804.1331366629984,None,804.1331366629984,None,804.1331366629984,None,804.1331366629984,None,804.1331366629984,None,,807.9169075969985,None,807.9169075969985,None,807.9169075969985,None,807.9169075969985,None,807.9169075969985,None,807.9169075969985,None,807.9169075969985,None,1 hour 15 minutes,809.5169781219993,None,809.5169781219993,None,809.5169781219993,None,809.5169781219993,None,809.5169781219993,None,809.5169781219993,None,809.5169781219993,None,There's someone with a lot of metal on their person,815.1837853159996,None,815.1837853159996,None,815.1837853159996,None,815.1837853159996,None,815.1837853159996,None,815.1837853159996,None,815.1837853159996,None,30,843.833767995,None,843.833767995,None,843.833767995,None,843.833767995,None,843.833767995,None,843.833767995,None,843.833767995,None,2a and 2b in first class,847.9670780369997,None,847.9670780369997,None,847.9670780369997,None,847.9670780369997,None,847.9670780369997,None,847.9670780369997,None,847.9670780369997,None,,,101821,2,3,1,2,0,68,2021_Oct_18_1050,short_answer,3.2.4,59.90690383267799,
,11,,,,,0,11,11,11,,,,,,,,,,,,,,,,,,,,,,,,,,,,,,,,,,,,,,,,,,,,,,,,,,,,,,,,,,,,,,,,,,,,,,,,,,,,,,,,,,,,,,,,,,,,,,,,,,,,,,,,,,,,,,,,,,,,,,,,,,,,,,,,,,,,,,,,,,,,,,,,,,,,,,,,,,,,,,,101821,2,3,1,2,0,68,2021_Oct_18_1050,short_answer,3.2.4,59.90690383267799,
,12,,,,,0,12,12,12,0,0,0,0,,,,,,,,,,,,,,,,,859.6493735269996,None,space,0.7539432319990738,859.6493735269996,None,859.6493735269996,None,859.6493735269996,None,860.4494533959987,None,860.4494533959987,None,,,"[2, 1]",861.066045136,None,861.066045136,None,861.066045136,None,861.066045136,None,861.066045136,None,861.066045136,None,861.066045136,None,,864.0834025799995,None,864.0834025799995,None,864.0834025799995,None,864.0834025799995,None,864.0834025799995,None,864.0834025799995,None,864.0834025799995,None,,868.4831343809983,None,868.4831343809983,None,868.4831343809983,None,868.4831343809983,None,868.4831343809983,None,868.4831343809983,None,868.4831343809983,None,,869.9661089049987,None,869.9661089049987,None,869.9661089049987,None,869.9661089049987,None,869.9661089049987,None,869.9661089049987,None,869.9661089049987,None,,871.9336364899991,None,871.9336364899991,None,871.9336364899991,None,871.9336364899991,None,871.9336364899991,None,871.9336364899991,None,871.9336364899991,None,Leon asks if ariana is from la because she looks familiar,877.8161112179987,None,877.8161112179987,None,877.8161112179987,None,877.8161112179987,None,877.8161112179987,None,877.8161112179987,None,877.8161112179987,None,Later that night for a walk,892.4495915269999,None,892.4495915269999,None,892.4495915269999,None,892.4495915269999,None,892.4495915269999,None,892.4495915269999,None,892.4495915269999,None,,902.7656415900001,None,902.7656415900001,None,902.7656415900001,None,902.7656415900001,None,902.7656415900001,None,902.7656415900001,None,902.7656415900001,None,,,101821,2,3,1,2,0,68,2021_Oct_18_1050,short_answer,3.2.4,59.90690383267799,
,12,,,,,0,12,12,12,,,,,,,,,,,,,,,,,,,,,,,,,,,,,,,,,,,,,,,,,,,,,,,,,,,,,,,,,,,,,,,,,,,,,,,,,,,,,,,,,,,,,,,,,,,,,,,,,,,,,,,,,,,,,,,,,,,,,,,,,,,,,,,,,,,,,,,,,,,,,,,,,,,,,,,,,,,,,,,101821,2,3,1,2,0,68,2021_Oct_18_1050,short_answer,3.2.4,59.90690383267799,
,13,,,,,0,13,13,13,0,0,0,0,,,,,,,,,,,,,,,,,905.198322930999,None,space,0.8079934340003092,905.198322930999,None,905.198322930999,None,905.198322930999,None,906.0483856359988,None,906.0483856359988,None,Liam pays $22 on his credit card,,"[1, 2]",907.0498036609988,None,907.0498036609988,None,907.0498036609988,None,907.0498036609988,None,907.0498036609988,None,907.0498036609988,None,907.0498036609988,None,They're always fighting,913.5155133699991,None,913.5155133699991,None,913.5155133699991,None,913.5155133699991,None,913.5155133699991,None,913.5155133699991,None,913.5155133699991,None,,920.899322461999,None,920.899322461999,None,920.899322461999,None,920.899322461999,None,920.899322461999,None,920.899322461999,None,920.899322461999,None,Liam wants his cat back,925.0158322849984,None,925.0158322849984,None,925.0158322849984,None,925.0158322849984,None,925.0158322849984,None,925.0158322849984,None,925.0158322849984,None,,935.7989905559989,None,935.7989905559989,None,935.7989905559989,None,935.7989905559989,None,935.7989905559989,None,935.7989905559989,None,935.7989905559989,None,"Bowtie pasta, vodka sauce, olives",944.1482736779999,None,944.1482736779999,None,944.1482736779999,None,944.1482736779999,None,944.1482736779999,None,944.1482736779999,None,944.1482736779999,None,"1 check out lane is open, it's lane 2",952.3984493499993,None,952.3984493499993,None,952.3984493499993,None,952.3984493499993,None,952.3984493499993,None,952.3984493499993,None,952.3984493499993,None,Liam pays $22 on his credit card,961.2316831409989,None,961.2316831409989,None,961.2316831409989,None,961.2316831409989,None,961.2316831409989,None,961.2316831409989,None,961.2316831409989,None,,,101821,2,3,1,2,0,68,2021_Oct_18_1050,short_answer,3.2.4,59.90690383267799,
,13,,,,,0,13,13,13,,,,,,,,,,,,,,,,,,,,,,,,,,,,,,,,,,,,,,,,,,,,,,,,,,,,,,,,,,,,,,,,,,,,,,,,,,,,,,,,,,,,,,,,,,,,,,,,,,,,,,,,,,,,,,,,,,,,,,,,,,,,,,,,,,,,,,,,,,,,,,,,,,,,,,,,,,,,,,,101821,2,3,1,2,0,68,2021_Oct_18_1050,short_answer,3.2.4,59.90690383267799,
,14,,,,,0,14,14,14,0,0,0,0,,,,,,,,,,,,,,,,,974.0801323849992,None,space,1.0313860010010103,974.0801323849992,None,974.0801323849992,None,974.0801323849992,None,975.1480500709986,None,975.1480500709986,None,Exam covering first 4 weeks of lectures on tuesday,3 years,"[1, 2]",976.0818733629985,None,976.0818733629985,None,976.0818733629985,None,976.0818733629985,None,976.0818733629985,None,976.0818733629985,None,976.0818733629985,None,,979.1646327809995,None,979.1646327809995,None,979.1646327809995,None,979.1646327809995,None,979.1646327809995,None,979.1646327809995,None,979.1646327809995,None,,983.8143596819991,None,983.8143596819991,None,983.8143596819991,None,983.8143596819991,None,983.8143596819991,None,983.8143596819991,None,983.8143596819991,None,,990.7985239229984,None,990.7985239229984,None,990.7985239229984,None,990.7985239229984,None,990.7985239229984,None,990.7985239229984,None,990.7985239229984,None,,992.8979336569992,None,992.8979336569992,None,992.8979336569992,None,992.8979336569992,None,992.8979336569992,None,992.8979336569992,None,992.8979336569992,None,"Intro chemistry, learning about ions and identifying atoms",999.2978768869998,None,999.2978768869998,None,999.2978768869998,None,999.2978768869998,None,999.2978768869998,None,999.2978768869998,None,999.2978768869998,None,Atoms are defined by the number of protons,1011.3474832579996,None,1011.3474832579996,None,1011.3474832579996,None,1011.3474832579996,None,1011.3474832579996,None,1011.3474832579996,None,1011.3474832579996,None,Exam covering first 4 weeks of lectures on tuesday,1025.2641507069984,None,1025.2641507069984,None,1025.2641507069984,None,1025.2641507069984,None,1025.2641507069984,None,1025.2641507069984,None,1025.2641507069984,None,,,101821,2,3,1,2,0,68,2021_Oct_18_1050,short_answer,3.2.4,59.90690383267799,
,14,,,,,0,14,14,14,,,,,,,,,,,,,,,,,,,,,,,,,,,,,,,,,,,,,,,,,,,,,,,,,,,,,,,,,,,,,,,,,,,,,,,,,,,,,,,,,,,,,,,,,,,,,,,,,,,,,,,,,,,,,,,,,,,,,,,,,,,,,,,,,,,,,,,,,,,,,,,,,,,,,,,,,,,,,,,101821,2,3,1,2,0,68,2021_Oct_18_1050,short_answer,3.2.4,59.90690383267799,
,15,,,,,0,15,15,15,,,,,,,,,,,,,,,,,,,,,,,,,,,,,,,,,,,,,,,,,,,,,,,,,,,,,,,,,,,,,,,,,,,,,,,,,,,,,,,,,,,,,,,,,,,,,,,,,,,,,,,,,,,,,,,,,,,,,,,,,,,,,,,,,,,,,,,,,,,,,,,,,,,,,,,,,,,,,,,101821,2,3,1,2,0,68,2021_Oct_18_1050,short_answer,3.2.4,59.90690383267799,
,,,,,,,,,,,,,,0,0,0,0,,,,,,,,,,,,,,,,,,,,,,,,,,,,,,,,,,,,,,,,,,,,,,,,,,,,,,,,,,,,,,,,,,,,,,,,,,,,,,,,,,,,,,,,,,,,,,,,,,,,,,,,,,,,,,,,,,,,,,,,,,,,,,,,,,,,,,,,,,,,,,,,,,,,,1039.6792804059987,None,101821,2,3,1,2,0,68,2021_Oct_18_1050,short_answer,3.2.4,59.90690383267799,
