count,audio,trials_14.thisRepN,trials_14.thisTrialN,trials_14.thisN,trials_14.thisIndex,trials_3.thisRepN,trials_3.thisTrialN,trials_3.thisN,trials_3.thisIndex,trials_4.thisRepN,trials_4.thisTrialN,trials_4.thisN,trials_4.thisIndex,trials_6.thisRepN,trials_6.thisTrialN,trials_6.thisN,trials_6.thisIndex,trials_9.thisRepN,trials_9.thisTrialN,trials_9.thisN,trials_9.thisIndex,trials_10.thisRepN,trials_10.thisTrialN,trials_10.thisN,trials_10.thisIndex,trials_11.thisRepN,trials_11.thisTrialN,trials_11.thisN,trials_11.thisIndex,trials_12.thisRepN,trials_12.thisTrialN,trials_12.thisN,trials_12.thisIndex,trials_25.thisRepN,trials_25.thisTrialN,trials_25.thisN,trials_25.thisIndex,trials_15.thisRepN,trials_15.thisTrialN,trials_15.thisN,trials_15.thisIndex,trials_26.thisRepN,trials_26.thisTrialN,trials_26.thisN,trials_26.thisIndex,story_list_block2,action_list_block2,textTrigger.started,textTrigger.stopped,getTrigger.keys,getTrigger.rt,getTrigger.started,getTrigger.stopped,triggerTime,text_76.started,text_76.stopped,text_77.started,text_77.stopped,startWait,endWait,image_23.started,image_23.stopped,text_55.started,text_55.stopped,text_56.started,text_56.stopped,key_resp_2.keys,key_resp_2.rt,key_resp_2.started,key_resp_2.stopped,text_82.started,text_82.stopped,text_57.started,text_57.stopped,key_resp_17.keys,key_resp_17.rt,key_resp_17.started,key_resp_17.stopped,text_83.started,text_83.stopped,text_60.started,text_60.stopped,image_2.started,image_2.stopped,text_58.started,text_58.stopped,key_resp_23.keys,key_resp_23.rt,key_resp_23.started,key_resp_23.stopped,text_62.started,text_62.stopped,key_resp_18.keys,key_resp_18.rt,key_resp_18.started,key_resp_18.stopped,text_84.started,text_84.stopped,question1_2.started,question1_2.stopped,question2_2.started,question2_2.stopped,question3_2.started,question3_2.stopped,question4_2.started,question4_2.stopped,question5_2.started,question5_2.stopped,question6_2.started,question6_2.stopped,image_15.started,image_15.stopped,key_resp.keys,key_resp.started,key_resp.stopped,text_59.started,text_59.stopped,key_resp_19.keys,key_resp_19.rt,key_resp_19.started,key_resp_19.stopped,text_85.started,text_85.stopped,text_61.started,text_61.stopped,image_17.started,image_17.stopped,text_63.started,text_63.stopped,key_resp_24.keys,key_resp_24.rt,key_resp_24.started,key_resp_24.stopped,text_64.started,text_64.stopped,key_resp_20.keys,key_resp_20.rt,key_resp_20.started,key_resp_20.stopped,storyImage_StartTime,storyImage_EndTime,clip_StartTime,clip_EndTime,text_67.started,text_67.stopped,text_68.started,text_68.stopped,participant,sA,sB,lA,lB,block_struct,play_stories,block,behavioral,random_seed,date,expName,psychopyVersion,frameRate,
0,,,,,,,,,,0,0,0,0,0,0,0,0,0,0,0,0,0,0,0,0,0,0,0,0,,,,,,,,,,,,,,,,,[31 33 11 22 44 13 24 42],[1 3 4 2 1 2 4 3],16.563117169999714,None,equal,43.65802398699998,16.563117169999714,None,43.68999070599966,16.563117169999714,None,16.563117169999714,None,0.0003542080003171577,5.999060355000438,60.24598723700001,None,66.26358101799997,None,66.26358101799997,None,6,2.1304895270004636,66.26358101799997,None,66.26358101799997,None,68.41346262000025,None,6,0.9645267099995181,68.41346262000025,None,68.41346262000025,None,69.41316451900002,None,69.41316451900002,None,69.41316451900002,None,6,0.8809887580000577,69.41316451900002,None,70.31365354099944,None,6,1.1094643819997145,70.31365354099944,None,70.31365354099944,None,71.5299917960001,None,71.5299917960001,None,71.5299917960001,None,71.5299917960001,None,71.5299917960001,None,71.5299917960001,None,71.5299917960001,None,None,71.5299917960001,None,,,,,,,,,,,,,,,,,,,,,,,,,,,,,,,,,101821,2,3,1,2,0,1,2,0,68,2021_Oct_18_0944,listening_fmri,3.2.4,59.98920218339756,
0,,,,,,,,,,0,0,0,0,0,0,0,0,0,0,0,0,0,0,0,0,,,,,,,,,,,,,,,,,,,,,,,,,,,,,,,,,,,,,,,,,,,,,,,,,,,,,,,,,,,,,,,,,,,,,,,,,,,,,,,,,,,,,,,,,,,83.16357119199984,None,6,1.221437498999876,83.16357119199984,None,83.16357119199984,None,84.42929354099942,None,84.42929354099942,None,84.42929354099942,None,6,0.7337978499999736,84.42929354099942,None,,,,,,,,,,,,,,,101821,2,3,1,2,0,1,2,0,68,2021_Oct_18_0944,listening_fmri,3.2.4,59.98920218339756,
0,parcelated_audio/31/31_1.ogg,,,,,,,,,0,0,0,0,0,0,0,0,0,0,0,0,,,,,,,,,,,,,0,0,0,0,0,0,0,0,,,,,,,,,,,,,,,,,,,,,,,,,,,,,,,,,,,,,,,,,,,,,,,,,,,,,,,,,,,,,,,,,,,,,,,,,,,,,,,,,,,,,,,,,,,,,85.17938695599969,None,6,1.3557314640002005,85.17938695599969,None,26.329316672999994,29.331479178000336,29.33688035399973,38.02801330700004,,,,,101821,2,3,1,2,0,1,2,0,68,2021_Oct_18_0944,listening_fmri,3.2.4,59.98920218339756,
0,parcelated_audio/31/31_2.ogg,,,,,,,,,0,0,0,0,0,0,0,0,0,0,0,0,,,,,,,,,,,,,0,0,0,0,0,1,1,1,,,,,,,,,,,,,,,,,,,,,,,,,,,,,,,,,,,,,,,,,,,,,,,,,,,,,,,,,,,,,,,,,,,,,,,,,,,,,,,,,,,,,,,,,,,,,,,,,,,,,38.0283207399998,42.486573565999606,,,,,101821,2,3,1,2,0,1,2,0,68,2021_Oct_18_0944,listening_fmri,3.2.4,59.98920218339756,
0,parcelated_audio/31/31_3.ogg,,,,,,,,,0,0,0,0,0,0,0,0,0,0,0,0,,,,,,,,,,,,,0,0,0,0,0,2,2,2,,,,,,,,,,,,,,,,,,,,,,,,,,,,,,,,,,,,,,,,,,,,,,,,,,,,,,,,,,,,,,,,,,,,,,,,,,,,,,,,,,,,,,,,,,,,,,,,,,,,,42.487431180000385,50.77552402800029,,,,,101821,2,3,1,2,0,1,2,0,68,2021_Oct_18_0944,listening_fmri,3.2.4,59.98920218339756,
0,parcelated_audio/31/31_4.ogg,,,,,,,,,0,0,0,0,0,0,0,0,0,0,0,0,,,,,,,,,,,,,0,0,0,0,0,3,3,3,,,,,,,,,,,,,,,,,,,,,,,,,,,,,,,,,,,,,,,,,,,,,,,,,,,,,,,,,,,,,,,,,,,,,,,,,,,,,,,,,,,,,,,,,,,,,,,,,,,,,50.775798917999964,60.83552082500046,,,,,101821,2,3,1,2,0,1,2,0,68,2021_Oct_18_0944,listening_fmri,3.2.4,59.98920218339756,
0,parcelated_audio/31/31_5.ogg,,,,,,,,,0,0,0,0,0,0,0,0,0,0,0,0,,,,,,,,,,,,,0,0,0,0,0,4,4,4,,,,,,,,,,,,,,,,,,,,,,,,,,,,,,,,,,,,,,,,,,,,,,,,,,,,,,,,,,,,,,,,,,,,,,,,,,,,,,,,,,,,,,,,,,,,,,,,,,,,,60.83585299999959,71.95048541600045,,,,,101821,2,3,1,2,0,1,2,0,68,2021_Oct_18_0944,listening_fmri,3.2.4,59.98920218339756,
0,parcelated_audio/31/31_6.ogg,,,,,,,,,0,0,0,0,0,0,0,0,0,0,0,0,,,,,,,,,,,,,0,0,0,0,0,5,5,5,,,,,,,,,,,,,,,,,,,,,,,,,,,,,,,,,,,,,,,,,,,,,,,,,,,,,,,,,,,,,,,,,,,,,,,,,,,,,,,,,,,,,,,,,,,,,,,,,,,,,71.95077008899989,77.26450604100046,,,,,101821,2,3,1,2,0,1,2,0,68,2021_Oct_18_0944,listening_fmri,3.2.4,59.98920218339756,
0,parcelated_audio/31/31_7.ogg,,,,,,,,,0,0,0,0,0,0,0,0,0,0,0,0,,,,,,,,,,,,,0,0,0,0,0,6,6,6,,,,,,,,,,,,,,,,,,,,,,,,,,,,,,,,,,,,,,,,,,,,,,,,,,,,,,,,,,,,,,,,,,,,,,,,,,,,,,,,,,,,,,,,,,,,,,,,,,,,,77.26478411300013,82.1164338360004,,,,,101821,2,3,1,2,0,1,2,0,68,2021_Oct_18_0944,listening_fmri,3.2.4,59.98920218339756,
0,parcelated_audio/31/31_8.ogg,,,,,,,,,0,0,0,0,0,0,0,0,0,0,0,0,,,,,,,,,,,,,0,0,0,0,0,7,7,7,,,,,,,,,,,,,,,,,,,,,,,,,,,,,,,,,,,,,,,,,,,,,,,,,,,,,,,,,,,,,,,,,,,,,,,,,,,,,,,,,,,,,,,,,,,,,,,,,,,,,82.11675183300031,90.5516468679998,,,,,101821,2,3,1,2,0,1,2,0,68,2021_Oct_18_0944,listening_fmri,3.2.4,59.98920218339756,
0,parcelated_audio/31/31_9.ogg,,,,,,,,,0,0,0,0,0,0,0,0,0,0,0,0,,,,,,,,,,,,,0,0,0,0,0,8,8,8,,,,,,,,,,,,,,,,,,,,,,,,,,,,,,,,,,,,,,,,,,,,,,,,,,,,,,,,,,,,,,,,,,,,,,,,,,,,,,,,,,,,,,,,,,,,,,,,,,,,,90.55193978999978,95.6166692630004,,,,,101821,2,3,1,2,0,1,2,0,68,2021_Oct_18_0944,listening_fmri,3.2.4,59.98920218339756,
0,parcelated_audio/31/31_10.ogg,,,,,,,,,0,0,0,0,0,0,0,0,0,0,0,0,,,,,,,,,,,,,0,0,0,0,0,9,9,9,,,,,,,,,,,,,,,,,,,,,,,,,,,,,,,,,,,,,,,,,,,,,,,,,,,,,,,,,,,,,,,,,,,,,,,,,,,,,,,,,,,,,,,,,,,,,,,,,,,,,95.61703243800002,101.12870194100014,,,,,101821,2,3,1,2,0,1,2,0,68,2021_Oct_18_0944,listening_fmri,3.2.4,59.98920218339756,
0,parcelated_audio/31/31_11.ogg,,,,,,,,,0,0,0,0,0,0,0,0,0,0,0,0,,,,,,,,,,,,,0,0,0,0,0,10,10,10,,,,,,,,,,,,,,,,,,,,,,,,,,,,,,,,,,,,,,,,,,,,,,,,,,,,,,,,,,,,,,,,,,,,,,,,,,,,,,,,,,,,,,,,,,,,,,,,,,,,,101.12914139199984,111.34784732200023,,,,,101821,2,3,1,2,0,1,2,0,68,2021_Oct_18_0944,listening_fmri,3.2.4,59.98920218339756,
0,parcelated_audio/31/31_12.ogg,,,,,,,,,0,0,0,0,0,0,0,0,0,0,0,0,,,,,,,,,,,,,0,0,0,0,0,11,11,11,,,,,,,,,,,,,,,,,,,,,,,,,,,,,,,,,,,,,,,,,,,,,,,,,,,,,,,,,,,,,,,,,,,,,,,,,,,,,,,,,,,,,,,,,,,,,,,,,,,,,111.34820035800021,116.12635477300046,,,,,101821,2,3,1,2,0,1,2,0,68,2021_Oct_18_0944,listening_fmri,3.2.4,59.98920218339756,
0,parcelated_audio/31/31_13.ogg,,,,,,,,,0,0,0,0,0,0,0,0,0,0,0,0,,,,,,,,,,,,,0,0,0,0,0,12,12,12,,,,,,,,,,,,,,,,,,,,,,,,,,,,,,,,,,,,,,,,,,,,,,,,,,,,,,,,,,,,,,,,,,,,,,,,,,,,,,,,,,,,,,,,,,,,,,,,,,,,,116.12670319500012,123.44344483300029,,,,,101821,2,3,1,2,0,1,2,0,68,2021_Oct_18_0944,listening_fmri,3.2.4,59.98920218339756,
0,parcelated_audio/31/31_14.ogg,,,,,,,,,0,0,0,0,0,0,0,0,0,0,0,0,,,,,,,,,,,,,0,0,0,0,0,13,13,13,,,,,,,,,,,,,,,,,,,,,,,,,,,,,,,,,,,,,,,,,,,,,,,,,,,,,,,,,,,,,,,,,,,,,,,,,,,,,,,,,,,,,,,,,,,,,,,,,,,,,123.44398091099993,129.58005682099974,,,,,101821,2,3,1,2,0,1,2,0,68,2021_Oct_18_0944,listening_fmri,3.2.4,59.98920218339756,
0,parcelated_audio/31/31_15.ogg,,,,,,,,,0,0,0,0,0,0,0,0,0,0,0,0,,,,,,,,,,,,,0,0,0,0,0,14,14,14,,,,,,,,,,,,,,,,,,,,,,,,,,,,,,,,,,,,,,,,,,,,,,,,,,,,,,,,,,,,,,,,,,,,,,,,,,,,,,,,,,,,,,,,,,,,,,,,,,,,,129.580359435,136.37282280399995,,,,,101821,2,3,1,2,0,1,2,0,68,2021_Oct_18_0944,listening_fmri,3.2.4,59.98920218339756,
0,parcelated_audio/31/31_16.ogg,,,,,,,,,0,0,0,0,0,0,0,0,0,0,0,0,,,,,,,,,,,,,0,0,0,0,0,15,15,15,,,,,,,,,,,,,,,,,,,,,,,,,,,,,,,,,,,,,,,,,,,,,,,,,,,,,,,,,,,,,,,,,,,,,,,,,,,,,,,,,,,,,,,,,,,,,,,,,,,,,136.37317572099982,142.78701330700005,,,,,101821,2,3,1,2,0,1,2,0,68,2021_Oct_18_0944,listening_fmri,3.2.4,59.98920218339756,
0,parcelated_audio/31/31_17.ogg,,,,,,,,,0,0,0,0,0,0,0,0,0,0,0,0,,,,,,,,,,,,,0,0,0,0,0,16,16,16,,,,,,,,,,,,,,,,,,,,,,,,,,,,,,,,,,,,,,,,,,,,,,,,,,,,,,,,,,,,,,,,,,,,,,,,,,,,,,,,,,,,,,,,,,,,,,,,,,,,,142.78735650599992,146.23344478000035,,,,,101821,2,3,1,2,0,1,2,0,68,2021_Oct_18_0944,listening_fmri,3.2.4,59.98920218339756,
0,parcelated_audio/31/31_18.ogg,,,,,,,,,0,0,0,0,0,0,0,0,0,0,0,0,,,,,,,,,,,,,0,0,0,0,0,17,17,17,,,,,,,,,,,,,,,,,,,,,,,,,,,,,,,,,,,,,,,,,,,,,,,,,,,,,,,,,,,,,,,,,,,,,,,,,,,,,,,,,,,,,,,,,,,,,,,,,,,,,146.23391883899967,150.94893724600024,,,,,101821,2,3,1,2,0,1,2,0,68,2021_Oct_18_0944,listening_fmri,3.2.4,59.98920218339756,
0,parcelated_audio/31/31_19.ogg,,,,,,,,,0,0,0,0,0,0,0,0,0,0,0,0,,,,,,,,,,,,,0,0,0,0,0,18,18,18,,,,,,,,,,,,,,,,,,,,,,,,,,,,,,,,,,,,,,,,,,,,,,,,,,,,,,,,,,,,,,,,,,,,,,,,,,,,,,,,,,,,,,,,,,,,,,,,,,,,,150.94928899499973,159.13958430500043,,,,,101821,2,3,1,2,0,1,2,0,68,2021_Oct_18_0944,listening_fmri,3.2.4,59.98920218339756,
0,parcelated_audio/31/31_20.ogg,,,,,,,,,0,0,0,0,0,0,0,0,0,0,0,0,,,,,,,,,,,,,0,0,0,0,0,19,19,19,,,,,,,,,,,,,,,,,,,,,,,,,,,,,,,,,,,,,,,,,,,,,,,,,,,,,,,,,,,,,,,,,,,,,,,,,,,,,,,,,,,,,,,,,,,,,,,,,,,,,159.139942281,176.97673582700008,,,,,101821,2,3,1,2,0,1,2,0,68,2021_Oct_18_0944,listening_fmri,3.2.4,59.98920218339756,
0,parcelated_audio/31/31_21.ogg,,,,,,,,,0,0,0,0,0,0,0,0,0,0,0,0,,,,,,,,,,,,,0,0,0,0,0,20,20,20,,,,,,,,,,,,,,,,,,,,,,,,,,,,,,,,,,,,,,,,,,,,,,,,,,,,,,,,,,,,,,,,,,,,,,,,,,,,,,,,,,,,,,,,,,,,,,,,,,,,,176.97709133900025,187.22468660600043,,,,,101821,2,3,1,2,0,1,2,0,68,2021_Oct_18_0944,listening_fmri,3.2.4,59.98920218339756,
0,parcelated_audio/31/31_22.ogg,,,,,,,,,0,0,0,0,0,0,0,0,0,0,0,0,,,,,,,,,,,,,0,0,0,0,0,21,21,21,,,,,,,,,,,,,,,,,,,,,,,,,,,,,,,,,,,,,,,,,,,,,,,,,,,,,,,,,,,,,,,,,,,,,,,,,,,,,,,,,,,,,,,,,,,,,,,,,,,,,187.2249580480002,192.93958951199966,,,,,101821,2,3,1,2,0,1,2,0,68,2021_Oct_18_0944,listening_fmri,3.2.4,59.98920218339756,
0,parcelated_audio/31/31_23.ogg,,,,,,,,,0,0,0,0,0,0,0,0,0,0,0,0,,,,,,,,,,,,,0,0,0,0,0,22,22,22,,,,,,,,,,,,,,,,,,,,,,,,,,,,,,,,,,,,,,,,,,,,,,,,,,,,,,,,,,,,,,,,,,,,,,,,,,,,,,,,,,,,,,,,,,,,,,,,,,,,,192.93985853600043,197.54587751500003,,,,,101821,2,3,1,2,0,1,2,0,68,2021_Oct_18_0944,listening_fmri,3.2.4,59.98920218339756,
0,parcelated_audio/31/31_24.ogg,,,,,,,,,0,0,0,0,0,0,0,0,0,0,0,0,,,,,,,,,,,,,0,0,0,0,0,23,23,23,,,,,,,,,,,,,,,,,,,,,,,,,,,,,,,,,,,,,,,,,,,,,,,,,,,,,,,,,,,,,,,,,,,,,,,,,,,,,,,,,,,,,,,,,,,,,,,,,,,,,197.54616713799987,204.4320862200002,,,,,101821,2,3,1,2,0,1,2,0,68,2021_Oct_18_0944,listening_fmri,3.2.4,59.98920218339756,
0,parcelated_audio/31/31_25.ogg,,,,,,,,,0,0,0,0,0,0,0,0,0,0,0,0,,,,,,,,,,,,,0,0,0,0,0,24,24,24,,,,,,,,,,,,,,,,,,,,,,,,,,,,,,,,,,,,,,,,,,,,,,,,,,,,,,,,,,,,,,,,,,,,,,,,,,,,,,,,,,,,,,,,,,,,,,,,,,,,,204.43236381899987,216.41999896800007,,,,,101821,2,3,1,2,0,1,2,0,68,2021_Oct_18_0944,listening_fmri,3.2.4,59.98920218339756,
0,parcelated_audio/31/31_26.ogg,,,,,,,,,0,0,0,0,0,0,0,0,0,0,0,0,,,,,,,,,,,,,0,0,0,0,0,25,25,25,,,,,,,,,,,,,,,,,,,,,,,,,,,,,,,,,,,,,,,,,,,,,,,,,,,,,,,,,,,,,,,,,,,,,,,,,,,,,,,,,,,,,,,,,,,,,,,,,,,,,216.42041284199968,223.94401778300016,,,,,101821,2,3,1,2,0,1,2,0,68,2021_Oct_18_0944,listening_fmri,3.2.4,59.98920218339756,
0,parcelated_audio/31/31_27.ogg,,,,,,,,,0,0,0,0,0,0,0,0,0,0,0,0,,,,,,,,,,,,,0,0,0,0,0,26,26,26,,,,,,,,,,,,,,,,,,,,,,,,,,,,,,,,,,,,,,,,,,,,,,,,,,,,,,,,,,,,,,,,,,,,,,,,,,,,,,,,,,,,,,,,,,,,,,,,,,,,,223.94436058799965,228.3504156729996,,,,,101821,2,3,1,2,0,1,2,0,68,2021_Oct_18_0944,listening_fmri,3.2.4,59.98920218339756,
0,parcelated_audio/31/31_28.ogg,,,,,,,,,0,0,0,0,0,0,0,0,0,0,0,0,,,,,,,,,,,,,0,0,0,0,0,27,27,27,,,,,,,,,,,,,,,,,,,,,,,,,,,,,,,,,,,,,,,,,,,,,,,,,,,,,,,,,,,,,,,,,,,,,,,,,,,,,,,,,,,,,,,,,,,,,,,,,,,,,228.35077743700003,233.36385600700032,,,,,101821,2,3,1,2,0,1,2,0,68,2021_Oct_18_0944,listening_fmri,3.2.4,59.98920218339756,
0,parcelated_audio/31/31_29.ogg,,,,,,,,,0,0,0,0,0,0,0,0,0,0,0,0,,,,,,,,,,,,,0,0,0,0,0,28,28,28,,,,,,,,,,,,,,,,,,,,,,,,,,,,,,,,,,,,,,,,,,,,,,,,,,,,,,,,,,,,,,,,,,,,,,,,,,,,,,,,,,,,,,,,,,,,,,,,,,,,,233.36420988200007,237.710016086,,,,,101821,2,3,1,2,0,1,2,0,68,2021_Oct_18_0944,listening_fmri,3.2.4,59.98920218339756,
0,parcelated_audio/31/31_30.ogg,,,,,,,,,0,0,0,0,0,0,0,0,0,0,0,0,,,,,,,,,,,,,0,0,0,0,0,29,29,29,,,,,,,,,,,,,,,,,,,,,,,,,,,,,,,,,,,,,,,,,,,,,,,,,,,,,,,,,,,,,,,,,,,,,,,,,,,,,,,,,,,,,,,,,,,,,,,,,,,,,237.71036823800023,241.4780292739997,,,,,101821,2,3,1,2,0,1,2,0,68,2021_Oct_18_0944,listening_fmri,3.2.4,59.98920218339756,
0,parcelated_audio/31/31_31.ogg,,,,,,,,,0,0,0,0,0,0,0,0,0,0,0,0,,,,,,,,,,,,,0,0,0,0,0,30,30,30,,,,,,,,,,,,,,,,,,,,,,,,,,,,,,,,,,,,,,,,,,,,,,,,,,,,,,,,,,,,,,,,,,,,,,,,,,,,,,,,,,,,,,,,,,,,,,,,,,,,,241.47847887100033,247.54887216600036,,,,,101821,2,3,1,2,0,1,2,0,68,2021_Oct_18_0944,listening_fmri,3.2.4,59.98920218339756,
0,parcelated_audio/31/31_32.ogg,,,,,,,,,0,0,0,0,0,0,0,0,0,0,0,0,,,,,,,,,,,,,0,0,0,0,0,31,31,31,,,,,,,,,,,,,,,,,,,,,,,,,,,,,,,,,,,,,,,,,,,,,,,,,,,,,,,,,,,,,,,,,,,,,,,,,,,,,,,,,,,,,,,,,,,,,,,,,,,,,247.54913207000027,257.5129415649999,,,,,101821,2,3,1,2,0,1,2,0,68,2021_Oct_18_0944,listening_fmri,3.2.4,59.98920218339756,
0,parcelated_audio/31/31_33.ogg,,,,,,,,,0,0,0,0,0,0,0,0,0,0,0,0,,,,,,,,,,,,,0,0,0,0,0,32,32,32,,,,,,,,,,,,,,,,,,,,,,,,,,,,,,,,,,,,,,,,,,,,,,,,,,,,,,,,,,,,,,,,,,,,,,,,,,,,,,,,,,,,,,,,,,,,,,,,,,,,,257.51329542700023,265.8796697099997,,,,,101821,2,3,1,2,0,1,2,0,68,2021_Oct_18_0944,listening_fmri,3.2.4,59.98920218339756,
0,parcelated_audio/31/31_34.ogg,,,,,,,,,0,0,0,0,0,0,0,0,0,0,0,0,,,,,,,,,,,,,0,0,0,0,0,33,33,33,,,,,,,,,,,,,,,,,,,,,,,,,,,,,,,,,,,,,,,,,,,,,,,,,,,,,,,,,,,,,,,,,,,,,,,,,,,,,,,,,,,,,,,,,,,,,,,,,,,,,265.8801446360003,270.26163332299984,,,,,101821,2,3,1,2,0,1,2,0,68,2021_Oct_18_0944,listening_fmri,3.2.4,59.98920218339756,
0,parcelated_audio/31/31_35.ogg,,,,,,,,,0,0,0,0,0,0,0,0,0,0,0,0,,,,,,,,,,,,,0,0,0,0,0,34,34,34,,,,,,,,,,,,,,,,,,,,,,,,,,,,,,,,,,,,,,,,,,,,,,,,,,,,,,,,,,,,,,,,,,,,,,,,,,,,,,,,,,,,,,,,,,,,,,,,,,,,,270.2619571519999,276.02019407100033,,,,,101821,2,3,1,2,0,1,2,0,68,2021_Oct_18_0944,listening_fmri,3.2.4,59.98920218339756,
0,parcelated_audio/31/31_36.ogg,,,,,,,,,0,0,0,0,0,0,0,0,0,0,0,0,,,,,,,,,,,,,0,0,0,0,0,35,35,35,,,,,,,,,,,,,,,,,,,,,,,,,,,,,,,,,,,,,,,,,,,,,,,,,,,,,,,,,,,,,,,,,,,,,,,,,,,,,,,,,,,,,,,,,,,,,,,,,,,,,276.02046141899973,282.3407017460004,,,,,101821,2,3,1,2,0,1,2,0,68,2021_Oct_18_0944,listening_fmri,3.2.4,59.98920218339756,
0,,,,,,,,,,0,0,0,0,0,0,0,0,0,0,0,0,,,,,,,,,,,,,0,0,0,0,,,,,,,,,,,,,,,,,,,,,,,,,,,,,,,,,,,,,,,,,,,,,,,,,,,,,,,,,,,,,,,,,,,,,,,,,,,,,,,,,,,,,,,,,,,,,,,,,,,,,,,,,,,,,,,101821,2,3,1,2,0,1,2,0,68,2021_Oct_18_0944,listening_fmri,3.2.4,59.98920218339756,
,,,,,,,,,,,,,,,,,,,,,,,,,,,,,,,,,,,,,,,,,,,,,,,,,,,,,,,,,,,282.34108162899975,288.3317023460004,342.57614801599993,None,,,,,,,,,,,,,,,,,,,,,,,,,,,,,,,,,,,,,,,,,,,,,,,,,,,,,,,,,,,,,,,,,,,,,,,,,,,,,,,,,,348.5796354628002,None,348.5796354628002,None,,,,,,,,,,,,,,,
﻿count,audio,trials_14.thisRepN,trials_14.thisTrialN,trials_14.thisN,trials_14.thisIndex,trials_3.thisRepN,trials_3.thisTrialN,trials_3.thisN,trials_3.thisIndex,trials_4.thisRepN,trials_4.thisTrialN,trials_4.thisN,trials_4.thisIndex,trials_6.thisRepN,trials_6.thisTrialN,trials_6.thisN,trials_6.thisIndex,trials_9.thisRepN,trials_9.thisTrialN,trials_9.thisN,trials_9.thisIndex,trials_10.thisRepN,trials_10.thisTrialN,trials_10.thisN,trials_10.thisIndex,trials_11.thisRepN,trials_11.thisTrialN,trials_11.thisN,trials_11.thisIndex,trials_12.thisRepN,trials_12.thisTrialN,trials_12.thisN,trials_12.thisIndex,trials_25.thisRepN,trials_25.thisTrialN,trials_25.thisN,trials_25.thisIndex,trials_15.thisRepN,trials_15.thisTrialN,trials_15.thisN,trials_15.thisIndex,trials_26.thisRepN,trials_26.thisTrialN,trials_26.thisN,trials_26.thisIndex,story_list_block2,action_list_block2,textTrigger.started,textTrigger.stopped,getTrigger.keys,getTrigger.rt,getTrigger.started,getTrigger.stopped,triggerTime,text_76.started,text_76.stopped,text_77.started,text_77.stopped,startWait,endWait,image_23.started,image_23.stopped,text_55.started,text_55.stopped,text_56.started,text_56.stopped,key_resp_2.keys,key_resp_2.rt,key_resp_2.started,key_resp_2.stopped,text_82.started,text_82.stopped,text_57.started,text_57.stopped,key_resp_17.keys,key_resp_17.rt,key_resp_17.started,key_resp_17.stopped,text_83.started,text_83.stopped,text_60.started,text_60.stopped,image_2.started,image_2.stopped,text_58.started,text_58.stopped,key_resp_23.keys,key_resp_23.rt,key_resp_23.started,key_resp_23.stopped,text_62.started,text_62.stopped,key_resp_18.keys,key_resp_18.rt,key_resp_18.started,key_resp_18.stopped,text_84.started,text_84.stopped,question1_2.started,question1_2.stopped,question2_2.started,question2_2.stopped,question3_2.started,question3_2.stopped,question4_2.started,question4_2.stopped,question5_2.started,question5_2.stopped,question6_2.started,question6_2.stopped,image_15.started,image_15.stopped,key_resp.keys,key_resp.started,key_resp.stopped,text_59.started,text_59.stopped,key_resp_19.keys,key_resp_19.rt,key_resp_19.started,key_resp_19.stopped,text_85.started,text_85.stopped,text_61.started,text_61.stopped,image_17.started,image_17.stopped,text_63.started,text_63.stopped,key_resp_24.keys,key_resp_24.rt,key_resp_24.started,key_resp_24.stopped,text_64.started,text_64.stopped,key_resp_20.keys,key_resp_20.rt,key_resp_20.started,key_resp_20.stopped,storyImage_StartTime,storyImage_EndTime,clip_StartTime,clip_EndTime,text_67.started,text_67.stopped,text_68.started,text_68.stopped,participant,sA,sB,lA,lB,block_struct,play_stories,block,behavioral,random_seed,date,expName,psychopyVersion,frameRate,
0,,,,,,,,,,0,0,0,0,0,0,0,0,0,0,0,0,0,0,0,0,0,0,0,0,,,,,,,,,,,,,,,,,[31 33 11 22 44 13 24 42],[1 3 4 2 1 2 4 3],16.563117169999714,None,equal,43.65802398699998,16.563117169999714,None,43.68999070599966,16.563117169999714,None,16.563117169999714,None,0.0003542080003171577,5.999060355000438,60.24598723700001,None,66.26358101799997,None,66.26358101799997,None,6,2.1304895270004636,66.26358101799997,None,66.26358101799997,None,68.41346262000025,None,6,0.9645267099995181,68.41346262000025,None,68.41346262000025,None,69.41316451900002,None,69.41316451900002,None,69.41316451900002,None,6,0.8809887580000577,69.41316451900002,None,70.31365354099944,None,6,1.1094643819997145,70.31365354099944,None,70.31365354099944,None,71.5299917960001,None,71.5299917960001,None,71.5299917960001,None,71.5299917960001,None,71.5299917960001,None,71.5299917960001,None,71.5299917960001,None,None,71.5299917960001,None,,,,,,,,,,,,,,,,,,,,,,,,,,,,,,,,,101821,2,3,1,2,0,1,2,0,68,2021_Oct_18_0944,listening_fmri,3.2.4,59.98920218339756,
0,,,,,,,,,,0,0,0,0,0,0,0,0,0,0,0,0,0,0,0,0,,,,,,,,,,,,,,,,,,,,,,,,,,,,,,,,,,,,,,,,,,,,,,,,,,,,,,,,,,,,,,,,,,,,,,,,,,,,,,,,,,,,,,,,,,,83.16357119199984,None,6,1.221437498999876,83.16357119199984,None,83.16357119199984,None,84.42929354099942,None,84.42929354099942,None,84.42929354099942,None,6,0.7337978499999736,84.42929354099942,None,,,,,,,,,,,,,,,101821,2,3,1,2,0,1,2,0,68,2021_Oct_18_0944,listening_fmri,3.2.4,59.98920218339756,
0,parcelated_audio/31/31_1.ogg,,,,,,,,,0,0,0,0,0,0,0,0,0,0,0,0,,,,,,,,,,,,,0,0,0,0,0,0,0,0,,,,,,,,,,,,,,,,,,,,,,,,,,,,,,,,,,,,,,,,,,,,,,,,,,,,,,,,,,,,,,,,,,,,,,,,,,,,,,,,,,,,,,,,,,,,,85.17938695599969,None,6,1.3557314640002005,85.17938695599969,None,26.329316672999994,29.331479178000336,29.33688035399973,38.02801330700004,,,,,101821,2,3,1,2,0,1,2,0,68,2021_Oct_18_0944,listening_fmri,3.2.4,59.98920218339756,
0,parcelated_audio/31/31_2.ogg,,,,,,,,,0,0,0,0,0,0,0,0,0,0,0,0,,,,,,,,,,,,,0,0,0,0,0,1,1,1,,,,,,,,,,,,,,,,,,,,,,,,,,,,,,,,,,,,,,,,,,,,,,,,,,,,,,,,,,,,,,,,,,,,,,,,,,,,,,,,,,,,,,,,,,,,,,,,,,,,,38.0283207399998,42.486573565999606,,,,,101821,2,3,1,2,0,1,2,0,68,2021_Oct_18_0944,listening_fmri,3.2.4,59.98920218339756,
0,parcelated_audio/31/31_3.ogg,,,,,,,,,0,0,0,0,0,0,0,0,0,0,0,0,,,,,,,,,,,,,0,0,0,0,0,2,2,2,,,,,,,,,,,,,,,,,,,,,,,,,,,,,,,,,,,,,,,,,,,,,,,,,,,,,,,,,,,,,,,,,,,,,,,,,,,,,,,,,,,,,,,,,,,,,,,,,,,,,42.487431180000385,50.77552402800029,,,,,101821,2,3,1,2,0,1,2,0,68,2021_Oct_18_0944,listening_fmri,3.2.4,59.98920218339756,
0,parcelated_audio/31/31_4.ogg,,,,,,,,,0,0,0,0,0,0,0,0,0,0,0,0,,,,,,,,,,,,,0,0,0,0,0,3,3,3,,,,,,,,,,,,,,,,,,,,,,,,,,,,,,,,,,,,,,,,,,,,,,,,,,,,,,,,,,,,,,,,,,,,,,,,,,,,,,,,,,,,,,,,,,,,,,,,,,,,,50.775798917999964,60.83552082500046,,,,,101821,2,3,1,2,0,1,2,0,68,2021_Oct_18_0944,listening_fmri,3.2.4,59.98920218339756,
0,parcelated_audio/31/31_5.ogg,,,,,,,,,0,0,0,0,0,0,0,0,0,0,0,0,,,,,,,,,,,,,0,0,0,0,0,4,4,4,,,,,,,,,,,,,,,,,,,,,,,,,,,,,,,,,,,,,,,,,,,,,,,,,,,,,,,,,,,,,,,,,,,,,,,,,,,,,,,,,,,,,,,,,,,,,,,,,,,,,60.83585299999959,71.95048541600045,,,,,101821,2,3,1,2,0,1,2,0,68,2021_Oct_18_0944,listening_fmri,3.2.4,59.98920218339756,
0,parcelated_audio/31/31_6.ogg,,,,,,,,,0,0,0,0,0,0,0,0,0,0,0,0,,,,,,,,,,,,,0,0,0,0,0,5,5,5,,,,,,,,,,,,,,,,,,,,,,,,,,,,,,,,,,,,,,,,,,,,,,,,,,,,,,,,,,,,,,,,,,,,,,,,,,,,,,,,,,,,,,,,,,,,,,,,,,,,,71.95077008899989,77.26450604100046,,,,,101821,2,3,1,2,0,1,2,0,68,2021_Oct_18_0944,listening_fmri,3.2.4,59.98920218339756,
0,parcelated_audio/31/31_7.ogg,,,,,,,,,0,0,0,0,0,0,0,0,0,0,0,0,,,,,,,,,,,,,0,0,0,0,0,6,6,6,,,,,,,,,,,,,,,,,,,,,,,,,,,,,,,,,,,,,,,,,,,,,,,,,,,,,,,,,,,,,,,,,,,,,,,,,,,,,,,,,,,,,,,,,,,,,,,,,,,,,77.26478411300013,82.1164338360004,,,,,101821,2,3,1,2,0,1,2,0,68,2021_Oct_18_0944,listening_fmri,3.2.4,59.98920218339756,
0,parcelated_audio/31/31_8.ogg,,,,,,,,,0,0,0,0,0,0,0,0,0,0,0,0,,,,,,,,,,,,,0,0,0,0,0,7,7,7,,,,,,,,,,,,,,,,,,,,,,,,,,,,,,,,,,,,,,,,,,,,,,,,,,,,,,,,,,,,,,,,,,,,,,,,,,,,,,,,,,,,,,,,,,,,,,,,,,,,,82.11675183300031,90.5516468679998,,,,,101821,2,3,1,2,0,1,2,0,68,2021_Oct_18_0944,listening_fmri,3.2.4,59.98920218339756,
0,parcelated_audio/31/31_9.ogg,,,,,,,,,0,0,0,0,0,0,0,0,0,0,0,0,,,,,,,,,,,,,0,0,0,0,0,8,8,8,,,,,,,,,,,,,,,,,,,,,,,,,,,,,,,,,,,,,,,,,,,,,,,,,,,,,,,,,,,,,,,,,,,,,,,,,,,,,,,,,,,,,,,,,,,,,,,,,,,,,90.55193978999978,95.6166692630004,,,,,101821,2,3,1,2,0,1,2,0,68,2021_Oct_18_0944,listening_fmri,3.2.4,59.98920218339756,
0,parcelated_audio/31/31_10.ogg,,,,,,,,,0,0,0,0,0,0,0,0,0,0,0,0,,,,,,,,,,,,,0,0,0,0,0,9,9,9,,,,,,,,,,,,,,,,,,,,,,,,,,,,,,,,,,,,,,,,,,,,,,,,,,,,,,,,,,,,,,,,,,,,,,,,,,,,,,,,,,,,,,,,,,,,,,,,,,,,,95.61703243800002,101.12870194100014,,,,,101821,2,3,1,2,0,1,2,0,68,2021_Oct_18_0944,listening_fmri,3.2.4,59.98920218339756,
0,parcelated_audio/31/31_11.ogg,,,,,,,,,0,0,0,0,0,0,0,0,0,0,0,0,,,,,,,,,,,,,0,0,0,0,0,10,10,10,,,,,,,,,,,,,,,,,,,,,,,,,,,,,,,,,,,,,,,,,,,,,,,,,,,,,,,,,,,,,,,,,,,,,,,,,,,,,,,,,,,,,,,,,,,,,,,,,,,,,101.12914139199984,111.34784732200023,,,,,101821,2,3,1,2,0,1,2,0,68,2021_Oct_18_0944,listening_fmri,3.2.4,59.98920218339756,
0,parcelated_audio/31/31_12.ogg,,,,,,,,,0,0,0,0,0,0,0,0,0,0,0,0,,,,,,,,,,,,,0,0,0,0,0,11,11,11,,,,,,,,,,,,,,,,,,,,,,,,,,,,,,,,,,,,,,,,,,,,,,,,,,,,,,,,,,,,,,,,,,,,,,,,,,,,,,,,,,,,,,,,,,,,,,,,,,,,,111.34820035800021,116.12635477300046,,,,,101821,2,3,1,2,0,1,2,0,68,2021_Oct_18_0944,listening_fmri,3.2.4,59.98920218339756,
0,parcelated_audio/31/31_13.ogg,,,,,,,,,0,0,0,0,0,0,0,0,0,0,0,0,,,,,,,,,,,,,0,0,0,0,0,12,12,12,,,,,,,,,,,,,,,,,,,,,,,,,,,,,,,,,,,,,,,,,,,,,,,,,,,,,,,,,,,,,,,,,,,,,,,,,,,,,,,,,,,,,,,,,,,,,,,,,,,,,116.12670319500012,123.44344483300029,,,,,101821,2,3,1,2,0,1,2,0,68,2021_Oct_18_0944,listening_fmri,3.2.4,59.98920218339756,
0,parcelated_audio/31/31_14.ogg,,,,,,,,,0,0,0,0,0,0,0,0,0,0,0,0,,,,,,,,,,,,,0,0,0,0,0,13,13,13,,,,,,,,,,,,,,,,,,,,,,,,,,,,,,,,,,,,,,,,,,,,,,,,,,,,,,,,,,,,,,,,,,,,,,,,,,,,,,,,,,,,,,,,,,,,,,,,,,,,,123.44398091099993,129.58005682099974,,,,,101821,2,3,1,2,0,1,2,0,68,2021_Oct_18_0944,listening_fmri,3.2.4,59.98920218339756,
0,parcelated_audio/31/31_15.ogg,,,,,,,,,0,0,0,0,0,0,0,0,0,0,0,0,,,,,,,,,,,,,0,0,0,0,0,14,14,14,,,,,,,,,,,,,,,,,,,,,,,,,,,,,,,,,,,,,,,,,,,,,,,,,,,,,,,,,,,,,,,,,,,,,,,,,,,,,,,,,,,,,,,,,,,,,,,,,,,,,129.580359435,136.37282280399995,,,,,101821,2,3,1,2,0,1,2,0,68,2021_Oct_18_0944,listening_fmri,3.2.4,59.98920218339756,
0,parcelated_audio/31/31_16.ogg,,,,,,,,,0,0,0,0,0,0,0,0,0,0,0,0,,,,,,,,,,,,,0,0,0,0,0,15,15,15,,,,,,,,,,,,,,,,,,,,,,,,,,,,,,,,,,,,,,,,,,,,,,,,,,,,,,,,,,,,,,,,,,,,,,,,,,,,,,,,,,,,,,,,,,,,,,,,,,,,,136.37317572099982,142.78701330700005,,,,,101821,2,3,1,2,0,1,2,0,68,2021_Oct_18_0944,listening_fmri,3.2.4,59.98920218339756,
0,parcelated_audio/31/31_17.ogg,,,,,,,,,0,0,0,0,0,0,0,0,0,0,0,0,,,,,,,,,,,,,0,0,0,0,0,16,16,16,,,,,,,,,,,,,,,,,,,,,,,,,,,,,,,,,,,,,,,,,,,,,,,,,,,,,,,,,,,,,,,,,,,,,,,,,,,,,,,,,,,,,,,,,,,,,,,,,,,,,142.78735650599992,146.23344478000035,,,,,101821,2,3,1,2,0,1,2,0,68,2021_Oct_18_0944,listening_fmri,3.2.4,59.98920218339756,
0,parcelated_audio/31/31_18.ogg,,,,,,,,,0,0,0,0,0,0,0,0,0,0,0,0,,,,,,,,,,,,,0,0,0,0,0,17,17,17,,,,,,,,,,,,,,,,,,,,,,,,,,,,,,,,,,,,,,,,,,,,,,,,,,,,,,,,,,,,,,,,,,,,,,,,,,,,,,,,,,,,,,,,,,,,,,,,,,,,,146.23391883899967,150.94893724600024,,,,,101821,2,3,1,2,0,1,2,0,68,2021_Oct_18_0944,listening_fmri,3.2.4,59.98920218339756,
0,parcelated_audio/31/31_19.ogg,,,,,,,,,0,0,0,0,0,0,0,0,0,0,0,0,,,,,,,,,,,,,0,0,0,0,0,18,18,18,,,,,,,,,,,,,,,,,,,,,,,,,,,,,,,,,,,,,,,,,,,,,,,,,,,,,,,,,,,,,,,,,,,,,,,,,,,,,,,,,,,,,,,,,,,,,,,,,,,,,150.94928899499973,159.13958430500043,,,,,101821,2,3,1,2,0,1,2,0,68,2021_Oct_18_0944,listening_fmri,3.2.4,59.98920218339756,
0,parcelated_audio/31/31_20.ogg,,,,,,,,,0,0,0,0,0,0,0,0,0,0,0,0,,,,,,,,,,,,,0,0,0,0,0,19,19,19,,,,,,,,,,,,,,,,,,,,,,,,,,,,,,,,,,,,,,,,,,,,,,,,,,,,,,,,,,,,,,,,,,,,,,,,,,,,,,,,,,,,,,,,,,,,,,,,,,,,,159.139942281,176.97673582700008,,,,,101821,2,3,1,2,0,1,2,0,68,2021_Oct_18_0944,listening_fmri,3.2.4,59.98920218339756,
0,parcelated_audio/31/31_21.ogg,,,,,,,,,0,0,0,0,0,0,0,0,0,0,0,0,,,,,,,,,,,,,0,0,0,0,0,20,20,20,,,,,,,,,,,,,,,,,,,,,,,,,,,,,,,,,,,,,,,,,,,,,,,,,,,,,,,,,,,,,,,,,,,,,,,,,,,,,,,,,,,,,,,,,,,,,,,,,,,,,176.97709133900025,187.22468660600043,,,,,101821,2,3,1,2,0,1,2,0,68,2021_Oct_18_0944,listening_fmri,3.2.4,59.98920218339756,
0,parcelated_audio/31/31_22.ogg,,,,,,,,,0,0,0,0,0,0,0,0,0,0,0,0,,,,,,,,,,,,,0,0,0,0,0,21,21,21,,,,,,,,,,,,,,,,,,,,,,,,,,,,,,,,,,,,,,,,,,,,,,,,,,,,,,,,,,,,,,,,,,,,,,,,,,,,,,,,,,,,,,,,,,,,,,,,,,,,,187.2249580480002,192.93958951199966,,,,,101821,2,3,1,2,0,1,2,0,68,2021_Oct_18_0944,listening_fmri,3.2.4,59.98920218339756,
0,parcelated_audio/31/31_23.ogg,,,,,,,,,0,0,0,0,0,0,0,0,0,0,0,0,,,,,,,,,,,,,0,0,0,0,0,22,22,22,,,,,,,,,,,,,,,,,,,,,,,,,,,,,,,,,,,,,,,,,,,,,,,,,,,,,,,,,,,,,,,,,,,,,,,,,,,,,,,,,,,,,,,,,,,,,,,,,,,,,192.93985853600043,197.54587751500003,,,,,101821,2,3,1,2,0,1,2,0,68,2021_Oct_18_0944,listening_fmri,3.2.4,59.98920218339756,
0,parcelated_audio/31/31_24.ogg,,,,,,,,,0,0,0,0,0,0,0,0,0,0,0,0,,,,,,,,,,,,,0,0,0,0,0,23,23,23,,,,,,,,,,,,,,,,,,,,,,,,,,,,,,,,,,,,,,,,,,,,,,,,,,,,,,,,,,,,,,,,,,,,,,,,,,,,,,,,,,,,,,,,,,,,,,,,,,,,,197.54616713799987,204.4320862200002,,,,,101821,2,3,1,2,0,1,2,0,68,2021_Oct_18_0944,listening_fmri,3.2.4,59.98920218339756,
0,parcelated_audio/31/31_25.ogg,,,,,,,,,0,0,0,0,0,0,0,0,0,0,0,0,,,,,,,,,,,,,0,0,0,0,0,24,24,24,,,,,,,,,,,,,,,,,,,,,,,,,,,,,,,,,,,,,,,,,,,,,,,,,,,,,,,,,,,,,,,,,,,,,,,,,,,,,,,,,,,,,,,,,,,,,,,,,,,,,204.43236381899987,216.41999896800007,,,,,101821,2,3,1,2,0,1,2,0,68,2021_Oct_18_0944,listening_fmri,3.2.4,59.98920218339756,
0,parcelated_audio/31/31_26.ogg,,,,,,,,,0,0,0,0,0,0,0,0,0,0,0,0,,,,,,,,,,,,,0,0,0,0,0,25,25,25,,,,,,,,,,,,,,,,,,,,,,,,,,,,,,,,,,,,,,,,,,,,,,,,,,,,,,,,,,,,,,,,,,,,,,,,,,,,,,,,,,,,,,,,,,,,,,,,,,,,,216.42041284199968,223.94401778300016,,,,,101821,2,3,1,2,0,1,2,0,68,2021_Oct_18_0944,listening_fmri,3.2.4,59.98920218339756,
0,parcelated_audio/31/31_27.ogg,,,,,,,,,0,0,0,0,0,0,0,0,0,0,0,0,,,,,,,,,,,,,0,0,0,0,0,26,26,26,,,,,,,,,,,,,,,,,,,,,,,,,,,,,,,,,,,,,,,,,,,,,,,,,,,,,,,,,,,,,,,,,,,,,,,,,,,,,,,,,,,,,,,,,,,,,,,,,,,,,223.94436058799965,228.3504156729996,,,,,101821,2,3,1,2,0,1,2,0,68,2021_Oct_18_0944,listening_fmri,3.2.4,59.98920218339756,
0,parcelated_audio/31/31_28.ogg,,,,,,,,,0,0,0,0,0,0,0,0,0,0,0,0,,,,,,,,,,,,,0,0,0,0,0,27,27,27,,,,,,,,,,,,,,,,,,,,,,,,,,,,,,,,,,,,,,,,,,,,,,,,,,,,,,,,,,,,,,,,,,,,,,,,,,,,,,,,,,,,,,,,,,,,,,,,,,,,,228.35077743700003,233.36385600700032,,,,,101821,2,3,1,2,0,1,2,0,68,2021_Oct_18_0944,listening_fmri,3.2.4,59.98920218339756,
0,parcelated_audio/31/31_29.ogg,,,,,,,,,0,0,0,0,0,0,0,0,0,0,0,0,,,,,,,,,,,,,0,0,0,0,0,28,28,28,,,,,,,,,,,,,,,,,,,,,,,,,,,,,,,,,,,,,,,,,,,,,,,,,,,,,,,,,,,,,,,,,,,,,,,,,,,,,,,,,,,,,,,,,,,,,,,,,,,,,233.36420988200007,237.710016086,,,,,101821,2,3,1,2,0,1,2,0,68,2021_Oct_18_0944,listening_fmri,3.2.4,59.98920218339756,
0,parcelated_audio/31/31_30.ogg,,,,,,,,,0,0,0,0,0,0,0,0,0,0,0,0,,,,,,,,,,,,,0,0,0,0,0,29,29,29,,,,,,,,,,,,,,,,,,,,,,,,,,,,,,,,,,,,,,,,,,,,,,,,,,,,,,,,,,,,,,,,,,,,,,,,,,,,,,,,,,,,,,,,,,,,,,,,,,,,,237.71036823800023,241.4780292739997,,,,,101821,2,3,1,2,0,1,2,0,68,2021_Oct_18_0944,listening_fmri,3.2.4,59.98920218339756,
0,parcelated_audio/31/31_31.ogg,,,,,,,,,0,0,0,0,0,0,0,0,0,0,0,0,,,,,,,,,,,,,0,0,0,0,0,30,30,30,,,,,,,,,,,,,,,,,,,,,,,,,,,,,,,,,,,,,,,,,,,,,,,,,,,,,,,,,,,,,,,,,,,,,,,,,,,,,,,,,,,,,,,,,,,,,,,,,,,,,241.47847887100033,247.54887216600036,,,,,101821,2,3,1,2,0,1,2,0,68,2021_Oct_18_0944,listening_fmri,3.2.4,59.98920218339756,
0,parcelated_audio/31/31_32.ogg,,,,,,,,,0,0,0,0,0,0,0,0,0,0,0,0,,,,,,,,,,,,,0,0,0,0,0,31,31,31,,,,,,,,,,,,,,,,,,,,,,,,,,,,,,,,,,,,,,,,,,,,,,,,,,,,,,,,,,,,,,,,,,,,,,,,,,,,,,,,,,,,,,,,,,,,,,,,,,,,,247.54913207000027,257.5129415649999,,,,,101821,2,3,1,2,0,1,2,0,68,2021_Oct_18_0944,listening_fmri,3.2.4,59.98920218339756,
0,parcelated_audio/31/31_33.ogg,,,,,,,,,0,0,0,0,0,0,0,0,0,0,0,0,,,,,,,,,,,,,0,0,0,0,0,32,32,32,,,,,,,,,,,,,,,,,,,,,,,,,,,,,,,,,,,,,,,,,,,,,,,,,,,,,,,,,,,,,,,,,,,,,,,,,,,,,,,,,,,,,,,,,,,,,,,,,,,,,257.51329542700023,265.8796697099997,,,,,101821,2,3,1,2,0,1,2,0,68,2021_Oct_18_0944,listening_fmri,3.2.4,59.98920218339756,
0,parcelated_audio/31/31_34.ogg,,,,,,,,,0,0,0,0,0,0,0,0,0,0,0,0,,,,,,,,,,,,,0,0,0,0,0,33,33,33,,,,,,,,,,,,,,,,,,,,,,,,,,,,,,,,,,,,,,,,,,,,,,,,,,,,,,,,,,,,,,,,,,,,,,,,,,,,,,,,,,,,,,,,,,,,,,,,,,,,,265.8801446360003,270.26163332299984,,,,,101821,2,3,1,2,0,1,2,0,68,2021_Oct_18_0944,listening_fmri,3.2.4,59.98920218339756,
0,parcelated_audio/31/31_35.ogg,,,,,,,,,0,0,0,0,0,0,0,0,0,0,0,0,,,,,,,,,,,,,0,0,0,0,0,34,34,34,,,,,,,,,,,,,,,,,,,,,,,,,,,,,,,,,,,,,,,,,,,,,,,,,,,,,,,,,,,,,,,,,,,,,,,,,,,,,,,,,,,,,,,,,,,,,,,,,,,,,270.2619571519999,276.02019407100033,,,,,101821,2,3,1,2,0,1,2,0,68,2021_Oct_18_0944,listening_fmri,3.2.4,59.98920218339756,
0,parcelated_audio/31/31_36.ogg,,,,,,,,,0,0,0,0,0,0,0,0,0,0,0,0,,,,,,,,,,,,,0,0,0,0,0,35,35,35,,,,,,,,,,,,,,,,,,,,,,,,,,,,,,,,,,,,,,,,,,,,,,,,,,,,,,,,,,,,,,,,,,,,,,,,,,,,,,,,,,,,,,,,,,,,,,,,,,,,,276.02046141899973,282.3407017460004,,,,,101821,2,3,1,2,0,1,2,0,68,2021_Oct_18_0944,listening_fmri,3.2.4,59.98920218339756,
0,,,,,,,,,,0,0,0,0,0,0,0,0,0,0,0,0,,,,,,,,,,,,,0,0,0,0,,,,,,,,,,,,,,,,,,,,,,,,,,,,,,,,,,,,,,,,,,,,,,,,,,,,,,,,,,,,,,,,,,,,,,,,,,,,,,,,,,,,,,,,,,,,,,,,,,,,,,,,,,,,,,,101821,2,3,1,2,0,1,2,0,68,2021_Oct_18_0944,listening_fmri,3.2.4,59.98920218339756,
0,,,,,,,,,,0,0,0,0,0,0,0,0,0,0,0,0,,,,,,,,,,,,,,,,,,,,,,,,,,,,,,,,,,,,,,282.34108162899975,288.3317023460004,342.57614801599993,None,,,,,,,,,,,,,,,,,,,,,,,,,,,,,,,,,,,,,,,,,,,,,,,,,,,,,,,,,,,,,,,,,,,,,,,,,,,,,,,,,,348.5796354628002,None,348.5796354628002,None,101821,2,3,1,2,0,1,2,0,68,2021_Oct_18_0944,listening_fmri,3.2.4,59.98920218339756,
0,,,,,,,,,,0,0,0,0,0,0,0,0,,,,,,,,,,,,,,,,,,,,,,,,,,,,,,,,,,,,,,,,,,,,,,,,,,,,,,,,,,,,,,,,,,,,,,,,,,,,,,,,,,,,,,,,,,,,,,,,,,,,,,,,,,,,,,,,,,,,,,,,,,,,,,,,,,,101821,2,3,1,2,0,1,2,0,68,2021_Oct_18_0944,listening_fmri,3.2.4,59.98920218339756,
1,,,,,,,,,,0,0,0,0,0,1,1,1,,,,,,,,,,,,,,,,,,,,,,,,,,,,,,,,,,,,,,,,,,,,,,,,,,,,,,,,,,,,,,,,,,,,,,,,,,,,,,,,,,,,,,,,,,,,,,,,,,,,,,,,,,,,,,,,,,,,,,,,,,,,,,,,,,,101821,2,3,1,2,0,1,2,0,68,2021_Oct_18_0944,listening_fmri,3.2.4,59.98920218339756,
2,parcelated_audio/11/11_1.ogg,,,,,,,,,0,0,0,0,0,2,2,2,0,0,0,0,,,,,,,,,,,,,0,0,0,0,0,0,0,0,,,,,,,,,,,,,,,,,,,,,,348.59733845400024,None,348.59733845400024,None,6,1.3146191410005486,348.59733845400024,None,348.59733845400024,None,,,,,,,,,,,,,,,,,,,,,,,,,,,,,,,,,,,,,,,,,,,,,,,,,,,,,,,,,,,,,,349.93064712999967,None,6,1.9833170769998105,349.93064712999967,None,291.6911335149998,294.699081275,294.7082127350004,306.78382330299974,,,,,101821,2,3,1,2,0,1,2,0,68,2021_Oct_18_0944,listening_fmri,3.2.4,59.98920218339756,
2,parcelated_audio/11/11_2.ogg,,,,,,,,,0,0,0,0,0,2,2,2,0,0,0,0,,,,,,,,,,,,,0,0,0,0,0,1,1,1,,,,,,,,,,,,,,,,,,,,,,,,,,,,,,,,,,,,,,,,,,,,,,,,,,,,,,,,,,,,,,,,,,,,,,,,,,,,,,,,,,,,,,,,,,,,,,,,,,,,,306.7841762850003,311.26394782199986,,,,,101821,2,3,1,2,0,1,2,0,68,2021_Oct_18_0944,listening_fmri,3.2.4,59.98920218339756,
2,parcelated_audio/11/11_3.ogg,,,,,,,,,0,0,0,0,0,2,2,2,0,0,0,0,,,,,,,,,,,,,0,0,0,0,0,2,2,2,,,,,,,,,,,,,,,,,,,,,,,,,,,,,,,,,,,,,,,,,,,,,,,,,,,,,,,,,,,,,,,,,,,,,,,,,,,,,,,,,,,,,,,,,,,,,,,,,,,,,311.26430467499995,316.26191386200026,,,,,101821,2,3,1,2,0,1,2,0,68,2021_Oct_18_0944,listening_fmri,3.2.4,59.98920218339756,
2,parcelated_audio/11/11_4.ogg,,,,,,,,,0,0,0,0,0,2,2,2,0,0,0,0,,,,,,,,,,,,,0,0,0,0,0,3,3,3,,,,,,,,,,,,,,,,,,,,,,,,,,,,,,,,,,,,,,,,,,,,,,,,,,,,,,,,,,,,,,,,,,,,,,,,,,,,,,,,,,,,,,,,,,,,,,,,,,,,,316.2622935649997,325.3519520310001,,,,,101821,2,3,1,2,0,1,2,0,68,2021_Oct_18_0944,listening_fmri,3.2.4,59.98920218339756,
2,parcelated_audio/11/11_5.ogg,,,,,,,,,0,0,0,0,0,2,2,2,0,0,0,0,,,,,,,,,,,,,0,0,0,0,0,4,4,4,,,,,,,,,,,,,,,,,,,,,,,,,,,,,,,,,,,,,,,,,,,,,,,,,,,,,,,,,,,,,,,,,,,,,,,,,,,,,,,,,,,,,,,,,,,,,,,,,,,,,325.3524031759998,331.11461750299986,,,,,101821,2,3,1,2,0,1,2,0,68,2021_Oct_18_0944,listening_fmri,3.2.4,59.98920218339756,
2,parcelated_audio/11/11_6.ogg,,,,,,,,,0,0,0,0,0,2,2,2,0,0,0,0,,,,,,,,,,,,,0,0,0,0,0,5,5,5,,,,,,,,,,,,,,,,,,,,,,,,,,,,,,,,,,,,,,,,,,,,,,,,,,,,,,,,,,,,,,,,,,,,,,,,,,,,,,,,,,,,,,,,,,,,,,,,,,,,,331.1148772160004,335.70361403599964,,,,,101821,2,3,1,2,0,1,2,0,68,2021_Oct_18_0944,listening_fmri,3.2.4,59.98920218339756,
2,parcelated_audio/11/11_7.ogg,,,,,,,,,0,0,0,0,0,2,2,2,0,0,0,0,,,,,,,,,,,,,0,0,0,0,0,6,6,6,,,,,,,,,,,,,,,,,,,,,,,,,,,,,,,,,,,,,,,,,,,,,,,,,,,,,,,,,,,,,,,,,,,,,,,,,,,,,,,,,,,,,,,,,,,,,,,,,,,,,335.7038907690003,342.2433902519997,,,,,101821,2,3,1,2,0,1,2,0,68,2021_Oct_18_0944,listening_fmri,3.2.4,59.98920218339756,
2,parcelated_audio/11/11_8.ogg,,,,,,,,,0,0,0,0,0,2,2,2,0,0,0,0,,,,,,,,,,,,,0,0,0,0,0,7,7,7,,,,,,,,,,,,,,,,,,,,,,,,,,,,,,,,,,,,,,,,,,,,,,,,,,,,,,,,,,,,,,,,,,,,,,,,,,,,,,,,,,,,,,,,,,,,,,,,,,,,,342.2436630960001,348.02699357799975,,,,,101821,2,3,1,2,0,1,2,0,68,2021_Oct_18_0944,listening_fmri,3.2.4,59.98920218339756,
2,parcelated_audio/11/11_9.ogg,,,,,,,,,0,0,0,0,0,2,2,2,0,0,0,0,,,,,,,,,,,,,0,0,0,0,0,8,8,8,,,,,,,,,,,,,,,,,,,,,,,,,,,,,,,,,,,,,,,,,,,,,,,,,,,,,,,,,,,,,,,,,,,,,,,,,,,,,,,,,,,,,,,,,,,,,,,,,,,,,348.02737477699975,352.32860194600016,,,,,101821,2,3,1,2,0,1,2,0,68,2021_Oct_18_0944,listening_fmri,3.2.4,59.98920218339756,
2,parcelated_audio/11/11_10.ogg,,,,,,,,,0,0,0,0,0,2,2,2,0,0,0,0,,,,,,,,,,,,,0,0,0,0,0,9,9,9,,,,,,,,,,,,,,,,,,,,,,,,,,,,,,,,,,,,,,,,,,,,,,,,,,,,,,,,,,,,,,,,,,,,,,,,,,,,,,,,,,,,,,,,,,,,,,,,,,,,,352.32887890799975,356.9008476150002,,,,,101821,2,3,1,2,0,1,2,0,68,2021_Oct_18_0944,listening_fmri,3.2.4,59.98920218339756,
2,parcelated_audio/11/11_11.ogg,,,,,,,,,0,0,0,0,0,2,2,2,0,0,0,0,,,,,,,,,,,,,0,0,0,0,0,10,10,10,,,,,,,,,,,,,,,,,,,,,,,,,,,,,,,,,,,,,,,,,,,,,,,,,,,,,,,,,,,,,,,,,,,,,,,,,,,,,,,,,,,,,,,,,,,,,,,,,,,,,356.90112198299994,360.0764240660001,,,,,101821,2,3,1,2,0,1,2,0,68,2021_Oct_18_0944,listening_fmri,3.2.4,59.98920218339756,
2,parcelated_audio/11/11_12.ogg,,,,,,,,,0,0,0,0,0,2,2,2,0,0,0,0,,,,,,,,,,,,,0,0,0,0,0,11,11,11,,,,,,,,,,,,,,,,,,,,,,,,,,,,,,,,,,,,,,,,,,,,,,,,,,,,,,,,,,,,,,,,,,,,,,,,,,,,,,,,,,,,,,,,,,,,,,,,,,,,,360.076839028,362.90745561899985,,,,,101821,2,3,1,2,0,1,2,0,68,2021_Oct_18_0944,listening_fmri,3.2.4,59.98920218339756,
2,parcelated_audio/11/11_13.ogg,,,,,,,,,0,0,0,0,0,2,2,2,0,0,0,0,,,,,,,,,,,,,0,0,0,0,0,12,12,12,,,,,,,,,,,,,,,,,,,,,,,,,,,,,,,,,,,,,,,,,,,,,,,,,,,,,,,,,,,,,,,,,,,,,,,,,,,,,,,,,,,,,,,,,,,,,,,,,,,,,362.9077354350002,366.2217037339997,,,,,101821,2,3,1,2,0,1,2,0,68,2021_Oct_18_0944,listening_fmri,3.2.4,59.98920218339756,
2,parcelated_audio/11/11_14.ogg,,,,,,,,,0,0,0,0,0,2,2,2,0,0,0,0,,,,,,,,,,,,,0,0,0,0,0,13,13,13,,,,,,,,,,,,,,,,,,,,,,,,,,,,,,,,,,,,,,,,,,,,,,,,,,,,,,,,,,,,,,,,,,,,,,,,,,,,,,,,,,,,,,,,,,,,,,,,,,,,,366.22203511800035,368.9150309099996,,,,,101821,2,3,1,2,0,1,2,0,68,2021_Oct_18_0944,listening_fmri,3.2.4,59.98920218339756,
2,parcelated_audio/11/11_15.ogg,,,,,,,,,0,0,0,0,0,2,2,2,0,0,0,0,,,,,,,,,,,,,0,0,0,0,0,14,14,14,,,,,,,,,,,,,,,,,,,,,,,,,,,,,,,,,,,,,,,,,,,,,,,,,,,,,,,,,,,,,,,,,,,,,,,,,,,,,,,,,,,,,,,,,,,,,,,,,,,,,368.91530548100036,380.0948478150003,,,,,101821,2,3,1,2,0,1,2,0,68,2021_Oct_18_0944,listening_fmri,3.2.4,59.98920218339756,
2,parcelated_audio/11/11_16.ogg,,,,,,,,,0,0,0,0,0,2,2,2,0,0,0,0,,,,,,,,,,,,,0,0,0,0,0,15,15,15,,,,,,,,,,,,,,,,,,,,,,,,,,,,,,,,,,,,,,,,,,,,,,,,,,,,,,,,,,,,,,,,,,,,,,,,,,,,,,,,,,,,,,,,,,,,,,,,,,,,,380.0952045949998,383.0965459099998,,,,,101821,2,3,1,2,0,1,2,0,68,2021_Oct_18_0944,listening_fmri,3.2.4,59.98920218339756,
2,parcelated_audio/11/11_17.ogg,,,,,,,,,0,0,0,0,0,2,2,2,0,0,0,0,,,,,,,,,,,,,0,0,0,0,0,16,16,16,,,,,,,,,,,,,,,,,,,,,,,,,,,,,,,,,,,,,,,,,,,,,,,,,,,,,,,,,,,,,,,,,,,,,,,,,,,,,,,,,,,,,,,,,,,,,,,,,,,,,383.0969020430002,390.07780652699967,,,,,101821,2,3,1,2,0,1,2,0,68,2021_Oct_18_0944,listening_fmri,3.2.4,59.98920218339756,
2,parcelated_audio/11/11_18.ogg,,,,,,,,,0,0,0,0,0,2,2,2,0,0,0,0,,,,,,,,,,,,,0,0,0,0,0,17,17,17,,,,,,,,,,,,,,,,,,,,,,,,,,,,,,,,,,,,,,,,,,,,,,,,,,,,,,,,,,,,,,,,,,,,,,,,,,,,,,,,,,,,,,,,,,,,,,,,,,,,,390.07818523199967,397.6379583859998,,,,,101821,2,3,1,2,0,1,2,0,68,2021_Oct_18_0944,listening_fmri,3.2.4,59.98920218339756,
2,parcelated_audio/11/11_19.ogg,,,,,,,,,0,0,0,0,0,2,2,2,0,0,0,0,,,,,,,,,,,,,0,0,0,0,0,18,18,18,,,,,,,,,,,,,,,,,,,,,,,,,,,,,,,,,,,,,,,,,,,,,,,,,,,,,,,,,,,,,,,,,,,,,,,,,,,,,,,,,,,,,,,,,,,,,,,,,,,,,397.6382299759998,402.30234757499966,,,,,101821,2,3,1,2,0,1,2,0,68,2021_Oct_18_0944,listening_fmri,3.2.4,59.98920218339756,
2,parcelated_audio/11/11_20.ogg,,,,,,,,,0,0,0,0,0,2,2,2,0,0,0,0,,,,,,,,,,,,,0,0,0,0,0,19,19,19,,,,,,,,,,,,,,,,,,,,,,,,,,,,,,,,,,,,,,,,,,,,,,,,,,,,,,,,,,,,,,,,,,,,,,,,,,,,,,,,,,,,,,,,,,,,,,,,,,,,,402.302698128,407.25838227199984,,,,,101821,2,3,1,2,0,1,2,0,68,2021_Oct_18_0944,listening_fmri,3.2.4,59.98920218339756,
2,parcelated_audio/11/11_21.ogg,,,,,,,,,0,0,0,0,0,2,2,2,0,0,0,0,,,,,,,,,,,,,0,0,0,0,0,20,20,20,,,,,,,,,,,,,,,,,,,,,,,,,,,,,,,,,,,,,,,,,,,,,,,,,,,,,,,,,,,,,,,,,,,,,,,,,,,,,,,,,,,,,,,,,,,,,,,,,,,,,407.25869274399975,416.0302948999997,,,,,101821,2,3,1,2,0,1,2,0,68,2021_Oct_18_0944,listening_fmri,3.2.4,59.98920218339756,
2,parcelated_audio/11/11_22.ogg,,,,,,,,,0,0,0,0,0,2,2,2,0,0,0,0,,,,,,,,,,,,,0,0,0,0,0,21,21,21,,,,,,,,,,,,,,,,,,,,,,,,,,,,,,,,,,,,,,,,,,,,,,,,,,,,,,,,,,,,,,,,,,,,,,,,,,,,,,,,,,,,,,,,,,,,,,,,,,,,,416.0307561210002,419.3155998680004,,,,,101821,2,3,1,2,0,1,2,0,68,2021_Oct_18_0944,listening_fmri,3.2.4,59.98920218339756,
2,parcelated_audio/11/11_23.ogg,,,,,,,,,0,0,0,0,0,2,2,2,0,0,0,0,,,,,,,,,,,,,0,0,0,0,0,22,22,22,,,,,,,,,,,,,,,,,,,,,,,,,,,,,,,,,,,,,,,,,,,,,,,,,,,,,,,,,,,,,,,,,,,,,,,,,,,,,,,,,,,,,,,,,,,,,,,,,,,,,419.31604458699985,424.09681789299975,,,,,101821,2,3,1,2,0,1,2,0,68,2021_Oct_18_0944,listening_fmri,3.2.4,59.98920218339756,
2,parcelated_audio/11/11_24.ogg,,,,,,,,,0,0,0,0,0,2,2,2,0,0,0,0,,,,,,,,,,,,,0,0,0,0,0,23,23,23,,,,,,,,,,,,,,,,,,,,,,,,,,,,,,,,,,,,,,,,,,,,,,,,,,,,,,,,,,,,,,,,,,,,,,,,,,,,,,,,,,,,,,,,,,,,,,,,,,,,,424.0971854879999,427.72374324700013,,,,,101821,2,3,1,2,0,1,2,0,68,2021_Oct_18_0944,listening_fmri,3.2.4,59.98920218339756,
2,parcelated_audio/11/11_25.ogg,,,,,,,,,0,0,0,0,0,2,2,2,0,0,0,0,,,,,,,,,,,,,0,0,0,0,0,24,24,24,,,,,,,,,,,,,,,,,,,,,,,,,,,,,,,,,,,,,,,,,,,,,,,,,,,,,,,,,,,,,,,,,,,,,,,,,,,,,,,,,,,,,,,,,,,,,,,,,,,,,427.7243016319999,432.46469358099966,,,,,101821,2,3,1,2,0,1,2,0,68,2021_Oct_18_0944,listening_fmri,3.2.4,59.98920218339756,
2,parcelated_audio/11/11_26.ogg,,,,,,,,,0,0,0,0,0,2,2,2,0,0,0,0,,,,,,,,,,,,,0,0,0,0,0,25,25,25,,,,,,,,,,,,,,,,,,,,,,,,,,,,,,,,,,,,,,,,,,,,,,,,,,,,,,,,,,,,,,,,,,,,,,,,,,,,,,,,,,,,,,,,,,,,,,,,,,,,,432.4650451810003,437.44857628299997,,,,,101821,2,3,1,2,0,1,2,0,68,2021_Oct_18_0944,listening_fmri,3.2.4,59.98920218339756,
2,parcelated_audio/11/11_27.ogg,,,,,,,,,0,0,0,0,0,2,2,2,0,0,0,0,,,,,,,,,,,,,0,0,0,0,0,26,26,26,,,,,,,,,,,,,,,,,,,,,,,,,,,,,,,,,,,,,,,,,,,,,,,,,,,,,,,,,,,,,,,,,,,,,,,,,,,,,,,,,,,,,,,,,,,,,,,,,,,,,437.44928746799997,441.4254921470001,,,,,101821,2,3,1,2,0,1,2,0,68,2021_Oct_18_0944,listening_fmri,3.2.4,59.98920218339756,
2,parcelated_audio/11/11_28.ogg,,,,,,,,,0,0,0,0,0,2,2,2,0,0,0,0,,,,,,,,,,,,,0,0,0,0,0,27,27,27,,,,,,,,,,,,,,,,,,,,,,,,,,,,,,,,,,,,,,,,,,,,,,,,,,,,,,,,,,,,,,,,,,,,,,,,,,,,,,,,,,,,,,,,,,,,,,,,,,,,,441.4258615110002,444.8381746639998,,,,,101821,2,3,1,2,0,1,2,0,68,2021_Oct_18_0944,listening_fmri,3.2.4,59.98920218339756,
2,parcelated_audio/11/11_29.ogg,,,,,,,,,0,0,0,0,0,2,2,2,0,0,0,0,,,,,,,,,,,,,0,0,0,0,0,28,28,28,,,,,,,,,,,,,,,,,,,,,,,,,,,,,,,,,,,,,,,,,,,,,,,,,,,,,,,,,,,,,,,,,,,,,,,,,,,,,,,,,,,,,,,,,,,,,,,,,,,,,444.8388903289997,449.0224344019998,,,,,101821,2,3,1,2,0,1,2,0,68,2021_Oct_18_0944,listening_fmri,3.2.4,59.98920218339756,
2,parcelated_audio/11/11_30.ogg,,,,,,,,,0,0,0,0,0,2,2,2,0,0,0,0,,,,,,,,,,,,,0,0,0,0,0,29,29,29,,,,,,,,,,,,,,,,,,,,,,,,,,,,,,,,,,,,,,,,,,,,,,,,,,,,,,,,,,,,,,,,,,,,,,,,,,,,,,,,,,,,,,,,,,,,,,,,,,,,,449.0227476979999,453.53680839699973,,,,,101821,2,3,1,2,0,1,2,0,68,2021_Oct_18_0944,listening_fmri,3.2.4,59.98920218339756,
2,parcelated_audio/11/11_31.ogg,,,,,,,,,0,0,0,0,0,2,2,2,0,0,0,0,,,,,,,,,,,,,0,0,0,0,0,30,30,30,,,,,,,,,,,,,,,,,,,,,,,,,,,,,,,,,,,,,,,,,,,,,,,,,,,,,,,,,,,,,,,,,,,,,,,,,,,,,,,,,,,,,,,,,,,,,,,,,,,,,453.5372474019996,458.3955090039999,,,,,101821,2,3,1,2,0,1,2,0,68,2021_Oct_18_0944,listening_fmri,3.2.4,59.98920218339756,
2,parcelated_audio/11/11_32.ogg,,,,,,,,,0,0,0,0,0,2,2,2,0,0,0,0,,,,,,,,,,,,,0,0,0,0,0,31,31,31,,,,,,,,,,,,,,,,,,,,,,,,,,,,,,,,,,,,,,,,,,,,,,,,,,,,,,,,,,,,,,,,,,,,,,,,,,,,,,,,,,,,,,,,,,,,,,,,,,,,,458.395759862,462.4615387980002,,,,,101821,2,3,1,2,0,1,2,0,68,2021_Oct_18_0944,listening_fmri,3.2.4,59.98920218339756,
2,parcelated_audio/11/11_33.ogg,,,,,,,,,0,0,0,0,0,2,2,2,0,0,0,0,,,,,,,,,,,,,0,0,0,0,0,32,32,32,,,,,,,,,,,,,,,,,,,,,,,,,,,,,,,,,,,,,,,,,,,,,,,,,,,,,,,,,,,,,,,,,,,,,,,,,,,,,,,,,,,,,,,,,,,,,,,,,,,,,462.4618398720004,464.99208121300035,,,,,101821,2,3,1,2,0,1,2,0,68,2021_Oct_18_0944,listening_fmri,3.2.4,59.98920218339756,
2,parcelated_audio/11/11_34.ogg,,,,,,,,,0,0,0,0,0,2,2,2,0,0,0,0,,,,,,,,,,,,,0,0,0,0,0,33,33,33,,,,,,,,,,,,,,,,,,,,,,,,,,,,,,,,,,,,,,,,,,,,,,,,,,,,,,,,,,,,,,,,,,,,,,,,,,,,,,,,,,,,,,,,,,,,,,,,,,,,,464.99243565600045,468.29915404999974,,,,,101821,2,3,1,2,0,1,2,0,68,2021_Oct_18_0944,listening_fmri,3.2.4,59.98920218339756,
2,parcelated_audio/11/11_35.ogg,,,,,,,,,0,0,0,0,0,2,2,2,0,0,0,0,,,,,,,,,,,,,0,0,0,0,0,34,34,34,,,,,,,,,,,,,,,,,,,,,,,,,,,,,,,,,,,,,,,,,,,,,,,,,,,,,,,,,,,,,,,,,,,,,,,,,,,,,,,,,,,,,,,,,,,,,,,,,,,,,468.2994284610004,472.66213972100013,,,,,101821,2,3,1,2,0,1,2,0,68,2021_Oct_18_0944,listening_fmri,3.2.4,59.98920218339756,
2,parcelated_audio/11/11_36.ogg,,,,,,,,,0,0,0,0,0,2,2,2,0,0,0,0,,,,,,,,,,,,,0,0,0,0,0,35,35,35,,,,,,,,,,,,,,,,,,,,,,,,,,,,,,,,,,,,,,,,,,,,,,,,,,,,,,,,,,,,,,,,,,,,,,,,,,,,,,,,,,,,,,,,,,,,,,,,,,,,,472.66254907300026,481.6806335700003,,,,,101821,2,3,1,2,0,1,2,0,68,2021_Oct_18_0944,listening_fmri,3.2.4,59.98920218339756,
2,parcelated_audio/11/11_37.ogg,,,,,,,,,0,0,0,0,0,2,2,2,0,0,0,0,,,,,,,,,,,,,0,0,0,0,0,36,36,36,,,,,,,,,,,,,,,,,,,,,,,,,,,,,,,,,,,,,,,,,,,,,,,,,,,,,,,,,,,,,,,,,,,,,,,,,,,,,,,,,,,,,,,,,,,,,,,,,,,,,481.68094843200015,485.87581993999993,,,,,101821,2,3,1,2,0,1,2,0,68,2021_Oct_18_0944,listening_fmri,3.2.4,59.98920218339756,
2,parcelated_audio/11/11_38.ogg,,,,,,,,,0,0,0,0,0,2,2,2,0,0,0,0,,,,,,,,,,,,,0,0,0,0,0,37,37,37,,,,,,,,,,,,,,,,,,,,,,,,,,,,,,,,,,,,,,,,,,,,,,,,,,,,,,,,,,,,,,,,,,,,,,,,,,,,,,,,,,,,,,,,,,,,,,,,,,,,,485.876185827,492.1316947969999,,,,,101821,2,3,1,2,0,1,2,0,68,2021_Oct_18_0944,listening_fmri,3.2.4,59.98920218339756,
2,parcelated_audio/11/11_39.ogg,,,,,,,,,0,0,0,0,0,2,2,2,0,0,0,0,,,,,,,,,,,,,0,0,0,0,0,38,38,38,,,,,,,,,,,,,,,,,,,,,,,,,,,,,,,,,,,,,,,,,,,,,,,,,,,,,,,,,,,,,,,,,,,,,,,,,,,,,,,,,,,,,,,,,,,,,,,,,,,,,492.13274839299993,497.3179912300002,,,,,101821,2,3,1,2,0,1,2,0,68,2021_Oct_18_0944,listening_fmri,3.2.4,59.98920218339756,
2,parcelated_audio/11/11_40.ogg,,,,,,,,,0,0,0,0,0,2,2,2,0,0,0,0,,,,,,,,,,,,,0,0,0,0,0,39,39,39,,,,,,,,,,,,,,,,,,,,,,,,,,,,,,,,,,,,,,,,,,,,,,,,,,,,,,,,,,,,,,,,,,,,,,,,,,,,,,,,,,,,,,,,,,,,,,,,,,,,,497.31853060899994,503.0798078600001,,,,,101821,2,3,1,2,0,1,2,0,68,2021_Oct_18_0944,listening_fmri,3.2.4,59.98920218339756,
2,parcelated_audio/11/11_41.ogg,,,,,,,,,0,0,0,0,0,2,2,2,0,0,0,0,,,,,,,,,,,,,0,0,0,0,0,40,40,40,,,,,,,,,,,,,,,,,,,,,,,,,,,,,,,,,,,,,,,,,,,,,,,,,,,,,,,,,,,,,,,,,,,,,,,,,,,,,,,,,,,,,,,,,,,,,,,,,,,,,503.0801578589999,509.224978446,,,,,101821,2,3,1,2,0,1,2,0,68,2021_Oct_18_0944,listening_fmri,3.2.4,59.98920218339756,
2,,,,,,,,,,0,0,0,0,0,2,2,2,0,0,0,0,,,,,,,,,,,,,0,0,0,0,,,,,,,,,,,,,,,,,,,,,,,,,,,,,,,,,,,,,,,,,,,,,,,,,,,,,,,,,,,,,,,,,,,,,,,,,,,,,,,,,,,,,,,,,,,,,,,,,,,,,,,,,,,,,,,101821,2,3,1,2,0,1,2,0,68,2021_Oct_18_0944,listening_fmri,3.2.4,59.98920218339756,
,,,,,,,,,,,,,,,,,,,,,,,,,,,,,,,,,,,,,,,,,,,,,,,,,,,,,,,,,,,509.2254671999999,515.225316346,569.4642624569997,None,,,,,,,,,,,,,,,,,,,,,,,,,,,,,,,,,,,,,,,,,,,,,,,,,,,,,,,,,,,,,,,,,,,,,,,,,,,,,,,,,,575.4732856297998,None,575.4732856297998,None,,,,,,,,,,,,,,,
﻿count,audio,trials_14.thisRepN,trials_14.thisTrialN,trials_14.thisN,trials_14.thisIndex,trials_3.thisRepN,trials_3.thisTrialN,trials_3.thisN,trials_3.thisIndex,trials_4.thisRepN,trials_4.thisTrialN,trials_4.thisN,trials_4.thisIndex,trials_6.thisRepN,trials_6.thisTrialN,trials_6.thisN,trials_6.thisIndex,trials_9.thisRepN,trials_9.thisTrialN,trials_9.thisN,trials_9.thisIndex,trials_10.thisRepN,trials_10.thisTrialN,trials_10.thisN,trials_10.thisIndex,trials_11.thisRepN,trials_11.thisTrialN,trials_11.thisN,trials_11.thisIndex,trials_12.thisRepN,trials_12.thisTrialN,trials_12.thisN,trials_12.thisIndex,trials_25.thisRepN,trials_25.thisTrialN,trials_25.thisN,trials_25.thisIndex,trials_15.thisRepN,trials_15.thisTrialN,trials_15.thisN,trials_15.thisIndex,trials_26.thisRepN,trials_26.thisTrialN,trials_26.thisN,trials_26.thisIndex,story_list_block2,action_list_block2,textTrigger.started,textTrigger.stopped,getTrigger.keys,getTrigger.rt,getTrigger.started,getTrigger.stopped,triggerTime,text_76.started,text_76.stopped,text_77.started,text_77.stopped,startWait,endWait,image_23.started,image_23.stopped,text_55.started,text_55.stopped,text_56.started,text_56.stopped,key_resp_2.keys,key_resp_2.rt,key_resp_2.started,key_resp_2.stopped,text_82.started,text_82.stopped,text_57.started,text_57.stopped,key_resp_17.keys,key_resp_17.rt,key_resp_17.started,key_resp_17.stopped,text_83.started,text_83.stopped,text_60.started,text_60.stopped,image_2.started,image_2.stopped,text_58.started,text_58.stopped,key_resp_23.keys,key_resp_23.rt,key_resp_23.started,key_resp_23.stopped,text_62.started,text_62.stopped,key_resp_18.keys,key_resp_18.rt,key_resp_18.started,key_resp_18.stopped,text_84.started,text_84.stopped,question1_2.started,question1_2.stopped,question2_2.started,question2_2.stopped,question3_2.started,question3_2.stopped,question4_2.started,question4_2.stopped,question5_2.started,question5_2.stopped,question6_2.started,question6_2.stopped,image_15.started,image_15.stopped,key_resp.keys,key_resp.started,key_resp.stopped,text_59.started,text_59.stopped,key_resp_19.keys,key_resp_19.rt,key_resp_19.started,key_resp_19.stopped,text_85.started,text_85.stopped,text_61.started,text_61.stopped,image_17.started,image_17.stopped,text_63.started,text_63.stopped,key_resp_24.keys,key_resp_24.rt,key_resp_24.started,key_resp_24.stopped,text_64.started,text_64.stopped,key_resp_20.keys,key_resp_20.rt,key_resp_20.started,key_resp_20.stopped,storyImage_StartTime,storyImage_EndTime,clip_StartTime,clip_EndTime,text_67.started,text_67.stopped,text_68.started,text_68.stopped,participant,sA,sB,lA,lB,block_struct,play_stories,block,behavioral,random_seed,date,expName,psychopyVersion,frameRate,
0,,,,,,,,,,0,0,0,0,0,0,0,0,0,0,0,0,0,0,0,0,0,0,0,0,,,,,,,,,,,,,,,,,[31 33 11 22 44 13 24 42],[1 3 4 2 1 2 4 3],16.563117169999714,None,equal,43.65802398699998,16.563117169999714,None,43.68999070599966,16.563117169999714,None,16.563117169999714,None,0.0003542080003171577,5.999060355000438,60.24598723700001,None,66.26358101799997,None,66.26358101799997,None,6,2.1304895270004636,66.26358101799997,None,66.26358101799997,None,68.41346262000025,None,6,0.9645267099995181,68.41346262000025,None,68.41346262000025,None,69.41316451900002,None,69.41316451900002,None,69.41316451900002,None,6,0.8809887580000577,69.41316451900002,None,70.31365354099944,None,6,1.1094643819997145,70.31365354099944,None,70.31365354099944,None,71.5299917960001,None,71.5299917960001,None,71.5299917960001,None,71.5299917960001,None,71.5299917960001,None,71.5299917960001,None,71.5299917960001,None,None,71.5299917960001,None,,,,,,,,,,,,,,,,,,,,,,,,,,,,,,,,,101821,2,3,1,2,0,1,2,0,68,2021_Oct_18_0944,listening_fmri,3.2.4,59.98920218339756,
0,,,,,,,,,,0,0,0,0,0,0,0,0,0,0,0,0,0,0,0,0,,,,,,,,,,,,,,,,,,,,,,,,,,,,,,,,,,,,,,,,,,,,,,,,,,,,,,,,,,,,,,,,,,,,,,,,,,,,,,,,,,,,,,,,,,,83.16357119199984,None,6,1.221437498999876,83.16357119199984,None,83.16357119199984,None,84.42929354099942,None,84.42929354099942,None,84.42929354099942,None,6,0.7337978499999736,84.42929354099942,None,,,,,,,,,,,,,,,101821,2,3,1,2,0,1,2,0,68,2021_Oct_18_0944,listening_fmri,3.2.4,59.98920218339756,
0,parcelated_audio/31/31_1.ogg,,,,,,,,,0,0,0,0,0,0,0,0,0,0,0,0,,,,,,,,,,,,,0,0,0,0,0,0,0,0,,,,,,,,,,,,,,,,,,,,,,,,,,,,,,,,,,,,,,,,,,,,,,,,,,,,,,,,,,,,,,,,,,,,,,,,,,,,,,,,,,,,,,,,,,,,,85.17938695599969,None,6,1.3557314640002005,85.17938695599969,None,26.329316672999994,29.331479178000336,29.33688035399973,38.02801330700004,,,,,101821,2,3,1,2,0,1,2,0,68,2021_Oct_18_0944,listening_fmri,3.2.4,59.98920218339756,
0,parcelated_audio/31/31_2.ogg,,,,,,,,,0,0,0,0,0,0,0,0,0,0,0,0,,,,,,,,,,,,,0,0,0,0,0,1,1,1,,,,,,,,,,,,,,,,,,,,,,,,,,,,,,,,,,,,,,,,,,,,,,,,,,,,,,,,,,,,,,,,,,,,,,,,,,,,,,,,,,,,,,,,,,,,,,,,,,,,,38.0283207399998,42.486573565999606,,,,,101821,2,3,1,2,0,1,2,0,68,2021_Oct_18_0944,listening_fmri,3.2.4,59.98920218339756,
0,parcelated_audio/31/31_3.ogg,,,,,,,,,0,0,0,0,0,0,0,0,0,0,0,0,,,,,,,,,,,,,0,0,0,0,0,2,2,2,,,,,,,,,,,,,,,,,,,,,,,,,,,,,,,,,,,,,,,,,,,,,,,,,,,,,,,,,,,,,,,,,,,,,,,,,,,,,,,,,,,,,,,,,,,,,,,,,,,,,42.487431180000385,50.77552402800029,,,,,101821,2,3,1,2,0,1,2,0,68,2021_Oct_18_0944,listening_fmri,3.2.4,59.98920218339756,
0,parcelated_audio/31/31_4.ogg,,,,,,,,,0,0,0,0,0,0,0,0,0,0,0,0,,,,,,,,,,,,,0,0,0,0,0,3,3,3,,,,,,,,,,,,,,,,,,,,,,,,,,,,,,,,,,,,,,,,,,,,,,,,,,,,,,,,,,,,,,,,,,,,,,,,,,,,,,,,,,,,,,,,,,,,,,,,,,,,,50.775798917999964,60.83552082500046,,,,,101821,2,3,1,2,0,1,2,0,68,2021_Oct_18_0944,listening_fmri,3.2.4,59.98920218339756,
0,parcelated_audio/31/31_5.ogg,,,,,,,,,0,0,0,0,0,0,0,0,0,0,0,0,,,,,,,,,,,,,0,0,0,0,0,4,4,4,,,,,,,,,,,,,,,,,,,,,,,,,,,,,,,,,,,,,,,,,,,,,,,,,,,,,,,,,,,,,,,,,,,,,,,,,,,,,,,,,,,,,,,,,,,,,,,,,,,,,60.83585299999959,71.95048541600045,,,,,101821,2,3,1,2,0,1,2,0,68,2021_Oct_18_0944,listening_fmri,3.2.4,59.98920218339756,
0,parcelated_audio/31/31_6.ogg,,,,,,,,,0,0,0,0,0,0,0,0,0,0,0,0,,,,,,,,,,,,,0,0,0,0,0,5,5,5,,,,,,,,,,,,,,,,,,,,,,,,,,,,,,,,,,,,,,,,,,,,,,,,,,,,,,,,,,,,,,,,,,,,,,,,,,,,,,,,,,,,,,,,,,,,,,,,,,,,,71.95077008899989,77.26450604100046,,,,,101821,2,3,1,2,0,1,2,0,68,2021_Oct_18_0944,listening_fmri,3.2.4,59.98920218339756,
0,parcelated_audio/31/31_7.ogg,,,,,,,,,0,0,0,0,0,0,0,0,0,0,0,0,,,,,,,,,,,,,0,0,0,0,0,6,6,6,,,,,,,,,,,,,,,,,,,,,,,,,,,,,,,,,,,,,,,,,,,,,,,,,,,,,,,,,,,,,,,,,,,,,,,,,,,,,,,,,,,,,,,,,,,,,,,,,,,,,77.26478411300013,82.1164338360004,,,,,101821,2,3,1,2,0,1,2,0,68,2021_Oct_18_0944,listening_fmri,3.2.4,59.98920218339756,
0,parcelated_audio/31/31_8.ogg,,,,,,,,,0,0,0,0,0,0,0,0,0,0,0,0,,,,,,,,,,,,,0,0,0,0,0,7,7,7,,,,,,,,,,,,,,,,,,,,,,,,,,,,,,,,,,,,,,,,,,,,,,,,,,,,,,,,,,,,,,,,,,,,,,,,,,,,,,,,,,,,,,,,,,,,,,,,,,,,,82.11675183300031,90.5516468679998,,,,,101821,2,3,1,2,0,1,2,0,68,2021_Oct_18_0944,listening_fmri,3.2.4,59.98920218339756,
0,parcelated_audio/31/31_9.ogg,,,,,,,,,0,0,0,0,0,0,0,0,0,0,0,0,,,,,,,,,,,,,0,0,0,0,0,8,8,8,,,,,,,,,,,,,,,,,,,,,,,,,,,,,,,,,,,,,,,,,,,,,,,,,,,,,,,,,,,,,,,,,,,,,,,,,,,,,,,,,,,,,,,,,,,,,,,,,,,,,90.55193978999978,95.6166692630004,,,,,101821,2,3,1,2,0,1,2,0,68,2021_Oct_18_0944,listening_fmri,3.2.4,59.98920218339756,
0,parcelated_audio/31/31_10.ogg,,,,,,,,,0,0,0,0,0,0,0,0,0,0,0,0,,,,,,,,,,,,,0,0,0,0,0,9,9,9,,,,,,,,,,,,,,,,,,,,,,,,,,,,,,,,,,,,,,,,,,,,,,,,,,,,,,,,,,,,,,,,,,,,,,,,,,,,,,,,,,,,,,,,,,,,,,,,,,,,,95.61703243800002,101.12870194100014,,,,,101821,2,3,1,2,0,1,2,0,68,2021_Oct_18_0944,listening_fmri,3.2.4,59.98920218339756,
0,parcelated_audio/31/31_11.ogg,,,,,,,,,0,0,0,0,0,0,0,0,0,0,0,0,,,,,,,,,,,,,0,0,0,0,0,10,10,10,,,,,,,,,,,,,,,,,,,,,,,,,,,,,,,,,,,,,,,,,,,,,,,,,,,,,,,,,,,,,,,,,,,,,,,,,,,,,,,,,,,,,,,,,,,,,,,,,,,,,101.12914139199984,111.34784732200023,,,,,101821,2,3,1,2,0,1,2,0,68,2021_Oct_18_0944,listening_fmri,3.2.4,59.98920218339756,
0,parcelated_audio/31/31_12.ogg,,,,,,,,,0,0,0,0,0,0,0,0,0,0,0,0,,,,,,,,,,,,,0,0,0,0,0,11,11,11,,,,,,,,,,,,,,,,,,,,,,,,,,,,,,,,,,,,,,,,,,,,,,,,,,,,,,,,,,,,,,,,,,,,,,,,,,,,,,,,,,,,,,,,,,,,,,,,,,,,,111.34820035800021,116.12635477300046,,,,,101821,2,3,1,2,0,1,2,0,68,2021_Oct_18_0944,listening_fmri,3.2.4,59.98920218339756,
0,parcelated_audio/31/31_13.ogg,,,,,,,,,0,0,0,0,0,0,0,0,0,0,0,0,,,,,,,,,,,,,0,0,0,0,0,12,12,12,,,,,,,,,,,,,,,,,,,,,,,,,,,,,,,,,,,,,,,,,,,,,,,,,,,,,,,,,,,,,,,,,,,,,,,,,,,,,,,,,,,,,,,,,,,,,,,,,,,,,116.12670319500012,123.44344483300029,,,,,101821,2,3,1,2,0,1,2,0,68,2021_Oct_18_0944,listening_fmri,3.2.4,59.98920218339756,
0,parcelated_audio/31/31_14.ogg,,,,,,,,,0,0,0,0,0,0,0,0,0,0,0,0,,,,,,,,,,,,,0,0,0,0,0,13,13,13,,,,,,,,,,,,,,,,,,,,,,,,,,,,,,,,,,,,,,,,,,,,,,,,,,,,,,,,,,,,,,,,,,,,,,,,,,,,,,,,,,,,,,,,,,,,,,,,,,,,,123.44398091099993,129.58005682099974,,,,,101821,2,3,1,2,0,1,2,0,68,2021_Oct_18_0944,listening_fmri,3.2.4,59.98920218339756,
0,parcelated_audio/31/31_15.ogg,,,,,,,,,0,0,0,0,0,0,0,0,0,0,0,0,,,,,,,,,,,,,0,0,0,0,0,14,14,14,,,,,,,,,,,,,,,,,,,,,,,,,,,,,,,,,,,,,,,,,,,,,,,,,,,,,,,,,,,,,,,,,,,,,,,,,,,,,,,,,,,,,,,,,,,,,,,,,,,,,129.580359435,136.37282280399995,,,,,101821,2,3,1,2,0,1,2,0,68,2021_Oct_18_0944,listening_fmri,3.2.4,59.98920218339756,
0,parcelated_audio/31/31_16.ogg,,,,,,,,,0,0,0,0,0,0,0,0,0,0,0,0,,,,,,,,,,,,,0,0,0,0,0,15,15,15,,,,,,,,,,,,,,,,,,,,,,,,,,,,,,,,,,,,,,,,,,,,,,,,,,,,,,,,,,,,,,,,,,,,,,,,,,,,,,,,,,,,,,,,,,,,,,,,,,,,,136.37317572099982,142.78701330700005,,,,,101821,2,3,1,2,0,1,2,0,68,2021_Oct_18_0944,listening_fmri,3.2.4,59.98920218339756,
0,parcelated_audio/31/31_17.ogg,,,,,,,,,0,0,0,0,0,0,0,0,0,0,0,0,,,,,,,,,,,,,0,0,0,0,0,16,16,16,,,,,,,,,,,,,,,,,,,,,,,,,,,,,,,,,,,,,,,,,,,,,,,,,,,,,,,,,,,,,,,,,,,,,,,,,,,,,,,,,,,,,,,,,,,,,,,,,,,,,142.78735650599992,146.23344478000035,,,,,101821,2,3,1,2,0,1,2,0,68,2021_Oct_18_0944,listening_fmri,3.2.4,59.98920218339756,
0,parcelated_audio/31/31_18.ogg,,,,,,,,,0,0,0,0,0,0,0,0,0,0,0,0,,,,,,,,,,,,,0,0,0,0,0,17,17,17,,,,,,,,,,,,,,,,,,,,,,,,,,,,,,,,,,,,,,,,,,,,,,,,,,,,,,,,,,,,,,,,,,,,,,,,,,,,,,,,,,,,,,,,,,,,,,,,,,,,,146.23391883899967,150.94893724600024,,,,,101821,2,3,1,2,0,1,2,0,68,2021_Oct_18_0944,listening_fmri,3.2.4,59.98920218339756,
0,parcelated_audio/31/31_19.ogg,,,,,,,,,0,0,0,0,0,0,0,0,0,0,0,0,,,,,,,,,,,,,0,0,0,0,0,18,18,18,,,,,,,,,,,,,,,,,,,,,,,,,,,,,,,,,,,,,,,,,,,,,,,,,,,,,,,,,,,,,,,,,,,,,,,,,,,,,,,,,,,,,,,,,,,,,,,,,,,,,150.94928899499973,159.13958430500043,,,,,101821,2,3,1,2,0,1,2,0,68,2021_Oct_18_0944,listening_fmri,3.2.4,59.98920218339756,
0,parcelated_audio/31/31_20.ogg,,,,,,,,,0,0,0,0,0,0,0,0,0,0,0,0,,,,,,,,,,,,,0,0,0,0,0,19,19,19,,,,,,,,,,,,,,,,,,,,,,,,,,,,,,,,,,,,,,,,,,,,,,,,,,,,,,,,,,,,,,,,,,,,,,,,,,,,,,,,,,,,,,,,,,,,,,,,,,,,,159.139942281,176.97673582700008,,,,,101821,2,3,1,2,0,1,2,0,68,2021_Oct_18_0944,listening_fmri,3.2.4,59.98920218339756,
0,parcelated_audio/31/31_21.ogg,,,,,,,,,0,0,0,0,0,0,0,0,0,0,0,0,,,,,,,,,,,,,0,0,0,0,0,20,20,20,,,,,,,,,,,,,,,,,,,,,,,,,,,,,,,,,,,,,,,,,,,,,,,,,,,,,,,,,,,,,,,,,,,,,,,,,,,,,,,,,,,,,,,,,,,,,,,,,,,,,176.97709133900025,187.22468660600043,,,,,101821,2,3,1,2,0,1,2,0,68,2021_Oct_18_0944,listening_fmri,3.2.4,59.98920218339756,
0,parcelated_audio/31/31_22.ogg,,,,,,,,,0,0,0,0,0,0,0,0,0,0,0,0,,,,,,,,,,,,,0,0,0,0,0,21,21,21,,,,,,,,,,,,,,,,,,,,,,,,,,,,,,,,,,,,,,,,,,,,,,,,,,,,,,,,,,,,,,,,,,,,,,,,,,,,,,,,,,,,,,,,,,,,,,,,,,,,,187.2249580480002,192.93958951199966,,,,,101821,2,3,1,2,0,1,2,0,68,2021_Oct_18_0944,listening_fmri,3.2.4,59.98920218339756,
0,parcelated_audio/31/31_23.ogg,,,,,,,,,0,0,0,0,0,0,0,0,0,0,0,0,,,,,,,,,,,,,0,0,0,0,0,22,22,22,,,,,,,,,,,,,,,,,,,,,,,,,,,,,,,,,,,,,,,,,,,,,,,,,,,,,,,,,,,,,,,,,,,,,,,,,,,,,,,,,,,,,,,,,,,,,,,,,,,,,192.93985853600043,197.54587751500003,,,,,101821,2,3,1,2,0,1,2,0,68,2021_Oct_18_0944,listening_fmri,3.2.4,59.98920218339756,
0,parcelated_audio/31/31_24.ogg,,,,,,,,,0,0,0,0,0,0,0,0,0,0,0,0,,,,,,,,,,,,,0,0,0,0,0,23,23,23,,,,,,,,,,,,,,,,,,,,,,,,,,,,,,,,,,,,,,,,,,,,,,,,,,,,,,,,,,,,,,,,,,,,,,,,,,,,,,,,,,,,,,,,,,,,,,,,,,,,,197.54616713799987,204.4320862200002,,,,,101821,2,3,1,2,0,1,2,0,68,2021_Oct_18_0944,listening_fmri,3.2.4,59.98920218339756,
0,parcelated_audio/31/31_25.ogg,,,,,,,,,0,0,0,0,0,0,0,0,0,0,0,0,,,,,,,,,,,,,0,0,0,0,0,24,24,24,,,,,,,,,,,,,,,,,,,,,,,,,,,,,,,,,,,,,,,,,,,,,,,,,,,,,,,,,,,,,,,,,,,,,,,,,,,,,,,,,,,,,,,,,,,,,,,,,,,,,204.43236381899987,216.41999896800007,,,,,101821,2,3,1,2,0,1,2,0,68,2021_Oct_18_0944,listening_fmri,3.2.4,59.98920218339756,
0,parcelated_audio/31/31_26.ogg,,,,,,,,,0,0,0,0,0,0,0,0,0,0,0,0,,,,,,,,,,,,,0,0,0,0,0,25,25,25,,,,,,,,,,,,,,,,,,,,,,,,,,,,,,,,,,,,,,,,,,,,,,,,,,,,,,,,,,,,,,,,,,,,,,,,,,,,,,,,,,,,,,,,,,,,,,,,,,,,,216.42041284199968,223.94401778300016,,,,,101821,2,3,1,2,0,1,2,0,68,2021_Oct_18_0944,listening_fmri,3.2.4,59.98920218339756,
0,parcelated_audio/31/31_27.ogg,,,,,,,,,0,0,0,0,0,0,0,0,0,0,0,0,,,,,,,,,,,,,0,0,0,0,0,26,26,26,,,,,,,,,,,,,,,,,,,,,,,,,,,,,,,,,,,,,,,,,,,,,,,,,,,,,,,,,,,,,,,,,,,,,,,,,,,,,,,,,,,,,,,,,,,,,,,,,,,,,223.94436058799965,228.3504156729996,,,,,101821,2,3,1,2,0,1,2,0,68,2021_Oct_18_0944,listening_fmri,3.2.4,59.98920218339756,
0,parcelated_audio/31/31_28.ogg,,,,,,,,,0,0,0,0,0,0,0,0,0,0,0,0,,,,,,,,,,,,,0,0,0,0,0,27,27,27,,,,,,,,,,,,,,,,,,,,,,,,,,,,,,,,,,,,,,,,,,,,,,,,,,,,,,,,,,,,,,,,,,,,,,,,,,,,,,,,,,,,,,,,,,,,,,,,,,,,,228.35077743700003,233.36385600700032,,,,,101821,2,3,1,2,0,1,2,0,68,2021_Oct_18_0944,listening_fmri,3.2.4,59.98920218339756,
0,parcelated_audio/31/31_29.ogg,,,,,,,,,0,0,0,0,0,0,0,0,0,0,0,0,,,,,,,,,,,,,0,0,0,0,0,28,28,28,,,,,,,,,,,,,,,,,,,,,,,,,,,,,,,,,,,,,,,,,,,,,,,,,,,,,,,,,,,,,,,,,,,,,,,,,,,,,,,,,,,,,,,,,,,,,,,,,,,,,233.36420988200007,237.710016086,,,,,101821,2,3,1,2,0,1,2,0,68,2021_Oct_18_0944,listening_fmri,3.2.4,59.98920218339756,
0,parcelated_audio/31/31_30.ogg,,,,,,,,,0,0,0,0,0,0,0,0,0,0,0,0,,,,,,,,,,,,,0,0,0,0,0,29,29,29,,,,,,,,,,,,,,,,,,,,,,,,,,,,,,,,,,,,,,,,,,,,,,,,,,,,,,,,,,,,,,,,,,,,,,,,,,,,,,,,,,,,,,,,,,,,,,,,,,,,,237.71036823800023,241.4780292739997,,,,,101821,2,3,1,2,0,1,2,0,68,2021_Oct_18_0944,listening_fmri,3.2.4,59.98920218339756,
0,parcelated_audio/31/31_31.ogg,,,,,,,,,0,0,0,0,0,0,0,0,0,0,0,0,,,,,,,,,,,,,0,0,0,0,0,30,30,30,,,,,,,,,,,,,,,,,,,,,,,,,,,,,,,,,,,,,,,,,,,,,,,,,,,,,,,,,,,,,,,,,,,,,,,,,,,,,,,,,,,,,,,,,,,,,,,,,,,,,241.47847887100033,247.54887216600036,,,,,101821,2,3,1,2,0,1,2,0,68,2021_Oct_18_0944,listening_fmri,3.2.4,59.98920218339756,
0,parcelated_audio/31/31_32.ogg,,,,,,,,,0,0,0,0,0,0,0,0,0,0,0,0,,,,,,,,,,,,,0,0,0,0,0,31,31,31,,,,,,,,,,,,,,,,,,,,,,,,,,,,,,,,,,,,,,,,,,,,,,,,,,,,,,,,,,,,,,,,,,,,,,,,,,,,,,,,,,,,,,,,,,,,,,,,,,,,,247.54913207000027,257.5129415649999,,,,,101821,2,3,1,2,0,1,2,0,68,2021_Oct_18_0944,listening_fmri,3.2.4,59.98920218339756,
0,parcelated_audio/31/31_33.ogg,,,,,,,,,0,0,0,0,0,0,0,0,0,0,0,0,,,,,,,,,,,,,0,0,0,0,0,32,32,32,,,,,,,,,,,,,,,,,,,,,,,,,,,,,,,,,,,,,,,,,,,,,,,,,,,,,,,,,,,,,,,,,,,,,,,,,,,,,,,,,,,,,,,,,,,,,,,,,,,,,257.51329542700023,265.8796697099997,,,,,101821,2,3,1,2,0,1,2,0,68,2021_Oct_18_0944,listening_fmri,3.2.4,59.98920218339756,
0,parcelated_audio/31/31_34.ogg,,,,,,,,,0,0,0,0,0,0,0,0,0,0,0,0,,,,,,,,,,,,,0,0,0,0,0,33,33,33,,,,,,,,,,,,,,,,,,,,,,,,,,,,,,,,,,,,,,,,,,,,,,,,,,,,,,,,,,,,,,,,,,,,,,,,,,,,,,,,,,,,,,,,,,,,,,,,,,,,,265.8801446360003,270.26163332299984,,,,,101821,2,3,1,2,0,1,2,0,68,2021_Oct_18_0944,listening_fmri,3.2.4,59.98920218339756,
0,parcelated_audio/31/31_35.ogg,,,,,,,,,0,0,0,0,0,0,0,0,0,0,0,0,,,,,,,,,,,,,0,0,0,0,0,34,34,34,,,,,,,,,,,,,,,,,,,,,,,,,,,,,,,,,,,,,,,,,,,,,,,,,,,,,,,,,,,,,,,,,,,,,,,,,,,,,,,,,,,,,,,,,,,,,,,,,,,,,270.2619571519999,276.02019407100033,,,,,101821,2,3,1,2,0,1,2,0,68,2021_Oct_18_0944,listening_fmri,3.2.4,59.98920218339756,
0,parcelated_audio/31/31_36.ogg,,,,,,,,,0,0,0,0,0,0,0,0,0,0,0,0,,,,,,,,,,,,,0,0,0,0,0,35,35,35,,,,,,,,,,,,,,,,,,,,,,,,,,,,,,,,,,,,,,,,,,,,,,,,,,,,,,,,,,,,,,,,,,,,,,,,,,,,,,,,,,,,,,,,,,,,,,,,,,,,,276.02046141899973,282.3407017460004,,,,,101821,2,3,1,2,0,1,2,0,68,2021_Oct_18_0944,listening_fmri,3.2.4,59.98920218339756,
0,,,,,,,,,,0,0,0,0,0,0,0,0,0,0,0,0,,,,,,,,,,,,,0,0,0,0,,,,,,,,,,,,,,,,,,,,,,,,,,,,,,,,,,,,,,,,,,,,,,,,,,,,,,,,,,,,,,,,,,,,,,,,,,,,,,,,,,,,,,,,,,,,,,,,,,,,,,,,,,,,,,,101821,2,3,1,2,0,1,2,0,68,2021_Oct_18_0944,listening_fmri,3.2.4,59.98920218339756,
0,,,,,,,,,,0,0,0,0,0,0,0,0,0,0,0,0,,,,,,,,,,,,,,,,,,,,,,,,,,,,,,,,,,,,,,282.34108162899975,288.3317023460004,342.57614801599993,None,,,,,,,,,,,,,,,,,,,,,,,,,,,,,,,,,,,,,,,,,,,,,,,,,,,,,,,,,,,,,,,,,,,,,,,,,,,,,,,,,,348.5796354628002,None,348.5796354628002,None,101821,2,3,1,2,0,1,2,0,68,2021_Oct_18_0944,listening_fmri,3.2.4,59.98920218339756,
0,,,,,,,,,,0,0,0,0,0,0,0,0,,,,,,,,,,,,,,,,,,,,,,,,,,,,,,,,,,,,,,,,,,,,,,,,,,,,,,,,,,,,,,,,,,,,,,,,,,,,,,,,,,,,,,,,,,,,,,,,,,,,,,,,,,,,,,,,,,,,,,,,,,,,,,,,,,,101821,2,3,1,2,0,1,2,0,68,2021_Oct_18_0944,listening_fmri,3.2.4,59.98920218339756,
1,,,,,,,,,,0,0,0,0,0,1,1,1,,,,,,,,,,,,,,,,,,,,,,,,,,,,,,,,,,,,,,,,,,,,,,,,,,,,,,,,,,,,,,,,,,,,,,,,,,,,,,,,,,,,,,,,,,,,,,,,,,,,,,,,,,,,,,,,,,,,,,,,,,,,,,,,,,,101821,2,3,1,2,0,1,2,0,68,2021_Oct_18_0944,listening_fmri,3.2.4,59.98920218339756,
2,parcelated_audio/11/11_1.ogg,,,,,,,,,0,0,0,0,0,2,2,2,0,0,0,0,,,,,,,,,,,,,0,0,0,0,0,0,0,0,,,,,,,,,,,,,,,,,,,,,,348.59733845400024,None,348.59733845400024,None,6,1.3146191410005486,348.59733845400024,None,348.59733845400024,None,,,,,,,,,,,,,,,,,,,,,,,,,,,,,,,,,,,,,,,,,,,,,,,,,,,,,,,,,,,,,,349.93064712999967,None,6,1.9833170769998105,349.93064712999967,None,291.6911335149998,294.699081275,294.7082127350004,306.78382330299974,,,,,101821,2,3,1,2,0,1,2,0,68,2021_Oct_18_0944,listening_fmri,3.2.4,59.98920218339756,
2,parcelated_audio/11/11_2.ogg,,,,,,,,,0,0,0,0,0,2,2,2,0,0,0,0,,,,,,,,,,,,,0,0,0,0,0,1,1,1,,,,,,,,,,,,,,,,,,,,,,,,,,,,,,,,,,,,,,,,,,,,,,,,,,,,,,,,,,,,,,,,,,,,,,,,,,,,,,,,,,,,,,,,,,,,,,,,,,,,,306.7841762850003,311.26394782199986,,,,,101821,2,3,1,2,0,1,2,0,68,2021_Oct_18_0944,listening_fmri,3.2.4,59.98920218339756,
2,parcelated_audio/11/11_3.ogg,,,,,,,,,0,0,0,0,0,2,2,2,0,0,0,0,,,,,,,,,,,,,0,0,0,0,0,2,2,2,,,,,,,,,,,,,,,,,,,,,,,,,,,,,,,,,,,,,,,,,,,,,,,,,,,,,,,,,,,,,,,,,,,,,,,,,,,,,,,,,,,,,,,,,,,,,,,,,,,,,311.26430467499995,316.26191386200026,,,,,101821,2,3,1,2,0,1,2,0,68,2021_Oct_18_0944,listening_fmri,3.2.4,59.98920218339756,
2,parcelated_audio/11/11_4.ogg,,,,,,,,,0,0,0,0,0,2,2,2,0,0,0,0,,,,,,,,,,,,,0,0,0,0,0,3,3,3,,,,,,,,,,,,,,,,,,,,,,,,,,,,,,,,,,,,,,,,,,,,,,,,,,,,,,,,,,,,,,,,,,,,,,,,,,,,,,,,,,,,,,,,,,,,,,,,,,,,,316.2622935649997,325.3519520310001,,,,,101821,2,3,1,2,0,1,2,0,68,2021_Oct_18_0944,listening_fmri,3.2.4,59.98920218339756,
2,parcelated_audio/11/11_5.ogg,,,,,,,,,0,0,0,0,0,2,2,2,0,0,0,0,,,,,,,,,,,,,0,0,0,0,0,4,4,4,,,,,,,,,,,,,,,,,,,,,,,,,,,,,,,,,,,,,,,,,,,,,,,,,,,,,,,,,,,,,,,,,,,,,,,,,,,,,,,,,,,,,,,,,,,,,,,,,,,,,325.3524031759998,331.11461750299986,,,,,101821,2,3,1,2,0,1,2,0,68,2021_Oct_18_0944,listening_fmri,3.2.4,59.98920218339756,
2,parcelated_audio/11/11_6.ogg,,,,,,,,,0,0,0,0,0,2,2,2,0,0,0,0,,,,,,,,,,,,,0,0,0,0,0,5,5,5,,,,,,,,,,,,,,,,,,,,,,,,,,,,,,,,,,,,,,,,,,,,,,,,,,,,,,,,,,,,,,,,,,,,,,,,,,,,,,,,,,,,,,,,,,,,,,,,,,,,,331.1148772160004,335.70361403599964,,,,,101821,2,3,1,2,0,1,2,0,68,2021_Oct_18_0944,listening_fmri,3.2.4,59.98920218339756,
2,parcelated_audio/11/11_7.ogg,,,,,,,,,0,0,0,0,0,2,2,2,0,0,0,0,,,,,,,,,,,,,0,0,0,0,0,6,6,6,,,,,,,,,,,,,,,,,,,,,,,,,,,,,,,,,,,,,,,,,,,,,,,,,,,,,,,,,,,,,,,,,,,,,,,,,,,,,,,,,,,,,,,,,,,,,,,,,,,,,335.7038907690003,342.2433902519997,,,,,101821,2,3,1,2,0,1,2,0,68,2021_Oct_18_0944,listening_fmri,3.2.4,59.98920218339756,
2,parcelated_audio/11/11_8.ogg,,,,,,,,,0,0,0,0,0,2,2,2,0,0,0,0,,,,,,,,,,,,,0,0,0,0,0,7,7,7,,,,,,,,,,,,,,,,,,,,,,,,,,,,,,,,,,,,,,,,,,,,,,,,,,,,,,,,,,,,,,,,,,,,,,,,,,,,,,,,,,,,,,,,,,,,,,,,,,,,,342.2436630960001,348.02699357799975,,,,,101821,2,3,1,2,0,1,2,0,68,2021_Oct_18_0944,listening_fmri,3.2.4,59.98920218339756,
2,parcelated_audio/11/11_9.ogg,,,,,,,,,0,0,0,0,0,2,2,2,0,0,0,0,,,,,,,,,,,,,0,0,0,0,0,8,8,8,,,,,,,,,,,,,,,,,,,,,,,,,,,,,,,,,,,,,,,,,,,,,,,,,,,,,,,,,,,,,,,,,,,,,,,,,,,,,,,,,,,,,,,,,,,,,,,,,,,,,348.02737477699975,352.32860194600016,,,,,101821,2,3,1,2,0,1,2,0,68,2021_Oct_18_0944,listening_fmri,3.2.4,59.98920218339756,
2,parcelated_audio/11/11_10.ogg,,,,,,,,,0,0,0,0,0,2,2,2,0,0,0,0,,,,,,,,,,,,,0,0,0,0,0,9,9,9,,,,,,,,,,,,,,,,,,,,,,,,,,,,,,,,,,,,,,,,,,,,,,,,,,,,,,,,,,,,,,,,,,,,,,,,,,,,,,,,,,,,,,,,,,,,,,,,,,,,,352.32887890799975,356.9008476150002,,,,,101821,2,3,1,2,0,1,2,0,68,2021_Oct_18_0944,listening_fmri,3.2.4,59.98920218339756,
2,parcelated_audio/11/11_11.ogg,,,,,,,,,0,0,0,0,0,2,2,2,0,0,0,0,,,,,,,,,,,,,0,0,0,0,0,10,10,10,,,,,,,,,,,,,,,,,,,,,,,,,,,,,,,,,,,,,,,,,,,,,,,,,,,,,,,,,,,,,,,,,,,,,,,,,,,,,,,,,,,,,,,,,,,,,,,,,,,,,356.90112198299994,360.0764240660001,,,,,101821,2,3,1,2,0,1,2,0,68,2021_Oct_18_0944,listening_fmri,3.2.4,59.98920218339756,
2,parcelated_audio/11/11_12.ogg,,,,,,,,,0,0,0,0,0,2,2,2,0,0,0,0,,,,,,,,,,,,,0,0,0,0,0,11,11,11,,,,,,,,,,,,,,,,,,,,,,,,,,,,,,,,,,,,,,,,,,,,,,,,,,,,,,,,,,,,,,,,,,,,,,,,,,,,,,,,,,,,,,,,,,,,,,,,,,,,,360.076839028,362.90745561899985,,,,,101821,2,3,1,2,0,1,2,0,68,2021_Oct_18_0944,listening_fmri,3.2.4,59.98920218339756,
2,parcelated_audio/11/11_13.ogg,,,,,,,,,0,0,0,0,0,2,2,2,0,0,0,0,,,,,,,,,,,,,0,0,0,0,0,12,12,12,,,,,,,,,,,,,,,,,,,,,,,,,,,,,,,,,,,,,,,,,,,,,,,,,,,,,,,,,,,,,,,,,,,,,,,,,,,,,,,,,,,,,,,,,,,,,,,,,,,,,362.9077354350002,366.2217037339997,,,,,101821,2,3,1,2,0,1,2,0,68,2021_Oct_18_0944,listening_fmri,3.2.4,59.98920218339756,
2,parcelated_audio/11/11_14.ogg,,,,,,,,,0,0,0,0,0,2,2,2,0,0,0,0,,,,,,,,,,,,,0,0,0,0,0,13,13,13,,,,,,,,,,,,,,,,,,,,,,,,,,,,,,,,,,,,,,,,,,,,,,,,,,,,,,,,,,,,,,,,,,,,,,,,,,,,,,,,,,,,,,,,,,,,,,,,,,,,,366.22203511800035,368.9150309099996,,,,,101821,2,3,1,2,0,1,2,0,68,2021_Oct_18_0944,listening_fmri,3.2.4,59.98920218339756,
2,parcelated_audio/11/11_15.ogg,,,,,,,,,0,0,0,0,0,2,2,2,0,0,0,0,,,,,,,,,,,,,0,0,0,0,0,14,14,14,,,,,,,,,,,,,,,,,,,,,,,,,,,,,,,,,,,,,,,,,,,,,,,,,,,,,,,,,,,,,,,,,,,,,,,,,,,,,,,,,,,,,,,,,,,,,,,,,,,,,368.91530548100036,380.0948478150003,,,,,101821,2,3,1,2,0,1,2,0,68,2021_Oct_18_0944,listening_fmri,3.2.4,59.98920218339756,
2,parcelated_audio/11/11_16.ogg,,,,,,,,,0,0,0,0,0,2,2,2,0,0,0,0,,,,,,,,,,,,,0,0,0,0,0,15,15,15,,,,,,,,,,,,,,,,,,,,,,,,,,,,,,,,,,,,,,,,,,,,,,,,,,,,,,,,,,,,,,,,,,,,,,,,,,,,,,,,,,,,,,,,,,,,,,,,,,,,,380.0952045949998,383.0965459099998,,,,,101821,2,3,1,2,0,1,2,0,68,2021_Oct_18_0944,listening_fmri,3.2.4,59.98920218339756,
2,parcelated_audio/11/11_17.ogg,,,,,,,,,0,0,0,0,0,2,2,2,0,0,0,0,,,,,,,,,,,,,0,0,0,0,0,16,16,16,,,,,,,,,,,,,,,,,,,,,,,,,,,,,,,,,,,,,,,,,,,,,,,,,,,,,,,,,,,,,,,,,,,,,,,,,,,,,,,,,,,,,,,,,,,,,,,,,,,,,383.0969020430002,390.07780652699967,,,,,101821,2,3,1,2,0,1,2,0,68,2021_Oct_18_0944,listening_fmri,3.2.4,59.98920218339756,
2,parcelated_audio/11/11_18.ogg,,,,,,,,,0,0,0,0,0,2,2,2,0,0,0,0,,,,,,,,,,,,,0,0,0,0,0,17,17,17,,,,,,,,,,,,,,,,,,,,,,,,,,,,,,,,,,,,,,,,,,,,,,,,,,,,,,,,,,,,,,,,,,,,,,,,,,,,,,,,,,,,,,,,,,,,,,,,,,,,,390.07818523199967,397.6379583859998,,,,,101821,2,3,1,2,0,1,2,0,68,2021_Oct_18_0944,listening_fmri,3.2.4,59.98920218339756,
2,parcelated_audio/11/11_19.ogg,,,,,,,,,0,0,0,0,0,2,2,2,0,0,0,0,,,,,,,,,,,,,0,0,0,0,0,18,18,18,,,,,,,,,,,,,,,,,,,,,,,,,,,,,,,,,,,,,,,,,,,,,,,,,,,,,,,,,,,,,,,,,,,,,,,,,,,,,,,,,,,,,,,,,,,,,,,,,,,,,397.6382299759998,402.30234757499966,,,,,101821,2,3,1,2,0,1,2,0,68,2021_Oct_18_0944,listening_fmri,3.2.4,59.98920218339756,
2,parcelated_audio/11/11_20.ogg,,,,,,,,,0,0,0,0,0,2,2,2,0,0,0,0,,,,,,,,,,,,,0,0,0,0,0,19,19,19,,,,,,,,,,,,,,,,,,,,,,,,,,,,,,,,,,,,,,,,,,,,,,,,,,,,,,,,,,,,,,,,,,,,,,,,,,,,,,,,,,,,,,,,,,,,,,,,,,,,,402.302698128,407.25838227199984,,,,,101821,2,3,1,2,0,1,2,0,68,2021_Oct_18_0944,listening_fmri,3.2.4,59.98920218339756,
2,parcelated_audio/11/11_21.ogg,,,,,,,,,0,0,0,0,0,2,2,2,0,0,0,0,,,,,,,,,,,,,0,0,0,0,0,20,20,20,,,,,,,,,,,,,,,,,,,,,,,,,,,,,,,,,,,,,,,,,,,,,,,,,,,,,,,,,,,,,,,,,,,,,,,,,,,,,,,,,,,,,,,,,,,,,,,,,,,,,407.25869274399975,416.0302948999997,,,,,101821,2,3,1,2,0,1,2,0,68,2021_Oct_18_0944,listening_fmri,3.2.4,59.98920218339756,
2,parcelated_audio/11/11_22.ogg,,,,,,,,,0,0,0,0,0,2,2,2,0,0,0,0,,,,,,,,,,,,,0,0,0,0,0,21,21,21,,,,,,,,,,,,,,,,,,,,,,,,,,,,,,,,,,,,,,,,,,,,,,,,,,,,,,,,,,,,,,,,,,,,,,,,,,,,,,,,,,,,,,,,,,,,,,,,,,,,,416.0307561210002,419.3155998680004,,,,,101821,2,3,1,2,0,1,2,0,68,2021_Oct_18_0944,listening_fmri,3.2.4,59.98920218339756,
2,parcelated_audio/11/11_23.ogg,,,,,,,,,0,0,0,0,0,2,2,2,0,0,0,0,,,,,,,,,,,,,0,0,0,0,0,22,22,22,,,,,,,,,,,,,,,,,,,,,,,,,,,,,,,,,,,,,,,,,,,,,,,,,,,,,,,,,,,,,,,,,,,,,,,,,,,,,,,,,,,,,,,,,,,,,,,,,,,,,419.31604458699985,424.09681789299975,,,,,101821,2,3,1,2,0,1,2,0,68,2021_Oct_18_0944,listening_fmri,3.2.4,59.98920218339756,
2,parcelated_audio/11/11_24.ogg,,,,,,,,,0,0,0,0,0,2,2,2,0,0,0,0,,,,,,,,,,,,,0,0,0,0,0,23,23,23,,,,,,,,,,,,,,,,,,,,,,,,,,,,,,,,,,,,,,,,,,,,,,,,,,,,,,,,,,,,,,,,,,,,,,,,,,,,,,,,,,,,,,,,,,,,,,,,,,,,,424.0971854879999,427.72374324700013,,,,,101821,2,3,1,2,0,1,2,0,68,2021_Oct_18_0944,listening_fmri,3.2.4,59.98920218339756,
2,parcelated_audio/11/11_25.ogg,,,,,,,,,0,0,0,0,0,2,2,2,0,0,0,0,,,,,,,,,,,,,0,0,0,0,0,24,24,24,,,,,,,,,,,,,,,,,,,,,,,,,,,,,,,,,,,,,,,,,,,,,,,,,,,,,,,,,,,,,,,,,,,,,,,,,,,,,,,,,,,,,,,,,,,,,,,,,,,,,427.7243016319999,432.46469358099966,,,,,101821,2,3,1,2,0,1,2,0,68,2021_Oct_18_0944,listening_fmri,3.2.4,59.98920218339756,
2,parcelated_audio/11/11_26.ogg,,,,,,,,,0,0,0,0,0,2,2,2,0,0,0,0,,,,,,,,,,,,,0,0,0,0,0,25,25,25,,,,,,,,,,,,,,,,,,,,,,,,,,,,,,,,,,,,,,,,,,,,,,,,,,,,,,,,,,,,,,,,,,,,,,,,,,,,,,,,,,,,,,,,,,,,,,,,,,,,,432.4650451810003,437.44857628299997,,,,,101821,2,3,1,2,0,1,2,0,68,2021_Oct_18_0944,listening_fmri,3.2.4,59.98920218339756,
2,parcelated_audio/11/11_27.ogg,,,,,,,,,0,0,0,0,0,2,2,2,0,0,0,0,,,,,,,,,,,,,0,0,0,0,0,26,26,26,,,,,,,,,,,,,,,,,,,,,,,,,,,,,,,,,,,,,,,,,,,,,,,,,,,,,,,,,,,,,,,,,,,,,,,,,,,,,,,,,,,,,,,,,,,,,,,,,,,,,437.44928746799997,441.4254921470001,,,,,101821,2,3,1,2,0,1,2,0,68,2021_Oct_18_0944,listening_fmri,3.2.4,59.98920218339756,
2,parcelated_audio/11/11_28.ogg,,,,,,,,,0,0,0,0,0,2,2,2,0,0,0,0,,,,,,,,,,,,,0,0,0,0,0,27,27,27,,,,,,,,,,,,,,,,,,,,,,,,,,,,,,,,,,,,,,,,,,,,,,,,,,,,,,,,,,,,,,,,,,,,,,,,,,,,,,,,,,,,,,,,,,,,,,,,,,,,,441.4258615110002,444.8381746639998,,,,,101821,2,3,1,2,0,1,2,0,68,2021_Oct_18_0944,listening_fmri,3.2.4,59.98920218339756,
2,parcelated_audio/11/11_29.ogg,,,,,,,,,0,0,0,0,0,2,2,2,0,0,0,0,,,,,,,,,,,,,0,0,0,0,0,28,28,28,,,,,,,,,,,,,,,,,,,,,,,,,,,,,,,,,,,,,,,,,,,,,,,,,,,,,,,,,,,,,,,,,,,,,,,,,,,,,,,,,,,,,,,,,,,,,,,,,,,,,444.8388903289997,449.0224344019998,,,,,101821,2,3,1,2,0,1,2,0,68,2021_Oct_18_0944,listening_fmri,3.2.4,59.98920218339756,
2,parcelated_audio/11/11_30.ogg,,,,,,,,,0,0,0,0,0,2,2,2,0,0,0,0,,,,,,,,,,,,,0,0,0,0,0,29,29,29,,,,,,,,,,,,,,,,,,,,,,,,,,,,,,,,,,,,,,,,,,,,,,,,,,,,,,,,,,,,,,,,,,,,,,,,,,,,,,,,,,,,,,,,,,,,,,,,,,,,,449.0227476979999,453.53680839699973,,,,,101821,2,3,1,2,0,1,2,0,68,2021_Oct_18_0944,listening_fmri,3.2.4,59.98920218339756,
2,parcelated_audio/11/11_31.ogg,,,,,,,,,0,0,0,0,0,2,2,2,0,0,0,0,,,,,,,,,,,,,0,0,0,0,0,30,30,30,,,,,,,,,,,,,,,,,,,,,,,,,,,,,,,,,,,,,,,,,,,,,,,,,,,,,,,,,,,,,,,,,,,,,,,,,,,,,,,,,,,,,,,,,,,,,,,,,,,,,453.5372474019996,458.3955090039999,,,,,101821,2,3,1,2,0,1,2,0,68,2021_Oct_18_0944,listening_fmri,3.2.4,59.98920218339756,
2,parcelated_audio/11/11_32.ogg,,,,,,,,,0,0,0,0,0,2,2,2,0,0,0,0,,,,,,,,,,,,,0,0,0,0,0,31,31,31,,,,,,,,,,,,,,,,,,,,,,,,,,,,,,,,,,,,,,,,,,,,,,,,,,,,,,,,,,,,,,,,,,,,,,,,,,,,,,,,,,,,,,,,,,,,,,,,,,,,,458.395759862,462.4615387980002,,,,,101821,2,3,1,2,0,1,2,0,68,2021_Oct_18_0944,listening_fmri,3.2.4,59.98920218339756,
2,parcelated_audio/11/11_33.ogg,,,,,,,,,0,0,0,0,0,2,2,2,0,0,0,0,,,,,,,,,,,,,0,0,0,0,0,32,32,32,,,,,,,,,,,,,,,,,,,,,,,,,,,,,,,,,,,,,,,,,,,,,,,,,,,,,,,,,,,,,,,,,,,,,,,,,,,,,,,,,,,,,,,,,,,,,,,,,,,,,462.4618398720004,464.99208121300035,,,,,101821,2,3,1,2,0,1,2,0,68,2021_Oct_18_0944,listening_fmri,3.2.4,59.98920218339756,
2,parcelated_audio/11/11_34.ogg,,,,,,,,,0,0,0,0,0,2,2,2,0,0,0,0,,,,,,,,,,,,,0,0,0,0,0,33,33,33,,,,,,,,,,,,,,,,,,,,,,,,,,,,,,,,,,,,,,,,,,,,,,,,,,,,,,,,,,,,,,,,,,,,,,,,,,,,,,,,,,,,,,,,,,,,,,,,,,,,,464.99243565600045,468.29915404999974,,,,,101821,2,3,1,2,0,1,2,0,68,2021_Oct_18_0944,listening_fmri,3.2.4,59.98920218339756,
2,parcelated_audio/11/11_35.ogg,,,,,,,,,0,0,0,0,0,2,2,2,0,0,0,0,,,,,,,,,,,,,0,0,0,0,0,34,34,34,,,,,,,,,,,,,,,,,,,,,,,,,,,,,,,,,,,,,,,,,,,,,,,,,,,,,,,,,,,,,,,,,,,,,,,,,,,,,,,,,,,,,,,,,,,,,,,,,,,,,468.2994284610004,472.66213972100013,,,,,101821,2,3,1,2,0,1,2,0,68,2021_Oct_18_0944,listening_fmri,3.2.4,59.98920218339756,
2,parcelated_audio/11/11_36.ogg,,,,,,,,,0,0,0,0,0,2,2,2,0,0,0,0,,,,,,,,,,,,,0,0,0,0,0,35,35,35,,,,,,,,,,,,,,,,,,,,,,,,,,,,,,,,,,,,,,,,,,,,,,,,,,,,,,,,,,,,,,,,,,,,,,,,,,,,,,,,,,,,,,,,,,,,,,,,,,,,,472.66254907300026,481.6806335700003,,,,,101821,2,3,1,2,0,1,2,0,68,2021_Oct_18_0944,listening_fmri,3.2.4,59.98920218339756,
2,parcelated_audio/11/11_37.ogg,,,,,,,,,0,0,0,0,0,2,2,2,0,0,0,0,,,,,,,,,,,,,0,0,0,0,0,36,36,36,,,,,,,,,,,,,,,,,,,,,,,,,,,,,,,,,,,,,,,,,,,,,,,,,,,,,,,,,,,,,,,,,,,,,,,,,,,,,,,,,,,,,,,,,,,,,,,,,,,,,481.68094843200015,485.87581993999993,,,,,101821,2,3,1,2,0,1,2,0,68,2021_Oct_18_0944,listening_fmri,3.2.4,59.98920218339756,
2,parcelated_audio/11/11_38.ogg,,,,,,,,,0,0,0,0,0,2,2,2,0,0,0,0,,,,,,,,,,,,,0,0,0,0,0,37,37,37,,,,,,,,,,,,,,,,,,,,,,,,,,,,,,,,,,,,,,,,,,,,,,,,,,,,,,,,,,,,,,,,,,,,,,,,,,,,,,,,,,,,,,,,,,,,,,,,,,,,,485.876185827,492.1316947969999,,,,,101821,2,3,1,2,0,1,2,0,68,2021_Oct_18_0944,listening_fmri,3.2.4,59.98920218339756,
2,parcelated_audio/11/11_39.ogg,,,,,,,,,0,0,0,0,0,2,2,2,0,0,0,0,,,,,,,,,,,,,0,0,0,0,0,38,38,38,,,,,,,,,,,,,,,,,,,,,,,,,,,,,,,,,,,,,,,,,,,,,,,,,,,,,,,,,,,,,,,,,,,,,,,,,,,,,,,,,,,,,,,,,,,,,,,,,,,,,492.13274839299993,497.3179912300002,,,,,101821,2,3,1,2,0,1,2,0,68,2021_Oct_18_0944,listening_fmri,3.2.4,59.98920218339756,
2,parcelated_audio/11/11_40.ogg,,,,,,,,,0,0,0,0,0,2,2,2,0,0,0,0,,,,,,,,,,,,,0,0,0,0,0,39,39,39,,,,,,,,,,,,,,,,,,,,,,,,,,,,,,,,,,,,,,,,,,,,,,,,,,,,,,,,,,,,,,,,,,,,,,,,,,,,,,,,,,,,,,,,,,,,,,,,,,,,,497.31853060899994,503.0798078600001,,,,,101821,2,3,1,2,0,1,2,0,68,2021_Oct_18_0944,listening_fmri,3.2.4,59.98920218339756,
2,parcelated_audio/11/11_41.ogg,,,,,,,,,0,0,0,0,0,2,2,2,0,0,0,0,,,,,,,,,,,,,0,0,0,0,0,40,40,40,,,,,,,,,,,,,,,,,,,,,,,,,,,,,,,,,,,,,,,,,,,,,,,,,,,,,,,,,,,,,,,,,,,,,,,,,,,,,,,,,,,,,,,,,,,,,,,,,,,,,503.0801578589999,509.224978446,,,,,101821,2,3,1,2,0,1,2,0,68,2021_Oct_18_0944,listening_fmri,3.2.4,59.98920218339756,
2,,,,,,,,,,0,0,0,0,0,2,2,2,0,0,0,0,,,,,,,,,,,,,0,0,0,0,,,,,,,,,,,,,,,,,,,,,,,,,,,,,,,,,,,,,,,,,,,,,,,,,,,,,,,,,,,,,,,,,,,,,,,,,,,,,,,,,,,,,,,,,,,,,,,,,,,,,,,,,,,,,,,101821,2,3,1,2,0,1,2,0,68,2021_Oct_18_0944,listening_fmri,3.2.4,59.98920218339756,
2,,,,,,,,,,0,0,0,0,0,2,2,2,0,0,0,0,,,,,,,,,,,,,,,,,,,,,,,,,,,,,,,,,,,,,,509.2254671999999,515.225316346,569.4642624569997,None,,,,,,,,,,,,,,,,,,,,,,,,,,,,,,,,,,,,,,,,,,,,,,,,,,,,,,,,,,,,,,,,,,,,,,,,,,,,,,,,,,575.4732856297998,None,575.4732856297998,None,101821,2,3,1,2,0,1,2,0,68,2021_Oct_18_0944,listening_fmri,3.2.4,59.98920218339756,
2,,,,,,,,,,0,0,0,0,0,2,2,2,,,,,,,,,,,,,,,,,,,,,,,,,,,,,,,,,,,,,,,,,,,,,,,,,,,,,,,,,,,,,,,,,,,,,,,,,,,,,,,,,,,,,,,,,,,,,,,,,,,,,,,,,,,,,,,,,,,,,,,,,,,,,,,,,,,101821,2,3,1,2,0,1,2,0,68,2021_Oct_18_0944,listening_fmri,3.2.4,59.98920218339756,
3,,,,,,,,,,0,0,0,0,0,3,3,3,0,0,0,0,0,0,0,0,0,0,0,0,,,,,,,,,,,,,,,,,,,,,,,,,,,,,,,,,,575.4903289160002,None,575.4903289160002,None,6,1.3257858849992772,575.4903289160002,None,575.4903289160002,None,576.846698716,None,6,2.0564312280002923,576.846698716,None,576.846698716,None,578.9476186419997,None,578.9476186419997,None,578.9476186419997,None,6,2.2673617050004395,578.9476186419997,None,581.2476132689999,None,6,1.9485074369995345,581.2476132689999,None,581.2476132689999,None,583.2894362799998,None,583.2894362799998,None,583.2894362799998,None,583.2894362799998,None,583.2894362799998,None,583.2894362799998,None,583.2894362799998,None,None,583.2894362799998,None,,,,,,,,,,,,,,,,,,,,,,,,,,,,,,,,,101821,2,3,1,2,0,1,2,0,68,2021_Oct_18_0944,listening_fmri,3.2.4,59.98920218339756,
3,,,,,,,,,,0,0,0,0,0,3,3,3,0,0,0,0,0,0,0,0,,,,,,,,,,,,,,,,,,,,,,,,,,,,,,,,,,,,,,,,,,,,,,,,,,,,,,,,,,,,,,,,,,,,,,,,,,,,,,,,,,,,,,,,,,,597.8475314959996,None,6,2.3576026310001907,597.8475314959996,None,597.8475314959996,None,600.2565530339998,None,600.2565530339998,None,600.2565530339998,None,6,1.930551170000399,600.2565530339998,None,,,,,,,,,,,,,,,101821,2,3,1,2,0,1,2,0,68,2021_Oct_18_0944,listening_fmri,3.2.4,59.98920218339756,
3,parcelated_audio/22/22_1.ogg,,,,,,,,,0,0,0,0,0,3,3,3,0,0,0,0,,,,,,,,,,,,,0,0,0,0,0,0,0,0,,,,,,,,,,,,,,,,,,,,,,,,,,,,,,,,,,,,,,,,,,,,,,,,,,,,,,,,,,,,,,,,,,,,,,,,,,,,,,,,,,,,,,,,,,,,,602.1971319710001,None,1,1.9348622850002357,602.1971319710001,None,543.9229102939998,546.9322418060001,546.9404863239997,559.979474109,,,,,101821,2,3,1,2,0,1,2,0,68,2021_Oct_18_0944,listening_fmri,3.2.4,59.98920218339756,
3,parcelated_audio/22/22_2.ogg,,,,,,,,,0,0,0,0,0,3,3,3,0,0,0,0,,,,,,,,,,,,,0,0,0,0,0,1,1,1,,,,,,,,,,,,,,,,,,,,,,,,,,,,,,,,,,,,,,,,,,,,,,,,,,,,,,,,,,,,,,,,,,,,,,,,,,,,,,,,,,,,,,,,,,,,,,,,,,,,,559.9797953269999,566.3608778589996,,,,,101821,2,3,1,2,0,1,2,0,68,2021_Oct_18_0944,listening_fmri,3.2.4,59.98920218339756,
3,parcelated_audio/22/22_3.ogg,,,,,,,,,0,0,0,0,0,3,3,3,0,0,0,0,,,,,,,,,,,,,0,0,0,0,0,2,2,2,,,,,,,,,,,,,,,,,,,,,,,,,,,,,,,,,,,,,,,,,,,,,,,,,,,,,,,,,,,,,,,,,,,,,,,,,,,,,,,,,,,,,,,,,,,,,,,,,,,,,566.3621988790001,579.2783166620002,,,,,101821,2,3,1,2,0,1,2,0,68,2021_Oct_18_0944,listening_fmri,3.2.4,59.98920218339756,
3,parcelated_audio/22/22_4.ogg,,,,,,,,,0,0,0,0,0,3,3,3,0,0,0,0,,,,,,,,,,,,,0,0,0,0,0,3,3,3,,,,,,,,,,,,,,,,,,,,,,,,,,,,,,,,,,,,,,,,,,,,,,,,,,,,,,,,,,,,,,,,,,,,,,,,,,,,,,,,,,,,,,,,,,,,,,,,,,,,,579.2786698070004,591.6939835499998,,,,,101821,2,3,1,2,0,1,2,0,68,2021_Oct_18_0944,listening_fmri,3.2.4,59.98920218339756,
3,parcelated_audio/22/22_5.ogg,,,,,,,,,0,0,0,0,0,3,3,3,0,0,0,0,,,,,,,,,,,,,0,0,0,0,0,4,4,4,,,,,,,,,,,,,,,,,,,,,,,,,,,,,,,,,,,,,,,,,,,,,,,,,,,,,,,,,,,,,,,,,,,,,,,,,,,,,,,,,,,,,,,,,,,,,,,,,,,,,591.6943327130002,597.627037665,,,,,101821,2,3,1,2,0,1,2,0,68,2021_Oct_18_0944,listening_fmri,3.2.4,59.98920218339756,
3,parcelated_audio/22/22_6.ogg,,,,,,,,,0,0,0,0,0,3,3,3,0,0,0,0,,,,,,,,,,,,,0,0,0,0,0,5,5,5,,,,,,,,,,,,,,,,,,,,,,,,,,,,,,,,,,,,,,,,,,,,,,,,,,,,,,,,,,,,,,,,,,,,,,,,,,,,,,,,,,,,,,,,,,,,,,,,,,,,,597.6274274630005,606.8178457699996,,,,,101821,2,3,1,2,0,1,2,0,68,2021_Oct_18_0944,listening_fmri,3.2.4,59.98920218339756,
3,parcelated_audio/22/22_7.ogg,,,,,,,,,0,0,0,0,0,3,3,3,0,0,0,0,,,,,,,,,,,,,0,0,0,0,0,6,6,6,,,,,,,,,,,,,,,,,,,,,,,,,,,,,,,,,,,,,,,,,,,,,,,,,,,,,,,,,,,,,,,,,,,,,,,,,,,,,,,,,,,,,,,,,,,,,,,,,,,,,606.8182290699997,611.806041584,,,,,101821,2,3,1,2,0,1,2,0,68,2021_Oct_18_0944,listening_fmri,3.2.4,59.98920218339756,
3,parcelated_audio/22/22_8.ogg,,,,,,,,,0,0,0,0,0,3,3,3,0,0,0,0,,,,,,,,,,,,,0,0,0,0,0,7,7,7,,,,,,,,,,,,,,,,,,,,,,,,,,,,,,,,,,,,,,,,,,,,,,,,,,,,,,,,,,,,,,,,,,,,,,,,,,,,,,,,,,,,,,,,,,,,,,,,,,,,,611.806376175,615.33540447,,,,,101821,2,3,1,2,0,1,2,0,68,2021_Oct_18_0944,listening_fmri,3.2.4,59.98920218339756,
3,parcelated_audio/22/22_9.ogg,,,,,,,,,0,0,0,0,0,3,3,3,0,0,0,0,,,,,,,,,,,,,0,0,0,0,0,8,8,8,,,,,,,,,,,,,,,,,,,,,,,,,,,,,,,,,,,,,,,,,,,,,,,,,,,,,,,,,,,,,,,,,,,,,,,,,,,,,,,,,,,,,,,,,,,,,,,,,,,,,615.3357328270004,619.2175420929998,,,,,101821,2,3,1,2,0,1,2,0,68,2021_Oct_18_0944,listening_fmri,3.2.4,59.98920218339756,
3,parcelated_audio/22/22_10.ogg,,,,,,,,,0,0,0,0,0,3,3,3,0,0,0,0,,,,,,,,,,,,,0,0,0,0,0,9,9,9,,,,,,,,,,,,,,,,,,,,,,,,,,,,,,,,,,,,,,,,,,,,,,,,,,,,,,,,,,,,,,,,,,,,,,,,,,,,,,,,,,,,,,,,,,,,,,,,,,,,,619.2178149970005,623.979455568,,,,,101821,2,3,1,2,0,1,2,0,68,2021_Oct_18_0944,listening_fmri,3.2.4,59.98920218339756,
3,parcelated_audio/22/22_11.ogg,,,,,,,,,0,0,0,0,0,3,3,3,0,0,0,0,,,,,,,,,,,,,0,0,0,0,0,10,10,10,,,,,,,,,,,,,,,,,,,,,,,,,,,,,,,,,,,,,,,,,,,,,,,,,,,,,,,,,,,,,,,,,,,,,,,,,,,,,,,,,,,,,,,,,,,,,,,,,,,,,623.9797879090002,631.2626655860004,,,,,101821,2,3,1,2,0,1,2,0,68,2021_Oct_18_0944,listening_fmri,3.2.4,59.98920218339756,
3,parcelated_audio/22/22_12.ogg,,,,,,,,,0,0,0,0,0,3,3,3,0,0,0,0,,,,,,,,,,,,,0,0,0,0,0,11,11,11,,,,,,,,,,,,,,,,,,,,,,,,,,,,,,,,,,,,,,,,,,,,,,,,,,,,,,,,,,,,,,,,,,,,,,,,,,,,,,,,,,,,,,,,,,,,,,,,,,,,,631.2630816889996,638.9864546660001,,,,,101821,2,3,1,2,0,1,2,0,68,2021_Oct_18_0944,listening_fmri,3.2.4,59.98920218339756,
3,parcelated_audio/22/22_13.ogg,,,,,,,,,0,0,0,0,0,3,3,3,0,0,0,0,,,,,,,,,,,,,0,0,0,0,0,12,12,12,,,,,,,,,,,,,,,,,,,,,,,,,,,,,,,,,,,,,,,,,,,,,,,,,,,,,,,,,,,,,,,,,,,,,,,,,,,,,,,,,,,,,,,,,,,,,,,,,,,,,638.9868576239996,646.2676196100001,,,,,101821,2,3,1,2,0,1,2,0,68,2021_Oct_18_0944,listening_fmri,3.2.4,59.98920218339756,
3,parcelated_audio/22/22_14.ogg,,,,,,,,,0,0,0,0,0,3,3,3,0,0,0,0,,,,,,,,,,,,,0,0,0,0,0,13,13,13,,,,,,,,,,,,,,,,,,,,,,,,,,,,,,,,,,,,,,,,,,,,,,,,,,,,,,,,,,,,,,,,,,,,,,,,,,,,,,,,,,,,,,,,,,,,,,,,,,,,,646.2678992609999,651.8895521679997,,,,,101821,2,3,1,2,0,1,2,0,68,2021_Oct_18_0944,listening_fmri,3.2.4,59.98920218339756,
3,parcelated_audio/22/22_15.ogg,,,,,,,,,0,0,0,0,0,3,3,3,0,0,0,0,,,,,,,,,,,,,0,0,0,0,0,14,14,14,,,,,,,,,,,,,,,,,,,,,,,,,,,,,,,,,,,,,,,,,,,,,,,,,,,,,,,,,,,,,,,,,,,,,,,,,,,,,,,,,,,,,,,,,,,,,,,,,,,,,651.8898249490003,659.6595046700004,,,,,101821,2,3,1,2,0,1,2,0,68,2021_Oct_18_0944,listening_fmri,3.2.4,59.98920218339756,
3,parcelated_audio/22/22_16.ogg,,,,,,,,,0,0,0,0,0,3,3,3,0,0,0,0,,,,,,,,,,,,,0,0,0,0,0,15,15,15,,,,,,,,,,,,,,,,,,,,,,,,,,,,,,,,,,,,,,,,,,,,,,,,,,,,,,,,,,,,,,,,,,,,,,,,,,,,,,,,,,,,,,,,,,,,,,,,,,,,,659.6598632289997,668.3365976020004,,,,,101821,2,3,1,2,0,1,2,0,68,2021_Oct_18_0944,listening_fmri,3.2.4,59.98920218339756,
3,parcelated_audio/22/22_17.ogg,,,,,,,,,0,0,0,0,0,3,3,3,0,0,0,0,,,,,,,,,,,,,0,0,0,0,0,16,16,16,,,,,,,,,,,,,,,,,,,,,,,,,,,,,,,,,,,,,,,,,,,,,,,,,,,,,,,,,,,,,,,,,,,,,,,,,,,,,,,,,,,,,,,,,,,,,,,,,,,,,668.3368997690004,671.4855981410001,,,,,101821,2,3,1,2,0,1,2,0,68,2021_Oct_18_0944,listening_fmri,3.2.4,59.98920218339756,
3,parcelated_audio/22/22_18.ogg,,,,,,,,,0,0,0,0,0,3,3,3,0,0,0,0,,,,,,,,,,,,,0,0,0,0,0,17,17,17,,,,,,,,,,,,,,,,,,,,,,,,,,,,,,,,,,,,,,,,,,,,,,,,,,,,,,,,,,,,,,,,,,,,,,,,,,,,,,,,,,,,,,,,,,,,,,,,,,,,,671.4858711429997,678.2189022769999,,,,,101821,2,3,1,2,0,1,2,0,68,2021_Oct_18_0944,listening_fmri,3.2.4,59.98920218339756,
3,parcelated_audio/22/22_19.ogg,,,,,,,,,0,0,0,0,0,3,3,3,0,0,0,0,,,,,,,,,,,,,0,0,0,0,0,18,18,18,,,,,,,,,,,,,,,,,,,,,,,,,,,,,,,,,,,,,,,,,,,,,,,,,,,,,,,,,,,,,,,,,,,,,,,,,,,,,,,,,,,,,,,,,,,,,,,,,,,,,678.2191767590002,683.1796350719997,,,,,101821,2,3,1,2,0,1,2,0,68,2021_Oct_18_0944,listening_fmri,3.2.4,59.98920218339756,
3,parcelated_audio/22/22_20.ogg,,,,,,,,,0,0,0,0,0,3,3,3,0,0,0,0,,,,,,,,,,,,,0,0,0,0,0,19,19,19,,,,,,,,,,,,,,,,,,,,,,,,,,,,,,,,,,,,,,,,,,,,,,,,,,,,,,,,,,,,,,,,,,,,,,,,,,,,,,,,,,,,,,,,,,,,,,,,,,,,,683.1799892409999,697.2971767560002,,,,,101821,2,3,1,2,0,1,2,0,68,2021_Oct_18_0944,listening_fmri,3.2.4,59.98920218339756,
3,parcelated_audio/22/22_21.ogg,,,,,,,,,0,0,0,0,0,3,3,3,0,0,0,0,,,,,,,,,,,,,0,0,0,0,0,20,20,20,,,,,,,,,,,,,,,,,,,,,,,,,,,,,,,,,,,,,,,,,,,,,,,,,,,,,,,,,,,,,,,,,,,,,,,,,,,,,,,,,,,,,,,,,,,,,,,,,,,,,697.2976329129997,699.2998521580002,,,,,101821,2,3,1,2,0,1,2,0,68,2021_Oct_18_0944,listening_fmri,3.2.4,59.98920218339756,
3,parcelated_audio/22/22_22.ogg,,,,,,,,,0,0,0,0,0,3,3,3,0,0,0,0,,,,,,,,,,,,,0,0,0,0,0,21,21,21,,,,,,,,,,,,,,,,,,,,,,,,,,,,,,,,,,,,,,,,,,,,,,,,,,,,,,,,,,,,,,,,,,,,,,,,,,,,,,,,,,,,,,,,,,,,,,,,,,,,,699.3002045200001,702.4623483269997,,,,,101821,2,3,1,2,0,1,2,0,68,2021_Oct_18_0944,listening_fmri,3.2.4,59.98920218339756,
3,parcelated_audio/22/22_23.ogg,,,,,,,,,0,0,0,0,0,3,3,3,0,0,0,0,,,,,,,,,,,,,0,0,0,0,0,22,22,22,,,,,,,,,,,,,,,,,,,,,,,,,,,,,,,,,,,,,,,,,,,,,,,,,,,,,,,,,,,,,,,,,,,,,,,,,,,,,,,,,,,,,,,,,,,,,,,,,,,,,702.4628041160004,708.9975490019997,,,,,101821,2,3,1,2,0,1,2,0,68,2021_Oct_18_0944,listening_fmri,3.2.4,59.98920218339756,
3,parcelated_audio/22/22_24.ogg,,,,,,,,,0,0,0,0,0,3,3,3,0,0,0,0,,,,,,,,,,,,,0,0,0,0,0,23,23,23,,,,,,,,,,,,,,,,,,,,,,,,,,,,,,,,,,,,,,,,,,,,,,,,,,,,,,,,,,,,,,,,,,,,,,,,,,,,,,,,,,,,,,,,,,,,,,,,,,,,,708.9978973070001,714.7394123040003,,,,,101821,2,3,1,2,0,1,2,0,68,2021_Oct_18_0944,listening_fmri,3.2.4,59.98920218339756,
3,parcelated_audio/22/22_25.ogg,,,,,,,,,0,0,0,0,0,3,3,3,0,0,0,0,,,,,,,,,,,,,0,0,0,0,0,24,24,24,,,,,,,,,,,,,,,,,,,,,,,,,,,,,,,,,,,,,,,,,,,,,,,,,,,,,,,,,,,,,,,,,,,,,,,,,,,,,,,,,,,,,,,,,,,,,,,,,,,,,714.7399276329998,727.4375593730001,,,,,101821,2,3,1,2,0,1,2,0,68,2021_Oct_18_0944,listening_fmri,3.2.4,59.98920218339756,
3,parcelated_audio/22/22_26.ogg,,,,,,,,,0,0,0,0,0,3,3,3,0,0,0,0,,,,,,,,,,,,,0,0,0,0,0,25,25,25,,,,,,,,,,,,,,,,,,,,,,,,,,,,,,,,,,,,,,,,,,,,,,,,,,,,,,,,,,,,,,,,,,,,,,,,,,,,,,,,,,,,,,,,,,,,,,,,,,,,,727.4378452680003,734.1696274839996,,,,,101821,2,3,1,2,0,1,2,0,68,2021_Oct_18_0944,listening_fmri,3.2.4,59.98920218339756,
3,parcelated_audio/22/22_27.ogg,,,,,,,,,0,0,0,0,0,3,3,3,0,0,0,0,,,,,,,,,,,,,0,0,0,0,0,26,26,26,,,,,,,,,,,,,,,,,,,,,,,,,,,,,,,,,,,,,,,,,,,,,,,,,,,,,,,,,,,,,,,,,,,,,,,,,,,,,,,,,,,,,,,,,,,,,,,,,,,,,734.1699008510004,738.5661778570002,,,,,101821,2,3,1,2,0,1,2,0,68,2021_Oct_18_0944,listening_fmri,3.2.4,59.98920218339756,
3,parcelated_audio/22/22_28.ogg,,,,,,,,,0,0,0,0,0,3,3,3,0,0,0,0,,,,,,,,,,,,,0,0,0,0,0,27,27,27,,,,,,,,,,,,,,,,,,,,,,,,,,,,,,,,,,,,,,,,,,,,,,,,,,,,,,,,,,,,,,,,,,,,,,,,,,,,,,,,,,,,,,,,,,,,,,,,,,,,,738.5684766280001,744.3246405150003,,,,,101821,2,3,1,2,0,1,2,0,68,2021_Oct_18_0944,listening_fmri,3.2.4,59.98920218339756,
3,parcelated_audio/22/22_29.ogg,,,,,,,,,0,0,0,0,0,3,3,3,0,0,0,0,,,,,,,,,,,,,0,0,0,0,0,28,28,28,,,,,,,,,,,,,,,,,,,,,,,,,,,,,,,,,,,,,,,,,,,,,,,,,,,,,,,,,,,,,,,,,,,,,,,,,,,,,,,,,,,,,,,,,,,,,,,,,,,,,744.3253089769996,750.0359356050003,,,,,101821,2,3,1,2,0,1,2,0,68,2021_Oct_18_0944,listening_fmri,3.2.4,59.98920218339756,
3,parcelated_audio/22/22_30.ogg,,,,,,,,,0,0,0,0,0,3,3,3,0,0,0,0,,,,,,,,,,,,,0,0,0,0,0,29,29,29,,,,,,,,,,,,,,,,,,,,,,,,,,,,,,,,,,,,,,,,,,,,,,,,,,,,,,,,,,,,,,,,,,,,,,,,,,,,,,,,,,,,,,,,,,,,,,,,,,,,,750.036253188,752.7447078200003,,,,,101821,2,3,1,2,0,1,2,0,68,2021_Oct_18_0944,listening_fmri,3.2.4,59.98920218339756,
3,parcelated_audio/22/22_31.ogg,,,,,,,,,0,0,0,0,0,3,3,3,0,0,0,0,,,,,,,,,,,,,0,0,0,0,0,30,30,30,,,,,,,,,,,,,,,,,,,,,,,,,,,,,,,,,,,,,,,,,,,,,,,,,,,,,,,,,,,,,,,,,,,,,,,,,,,,,,,,,,,,,,,,,,,,,,,,,,,,,752.7458088559997,757.9046475989999,,,,,101821,2,3,1,2,0,1,2,0,68,2021_Oct_18_0944,listening_fmri,3.2.4,59.98920218339756,
3,parcelated_audio/22/22_32.ogg,,,,,,,,,0,0,0,0,0,3,3,3,0,0,0,0,,,,,,,,,,,,,0,0,0,0,0,31,31,31,,,,,,,,,,,,,,,,,,,,,,,,,,,,,,,,,,,,,,,,,,,,,,,,,,,,,,,,,,,,,,,,,,,,,,,,,,,,,,,,,,,,,,,,,,,,,,,,,,,,,757.9056279619999,764.2305916329997,,,,,101821,2,3,1,2,0,1,2,0,68,2021_Oct_18_0944,listening_fmri,3.2.4,59.98920218339756,
3,parcelated_audio/22/22_33.ogg,,,,,,,,,0,0,0,0,0,3,3,3,0,0,0,0,,,,,,,,,,,,,0,0,0,0,0,32,32,32,,,,,,,,,,,,,,,,,,,,,,,,,,,,,,,,,,,,,,,,,,,,,,,,,,,,,,,,,,,,,,,,,,,,,,,,,,,,,,,,,,,,,,,,,,,,,,,,,,,,,764.2308591020001,768.6712819390004,,,,,101821,2,3,1,2,0,1,2,0,68,2021_Oct_18_0944,listening_fmri,3.2.4,59.98920218339756,
3,parcelated_audio/22/22_34.ogg,,,,,,,,,0,0,0,0,0,3,3,3,0,0,0,0,,,,,,,,,,,,,0,0,0,0,0,33,33,33,,,,,,,,,,,,,,,,,,,,,,,,,,,,,,,,,,,,,,,,,,,,,,,,,,,,,,,,,,,,,,,,,,,,,,,,,,,,,,,,,,,,,,,,,,,,,,,,,,,,,768.6721279800004,776.7227442350004,,,,,101821,2,3,1,2,0,1,2,0,68,2021_Oct_18_0944,listening_fmri,3.2.4,59.98920218339756,
3,parcelated_audio/22/22_35.ogg,,,,,,,,,0,0,0,0,0,3,3,3,0,0,0,0,,,,,,,,,,,,,0,0,0,0,0,34,34,34,,,,,,,,,,,,,,,,,,,,,,,,,,,,,,,,,,,,,,,,,,,,,,,,,,,,,,,,,,,,,,,,,,,,,,,,,,,,,,,,,,,,,,,,,,,,,,,,,,,,,776.7230177499996,784.2435550210002,,,,,101821,2,3,1,2,0,1,2,0,68,2021_Oct_18_0944,listening_fmri,3.2.4,59.98920218339756,
3,parcelated_audio/22/22_36.ogg,,,,,,,,,0,0,0,0,0,3,3,3,0,0,0,0,,,,,,,,,,,,,0,0,0,0,0,35,35,35,,,,,,,,,,,,,,,,,,,,,,,,,,,,,,,,,,,,,,,,,,,,,,,,,,,,,,,,,,,,,,,,,,,,,,,,,,,,,,,,,,,,,,,,,,,,,,,,,,,,,784.243961098,796.9449494310002,,,,,101821,2,3,1,2,0,1,2,0,68,2021_Oct_18_0944,listening_fmri,3.2.4,59.98920218339756,
3,parcelated_audio/22/22_37.ogg,,,,,,,,,0,0,0,0,0,3,3,3,0,0,0,0,,,,,,,,,,,,,0,0,0,0,0,36,36,36,,,,,,,,,,,,,,,,,,,,,,,,,,,,,,,,,,,,,,,,,,,,,,,,,,,,,,,,,,,,,,,,,,,,,,,,,,,,,,,,,,,,,,,,,,,,,,,,,,,,,796.945299946,804.1501639460002,,,,,101821,2,3,1,2,0,1,2,0,68,2021_Oct_18_0944,listening_fmri,3.2.4,59.98920218339756,
3,,,,,,,,,,0,0,0,0,0,3,3,3,0,0,0,0,,,,,,,,,,,,,0,0,0,0,,,,,,,,,,,,,,,,,,,,,,,,,,,,,,,,,,,,,,,,,,,,,,,,,,,,,,,,,,,,,,,,,,,,,,,,,,,,,,,,,,,,,,,,,,,,,,,,,,,,,,,,,,,,,,,101821,2,3,1,2,0,1,2,0,68,2021_Oct_18_0944,listening_fmri,3.2.4,59.98920218339756,
,,,,,,,,,,,,,,,,,,,,,,,,,,,,,,,,,,,,,,,,,,,,,,,,,,,,,,,,,,,804.1506531450004,810.1498999989999,864.3861265129999,None,,,,,,,,,,,,,,,,,,,,,,,,,,,,,,,,,,,,,,,,,,,,,,,,,,,,,,,,,,,,,,,,,,,,,,,,,,,,,,,,,,870.3978319687996,None,870.3978319687996,None,,,,,,,,,,,,,,,
﻿count,audio,trials_14.thisRepN,trials_14.thisTrialN,trials_14.thisN,trials_14.thisIndex,trials_3.thisRepN,trials_3.thisTrialN,trials_3.thisN,trials_3.thisIndex,trials_4.thisRepN,trials_4.thisTrialN,trials_4.thisN,trials_4.thisIndex,trials_6.thisRepN,trials_6.thisTrialN,trials_6.thisN,trials_6.thisIndex,trials_9.thisRepN,trials_9.thisTrialN,trials_9.thisN,trials_9.thisIndex,trials_10.thisRepN,trials_10.thisTrialN,trials_10.thisN,trials_10.thisIndex,trials_11.thisRepN,trials_11.thisTrialN,trials_11.thisN,trials_11.thisIndex,trials_12.thisRepN,trials_12.thisTrialN,trials_12.thisN,trials_12.thisIndex,trials_25.thisRepN,trials_25.thisTrialN,trials_25.thisN,trials_25.thisIndex,trials_15.thisRepN,trials_15.thisTrialN,trials_15.thisN,trials_15.thisIndex,trials_26.thisRepN,trials_26.thisTrialN,trials_26.thisN,trials_26.thisIndex,story_list_block2,action_list_block2,textTrigger.started,textTrigger.stopped,getTrigger.keys,getTrigger.rt,getTrigger.started,getTrigger.stopped,triggerTime,text_76.started,text_76.stopped,text_77.started,text_77.stopped,startWait,endWait,image_23.started,image_23.stopped,text_55.started,text_55.stopped,text_56.started,text_56.stopped,key_resp_2.keys,key_resp_2.rt,key_resp_2.started,key_resp_2.stopped,text_82.started,text_82.stopped,text_57.started,text_57.stopped,key_resp_17.keys,key_resp_17.rt,key_resp_17.started,key_resp_17.stopped,text_83.started,text_83.stopped,text_60.started,text_60.stopped,image_2.started,image_2.stopped,text_58.started,text_58.stopped,key_resp_23.keys,key_resp_23.rt,key_resp_23.started,key_resp_23.stopped,text_62.started,text_62.stopped,key_resp_18.keys,key_resp_18.rt,key_resp_18.started,key_resp_18.stopped,text_84.started,text_84.stopped,question1_2.started,question1_2.stopped,question2_2.started,question2_2.stopped,question3_2.started,question3_2.stopped,question4_2.started,question4_2.stopped,question5_2.started,question5_2.stopped,question6_2.started,question6_2.stopped,image_15.started,image_15.stopped,key_resp.keys,key_resp.started,key_resp.stopped,text_59.started,text_59.stopped,key_resp_19.keys,key_resp_19.rt,key_resp_19.started,key_resp_19.stopped,text_85.started,text_85.stopped,text_61.started,text_61.stopped,image_17.started,image_17.stopped,text_63.started,text_63.stopped,key_resp_24.keys,key_resp_24.rt,key_resp_24.started,key_resp_24.stopped,text_64.started,text_64.stopped,key_resp_20.keys,key_resp_20.rt,key_resp_20.started,key_resp_20.stopped,storyImage_StartTime,storyImage_EndTime,clip_StartTime,clip_EndTime,text_67.started,text_67.stopped,text_68.started,text_68.stopped,participant,sA,sB,lA,lB,block_struct,play_stories,block,behavioral,random_seed,date,expName,psychopyVersion,frameRate,
0,,,,,,,,,,0,0,0,0,0,0,0,0,0,0,0,0,0,0,0,0,0,0,0,0,,,,,,,,,,,,,,,,,[31 33 11 22 44 13 24 42],[1 3 4 2 1 2 4 3],16.563117169999714,None,equal,43.65802398699998,16.563117169999714,None,43.68999070599966,16.563117169999714,None,16.563117169999714,None,0.0003542080003171577,5.999060355000438,60.24598723700001,None,66.26358101799997,None,66.26358101799997,None,6,2.1304895270004636,66.26358101799997,None,66.26358101799997,None,68.41346262000025,None,6,0.9645267099995181,68.41346262000025,None,68.41346262000025,None,69.41316451900002,None,69.41316451900002,None,69.41316451900002,None,6,0.8809887580000577,69.41316451900002,None,70.31365354099944,None,6,1.1094643819997145,70.31365354099944,None,70.31365354099944,None,71.5299917960001,None,71.5299917960001,None,71.5299917960001,None,71.5299917960001,None,71.5299917960001,None,71.5299917960001,None,71.5299917960001,None,None,71.5299917960001,None,,,,,,,,,,,,,,,,,,,,,,,,,,,,,,,,,101821,2,3,1,2,0,1,2,0,68,2021_Oct_18_0944,listening_fmri,3.2.4,59.98920218339756,
0,,,,,,,,,,0,0,0,0,0,0,0,0,0,0,0,0,0,0,0,0,,,,,,,,,,,,,,,,,,,,,,,,,,,,,,,,,,,,,,,,,,,,,,,,,,,,,,,,,,,,,,,,,,,,,,,,,,,,,,,,,,,,,,,,,,,83.16357119199984,None,6,1.221437498999876,83.16357119199984,None,83.16357119199984,None,84.42929354099942,None,84.42929354099942,None,84.42929354099942,None,6,0.7337978499999736,84.42929354099942,None,,,,,,,,,,,,,,,101821,2,3,1,2,0,1,2,0,68,2021_Oct_18_0944,listening_fmri,3.2.4,59.98920218339756,
0,parcelated_audio/31/31_1.ogg,,,,,,,,,0,0,0,0,0,0,0,0,0,0,0,0,,,,,,,,,,,,,0,0,0,0,0,0,0,0,,,,,,,,,,,,,,,,,,,,,,,,,,,,,,,,,,,,,,,,,,,,,,,,,,,,,,,,,,,,,,,,,,,,,,,,,,,,,,,,,,,,,,,,,,,,,85.17938695599969,None,6,1.3557314640002005,85.17938695599969,None,26.329316672999994,29.331479178000336,29.33688035399973,38.02801330700004,,,,,101821,2,3,1,2,0,1,2,0,68,2021_Oct_18_0944,listening_fmri,3.2.4,59.98920218339756,
0,parcelated_audio/31/31_2.ogg,,,,,,,,,0,0,0,0,0,0,0,0,0,0,0,0,,,,,,,,,,,,,0,0,0,0,0,1,1,1,,,,,,,,,,,,,,,,,,,,,,,,,,,,,,,,,,,,,,,,,,,,,,,,,,,,,,,,,,,,,,,,,,,,,,,,,,,,,,,,,,,,,,,,,,,,,,,,,,,,,38.0283207399998,42.486573565999606,,,,,101821,2,3,1,2,0,1,2,0,68,2021_Oct_18_0944,listening_fmri,3.2.4,59.98920218339756,
0,parcelated_audio/31/31_3.ogg,,,,,,,,,0,0,0,0,0,0,0,0,0,0,0,0,,,,,,,,,,,,,0,0,0,0,0,2,2,2,,,,,,,,,,,,,,,,,,,,,,,,,,,,,,,,,,,,,,,,,,,,,,,,,,,,,,,,,,,,,,,,,,,,,,,,,,,,,,,,,,,,,,,,,,,,,,,,,,,,,42.487431180000385,50.77552402800029,,,,,101821,2,3,1,2,0,1,2,0,68,2021_Oct_18_0944,listening_fmri,3.2.4,59.98920218339756,
0,parcelated_audio/31/31_4.ogg,,,,,,,,,0,0,0,0,0,0,0,0,0,0,0,0,,,,,,,,,,,,,0,0,0,0,0,3,3,3,,,,,,,,,,,,,,,,,,,,,,,,,,,,,,,,,,,,,,,,,,,,,,,,,,,,,,,,,,,,,,,,,,,,,,,,,,,,,,,,,,,,,,,,,,,,,,,,,,,,,50.775798917999964,60.83552082500046,,,,,101821,2,3,1,2,0,1,2,0,68,2021_Oct_18_0944,listening_fmri,3.2.4,59.98920218339756,
0,parcelated_audio/31/31_5.ogg,,,,,,,,,0,0,0,0,0,0,0,0,0,0,0,0,,,,,,,,,,,,,0,0,0,0,0,4,4,4,,,,,,,,,,,,,,,,,,,,,,,,,,,,,,,,,,,,,,,,,,,,,,,,,,,,,,,,,,,,,,,,,,,,,,,,,,,,,,,,,,,,,,,,,,,,,,,,,,,,,60.83585299999959,71.95048541600045,,,,,101821,2,3,1,2,0,1,2,0,68,2021_Oct_18_0944,listening_fmri,3.2.4,59.98920218339756,
0,parcelated_audio/31/31_6.ogg,,,,,,,,,0,0,0,0,0,0,0,0,0,0,0,0,,,,,,,,,,,,,0,0,0,0,0,5,5,5,,,,,,,,,,,,,,,,,,,,,,,,,,,,,,,,,,,,,,,,,,,,,,,,,,,,,,,,,,,,,,,,,,,,,,,,,,,,,,,,,,,,,,,,,,,,,,,,,,,,,71.95077008899989,77.26450604100046,,,,,101821,2,3,1,2,0,1,2,0,68,2021_Oct_18_0944,listening_fmri,3.2.4,59.98920218339756,
0,parcelated_audio/31/31_7.ogg,,,,,,,,,0,0,0,0,0,0,0,0,0,0,0,0,,,,,,,,,,,,,0,0,0,0,0,6,6,6,,,,,,,,,,,,,,,,,,,,,,,,,,,,,,,,,,,,,,,,,,,,,,,,,,,,,,,,,,,,,,,,,,,,,,,,,,,,,,,,,,,,,,,,,,,,,,,,,,,,,77.26478411300013,82.1164338360004,,,,,101821,2,3,1,2,0,1,2,0,68,2021_Oct_18_0944,listening_fmri,3.2.4,59.98920218339756,
0,parcelated_audio/31/31_8.ogg,,,,,,,,,0,0,0,0,0,0,0,0,0,0,0,0,,,,,,,,,,,,,0,0,0,0,0,7,7,7,,,,,,,,,,,,,,,,,,,,,,,,,,,,,,,,,,,,,,,,,,,,,,,,,,,,,,,,,,,,,,,,,,,,,,,,,,,,,,,,,,,,,,,,,,,,,,,,,,,,,82.11675183300031,90.5516468679998,,,,,101821,2,3,1,2,0,1,2,0,68,2021_Oct_18_0944,listening_fmri,3.2.4,59.98920218339756,
0,parcelated_audio/31/31_9.ogg,,,,,,,,,0,0,0,0,0,0,0,0,0,0,0,0,,,,,,,,,,,,,0,0,0,0,0,8,8,8,,,,,,,,,,,,,,,,,,,,,,,,,,,,,,,,,,,,,,,,,,,,,,,,,,,,,,,,,,,,,,,,,,,,,,,,,,,,,,,,,,,,,,,,,,,,,,,,,,,,,90.55193978999978,95.6166692630004,,,,,101821,2,3,1,2,0,1,2,0,68,2021_Oct_18_0944,listening_fmri,3.2.4,59.98920218339756,
0,parcelated_audio/31/31_10.ogg,,,,,,,,,0,0,0,0,0,0,0,0,0,0,0,0,,,,,,,,,,,,,0,0,0,0,0,9,9,9,,,,,,,,,,,,,,,,,,,,,,,,,,,,,,,,,,,,,,,,,,,,,,,,,,,,,,,,,,,,,,,,,,,,,,,,,,,,,,,,,,,,,,,,,,,,,,,,,,,,,95.61703243800002,101.12870194100014,,,,,101821,2,3,1,2,0,1,2,0,68,2021_Oct_18_0944,listening_fmri,3.2.4,59.98920218339756,
0,parcelated_audio/31/31_11.ogg,,,,,,,,,0,0,0,0,0,0,0,0,0,0,0,0,,,,,,,,,,,,,0,0,0,0,0,10,10,10,,,,,,,,,,,,,,,,,,,,,,,,,,,,,,,,,,,,,,,,,,,,,,,,,,,,,,,,,,,,,,,,,,,,,,,,,,,,,,,,,,,,,,,,,,,,,,,,,,,,,101.12914139199984,111.34784732200023,,,,,101821,2,3,1,2,0,1,2,0,68,2021_Oct_18_0944,listening_fmri,3.2.4,59.98920218339756,
0,parcelated_audio/31/31_12.ogg,,,,,,,,,0,0,0,0,0,0,0,0,0,0,0,0,,,,,,,,,,,,,0,0,0,0,0,11,11,11,,,,,,,,,,,,,,,,,,,,,,,,,,,,,,,,,,,,,,,,,,,,,,,,,,,,,,,,,,,,,,,,,,,,,,,,,,,,,,,,,,,,,,,,,,,,,,,,,,,,,111.34820035800021,116.12635477300046,,,,,101821,2,3,1,2,0,1,2,0,68,2021_Oct_18_0944,listening_fmri,3.2.4,59.98920218339756,
0,parcelated_audio/31/31_13.ogg,,,,,,,,,0,0,0,0,0,0,0,0,0,0,0,0,,,,,,,,,,,,,0,0,0,0,0,12,12,12,,,,,,,,,,,,,,,,,,,,,,,,,,,,,,,,,,,,,,,,,,,,,,,,,,,,,,,,,,,,,,,,,,,,,,,,,,,,,,,,,,,,,,,,,,,,,,,,,,,,,116.12670319500012,123.44344483300029,,,,,101821,2,3,1,2,0,1,2,0,68,2021_Oct_18_0944,listening_fmri,3.2.4,59.98920218339756,
0,parcelated_audio/31/31_14.ogg,,,,,,,,,0,0,0,0,0,0,0,0,0,0,0,0,,,,,,,,,,,,,0,0,0,0,0,13,13,13,,,,,,,,,,,,,,,,,,,,,,,,,,,,,,,,,,,,,,,,,,,,,,,,,,,,,,,,,,,,,,,,,,,,,,,,,,,,,,,,,,,,,,,,,,,,,,,,,,,,,123.44398091099993,129.58005682099974,,,,,101821,2,3,1,2,0,1,2,0,68,2021_Oct_18_0944,listening_fmri,3.2.4,59.98920218339756,
0,parcelated_audio/31/31_15.ogg,,,,,,,,,0,0,0,0,0,0,0,0,0,0,0,0,,,,,,,,,,,,,0,0,0,0,0,14,14,14,,,,,,,,,,,,,,,,,,,,,,,,,,,,,,,,,,,,,,,,,,,,,,,,,,,,,,,,,,,,,,,,,,,,,,,,,,,,,,,,,,,,,,,,,,,,,,,,,,,,,129.580359435,136.37282280399995,,,,,101821,2,3,1,2,0,1,2,0,68,2021_Oct_18_0944,listening_fmri,3.2.4,59.98920218339756,
