count,audio,trials_14.thisRepN,trials_14.thisTrialN,trials_14.thisN,trials_14.thisIndex,trials_3.thisRepN,trials_3.thisTrialN,trials_3.thisN,trials_3.thisIndex,trials_4.thisRepN,trials_4.thisTrialN,trials_4.thisN,trials_4.thisIndex,trials_6.thisRepN,trials_6.thisTrialN,trials_6.thisN,trials_6.thisIndex,trials_9.thisRepN,trials_9.thisTrialN,trials_9.thisN,trials_9.thisIndex,trials_10.thisRepN,trials_10.thisTrialN,trials_10.thisN,trials_10.thisIndex,trials_11.thisRepN,trials_11.thisTrialN,trials_11.thisN,trials_11.thisIndex,trials_12.thisRepN,trials_12.thisTrialN,trials_12.thisN,trials_12.thisIndex,trials_25.thisRepN,trials_25.thisTrialN,trials_25.thisN,trials_25.thisIndex,trials_15.thisRepN,trials_15.thisTrialN,trials_15.thisN,trials_15.thisIndex,trials_26.thisRepN,trials_26.thisTrialN,trials_26.thisN,trials_26.thisIndex,story_list_block2,action_list_block2,textTrigger.started,textTrigger.stopped,getTrigger.keys,getTrigger.rt,getTrigger.started,getTrigger.stopped,triggerTime,text_76.started,text_76.stopped,text_77.started,text_77.stopped,startWait,endWait,image_23.started,image_23.stopped,text_55.started,text_55.stopped,text_56.started,text_56.stopped,key_resp_2.keys,key_resp_2.rt,key_resp_2.started,key_resp_2.stopped,text_82.started,text_82.stopped,text_57.started,text_57.stopped,key_resp_17.keys,key_resp_17.rt,key_resp_17.started,key_resp_17.stopped,text_83.started,text_83.stopped,text_60.started,text_60.stopped,image_2.started,image_2.stopped,text_58.started,text_58.stopped,key_resp_23.keys,key_resp_23.rt,key_resp_23.started,key_resp_23.stopped,text_62.started,text_62.stopped,key_resp_18.keys,key_resp_18.rt,key_resp_18.started,key_resp_18.stopped,text_84.started,text_84.stopped,question1_2.started,question1_2.stopped,question2_2.started,question2_2.stopped,question3_2.started,question3_2.stopped,question4_2.started,question4_2.stopped,question5_2.started,question5_2.stopped,question6_2.started,question6_2.stopped,image_15.started,image_15.stopped,key_resp.keys,key_resp.started,key_resp.stopped,text_59.started,text_59.stopped,key_resp_19.keys,key_resp_19.rt,key_resp_19.started,key_resp_19.stopped,text_85.started,text_85.stopped,text_61.started,text_61.stopped,image_17.started,image_17.stopped,text_63.started,text_63.stopped,key_resp_24.keys,key_resp_24.rt,key_resp_24.started,key_resp_24.stopped,text_64.started,text_64.stopped,key_resp_20.keys,key_resp_20.rt,key_resp_20.started,key_resp_20.stopped,storyImage_StartTime,storyImage_EndTime,clip_StartTime,clip_EndTime,text_67.started,text_67.stopped,text_68.started,text_68.stopped,participant,sA,sB,lA,lB,block_struct,play_stories,block,behavioral,random_seed,date,expName,psychopyVersion,frameRate,
0,,,,,,,,,,0,0,0,0,0,0,0,0,,,,,,,,,,,,,,,,,,,,,,,,,,,,,[22 42 31 33 44 24 11 13],[3 2 4 4 2 3 1 1],22.10259188499981,None,equal,28.56285291999984,22.10259188499981,None,28.58206260299994,22.10259188499981,None,22.10259188499981,None,0.0003633660001014505,6.015336296999976,50.69161600999996,None,,,,,,,,,,,,,,,,,,,,,,,,,,,,,,,,,,,,,,,,,,,,,,,,,,,,,,,,,,,,,,,,,,,,,,,,,,,,,,,,,,,,,,011721,0,1,1,3,0,1,2,0,10,2021_Jan_17_1447,listening_fmri,3.2.4,59.60555890261598,
1,,,,,,,,,,0,0,0,0,0,1,1,1,0,0,0,0,0,0,0,0,0,0,0,0,,,,,,,,,,,,,,,,,,,,,,,,,,,,,,,,,,56.70242799999983,None,56.70242799999983,None,1,1.9228711380001187,56.70242799999983,None,56.70242799999983,None,58.65789816999995,None,1,1.5485020650000934,58.65789816999995,None,58.65789816999995,None,60.258069122999814,None,60.258069122999814,None,60.258069122999814,None,1,1.5683769249999386,60.258069122999814,None,61.852733084999954,None,1,1.9097333150000395,61.852733084999954,None,61.852733084999954,None,63.86936081999988,None,63.86936081999988,None,63.86936081999988,None,63.86936081999988,None,63.86936081999988,None,63.86936081999988,None,63.86936081999988,None,None,63.86936081999988,None,,,,,,,,,,,,,,,,,,,,,,,,,,,,,,,,,011721,0,1,1,3,0,1,2,0,10,2021_Jan_17_1447,listening_fmri,3.2.4,59.60555890261598,
1,,,,,,,,,,0,0,0,0,0,1,1,1,0,0,0,0,0,0,0,0,,,,,,,,,,,,,,,,,,,,,,,,,,,,,,,,,,,,,,,,,,,,,,,,,,,,,,,,,,,,,,,,,,,,,,,,,,,,,,,,,,,,,,,,,,,83.0527874559998,None,1,3.0345608390000507,83.0527874559998,None,83.0527874559998,None,86.13599551099992,None,86.13599551099992,None,86.13599551099992,None,1,1.8434428759999264,86.13599551099992,None,,,,,,,,,,,,,,,011721,0,1,1,3,0,1,2,0,10,2021_Jan_17_1447,listening_fmri,3.2.4,59.60555890261598,
1,parcelated_audio/42/42_1.ogg,,,,,,,,,0,0,0,0,0,1,1,1,0,0,0,0,,,,,,,,,,,,,0,0,0,0,0,0,0,0,,,,,,,,,,,,,,,,,,,,,,,,,,,,,,,,,,,,,,,,,,,,,,,,,,,,,,,,,,,,,,,,,,,,,,,,,,,,,,,,,,,,,,,,,,,,,88.00257954599988,None,1,1.8688510049998968,88.00257954599988,None,39.21732798700009,42.23148468399995,42.23651608900013,50.61893374700003,,,,,011721,0,1,1,3,0,1,2,0,10,2021_Jan_17_1447,listening_fmri,3.2.4,59.60555890261598,
1,parcelated_audio/42/42_2.ogg,,,,,,,,,0,0,0,0,0,1,1,1,0,0,0,0,,,,,,,,,,,,,0,0,0,0,0,1,1,1,,,,,,,,,,,,,,,,,,,,,,,,,,,,,,,,,,,,,,,,,,,,,,,,,,,,,,,,,,,,,,,,,,,,,,,,,,,,,,,,,,,,,,,,,,,,,,,,,,,,,50.61980831999995,63.354939275000106,,,,,011721,0,1,1,3,0,1,2,0,10,2021_Jan_17_1447,listening_fmri,3.2.4,59.60555890261598,
1,parcelated_audio/42/42_3.ogg,,,,,,,,,0,0,0,0,0,1,1,1,0,0,0,0,,,,,,,,,,,,,0,0,0,0,0,2,2,2,,,,,,,,,,,,,,,,,,,,,,,,,,,,,,,,,,,,,,,,,,,,,,,,,,,,,,,,,,,,,,,,,,,,,,,,,,,,,,,,,,,,,,,,,,,,,,,,,,,,,63.3552071040001,73.75272130200005,,,,,011721,0,1,1,3,0,1,2,0,10,2021_Jan_17_1447,listening_fmri,3.2.4,59.60555890261598,
1,parcelated_audio/42/42_4.ogg,,,,,,,,,0,0,0,0,0,1,1,1,0,0,0,0,,,,,,,,,,,,,0,0,0,0,0,3,3,3,,,,,,,,,,,,,,,,,,,,,,,,,,,,,,,,,,,,,,,,,,,,,,,,,,,,,,,,,,,,,,,,,,,,,,,,,,,,,,,,,,,,,,,,,,,,,,,,,,,,,73.7530054020001,87.44801592299996,,,,,011721,0,1,1,3,0,1,2,0,10,2021_Jan_17_1447,listening_fmri,3.2.4,59.60555890261598,
1,parcelated_audio/42/42_5.ogg,,,,,,,,,0,0,0,0,0,1,1,1,0,0,0,0,,,,,,,,,,,,,0,0,0,0,0,4,4,4,,,,,,,,,,,,,,,,,,,,,,,,,,,,,,,,,,,,,,,,,,,,,,,,,,,,,,,,,,,,,,,,,,,,,,,,,,,,,,,,,,,,,,,,,,,,,,,,,,,,,87.4483704700001,98.88845384399997,,,,,011721,0,1,1,3,0,1,2,0,10,2021_Jan_17_1447,listening_fmri,3.2.4,59.60555890261598,
1,parcelated_audio/42/42_6.ogg,,,,,,,,,0,0,0,0,0,1,1,1,0,0,0,0,,,,,,,,,,,,,0,0,0,0,0,5,5,5,,,,,,,,,,,,,,,,,,,,,,,,,,,,,,,,,,,,,,,,,,,,,,,,,,,,,,,,,,,,,,,,,,,,,,,,,,,,,,,,,,,,,,,,,,,,,,,,,,,,,98.88880343799997,105.37792471700004,,,,,011721,0,1,1,3,0,1,2,0,10,2021_Jan_17_1447,listening_fmri,3.2.4,59.60555890261598,
1,parcelated_audio/42/42_7.ogg,,,,,,,,,0,0,0,0,0,1,1,1,0,0,0,0,,,,,,,,,,,,,0,0,0,0,0,6,6,6,,,,,,,,,,,,,,,,,,,,,,,,,,,,,,,,,,,,,,,,,,,,,,,,,,,,,,,,,,,,,,,,,,,,,,,,,,,,,,,,,,,,,,,,,,,,,,,,,,,,,105.38095116099998,110.58720495000011,,,,,011721,0,1,1,3,0,1,2,0,10,2021_Jan_17_1447,listening_fmri,3.2.4,59.60555890261598,
1,parcelated_audio/42/42_8.ogg,,,,,,,,,0,0,0,0,0,1,1,1,0,0,0,0,,,,,,,,,,,,,0,0,0,0,0,7,7,7,,,,,,,,,,,,,,,,,,,,,,,,,,,,,,,,,,,,,,,,,,,,,,,,,,,,,,,,,,,,,,,,,,,,,,,,,,,,,,,,,,,,,,,,,,,,,,,,,,,,,110.58765455000002,113.75250037299998,,,,,011721,0,1,1,3,0,1,2,0,10,2021_Jan_17_1447,listening_fmri,3.2.4,59.60555890261598,
1,parcelated_audio/42/42_9.ogg,,,,,,,,,0,0,0,0,0,1,1,1,0,0,0,0,,,,,,,,,,,,,0,0,0,0,0,8,8,8,,,,,,,,,,,,,,,,,,,,,,,,,,,,,,,,,,,,,,,,,,,,,,,,,,,,,,,,,,,,,,,,,,,,,,,,,,,,,,,,,,,,,,,,,,,,,,,,,,,,,113.75290109800017,122.30369111699997,,,,,011721,0,1,1,3,0,1,2,0,10,2021_Jan_17_1447,listening_fmri,3.2.4,59.60555890261598,
1,parcelated_audio/42/42_10.ogg,,,,,,,,,0,0,0,0,0,1,1,1,0,0,0,0,,,,,,,,,,,,,0,0,0,0,0,9,9,9,,,,,,,,,,,,,,,,,,,,,,,,,,,,,,,,,,,,,,,,,,,,,,,,,,,,,,,,,,,,,,,,,,,,,,,,,,,,,,,,,,,,,,,,,,,,,,,,,,,,,122.30396946500014,126.62256729800015,,,,,011721,0,1,1,3,0,1,2,0,10,2021_Jan_17_1447,listening_fmri,3.2.4,59.60555890261598,
1,parcelated_audio/42/42_11.ogg,,,,,,,,,0,0,0,0,0,1,1,1,0,0,0,0,,,,,,,,,,,,,0,0,0,0,0,10,10,10,,,,,,,,,,,,,,,,,,,,,,,,,,,,,,,,,,,,,,,,,,,,,,,,,,,,,,,,,,,,,,,,,,,,,,,,,,,,,,,,,,,,,,,,,,,,,,,,,,,,,126.62283937100005,131.613714545,,,,,011721,0,1,1,3,0,1,2,0,10,2021_Jan_17_1447,listening_fmri,3.2.4,59.60555890261598,
1,parcelated_audio/42/42_12.ogg,,,,,,,,,0,0,0,0,0,1,1,1,0,0,0,0,,,,,,,,,,,,,0,0,0,0,0,11,11,11,,,,,,,,,,,,,,,,,,,,,,,,,,,,,,,,,,,,,,,,,,,,,,,,,,,,,,,,,,,,,,,,,,,,,,,,,,,,,,,,,,,,,,,,,,,,,,,,,,,,,131.61399826299998,137.580269349,,,,,011721,0,1,1,3,0,1,2,0,10,2021_Jan_17_1447,listening_fmri,3.2.4,59.60555890261598,
1,parcelated_audio/42/42_13.ogg,,,,,,,,,0,0,0,0,0,1,1,1,0,0,0,0,,,,,,,,,,,,,0,0,0,0,0,12,12,12,,,,,,,,,,,,,,,,,,,,,,,,,,,,,,,,,,,,,,,,,,,,,,,,,,,,,,,,,,,,,,,,,,,,,,,,,,,,,,,,,,,,,,,,,,,,,,,,,,,,,137.58077561599998,144.73627399500015,,,,,011721,0,1,1,3,0,1,2,0,10,2021_Jan_17_1447,listening_fmri,3.2.4,59.60555890261598,
1,parcelated_audio/42/42_14.ogg,,,,,,,,,0,0,0,0,0,1,1,1,0,0,0,0,,,,,,,,,,,,,0,0,0,0,0,13,13,13,,,,,,,,,,,,,,,,,,,,,,,,,,,,,,,,,,,,,,,,,,,,,,,,,,,,,,,,,,,,,,,,,,,,,,,,,,,,,,,,,,,,,,,,,,,,,,,,,,,,,144.7365478160002,149.4563522750002,,,,,011721,0,1,1,3,0,1,2,0,10,2021_Jan_17_1447,listening_fmri,3.2.4,59.60555890261598,
1,parcelated_audio/42/42_15.ogg,,,,,,,,,0,0,0,0,0,1,1,1,0,0,0,0,,,,,,,,,,,,,0,0,0,0,0,14,14,14,,,,,,,,,,,,,,,,,,,,,,,,,,,,,,,,,,,,,,,,,,,,,,,,,,,,,,,,,,,,,,,,,,,,,,,,,,,,,,,,,,,,,,,,,,,,,,,,,,,,,149.4566294980002,155.30156913899987,,,,,011721,0,1,1,3,0,1,2,0,10,2021_Jan_17_1447,listening_fmri,3.2.4,59.60555890261598,
1,parcelated_audio/42/42_16.ogg,,,,,,,,,0,0,0,0,0,1,1,1,0,0,0,0,,,,,,,,,,,,,0,0,0,0,0,15,15,15,,,,,,,,,,,,,,,,,,,,,,,,,,,,,,,,,,,,,,,,,,,,,,,,,,,,,,,,,,,,,,,,,,,,,,,,,,,,,,,,,,,,,,,,,,,,,,,,,,,,,155.30185155899994,160.89355289299988,,,,,011721,0,1,1,3,0,1,2,0,10,2021_Jan_17_1447,listening_fmri,3.2.4,59.60555890261598,
1,parcelated_audio/42/42_17.ogg,,,,,,,,,0,0,0,0,0,1,1,1,0,0,0,0,,,,,,,,,,,,,0,0,0,0,0,16,16,16,,,,,,,,,,,,,,,,,,,,,,,,,,,,,,,,,,,,,,,,,,,,,,,,,,,,,,,,,,,,,,,,,,,,,,,,,,,,,,,,,,,,,,,,,,,,,,,,,,,,,160.89384008599995,170.57064149400026,,,,,011721,0,1,1,3,0,1,2,0,10,2021_Jan_17_1447,listening_fmri,3.2.4,59.60555890261598,
1,parcelated_audio/42/42_18.ogg,,,,,,,,,0,0,0,0,0,1,1,1,0,0,0,0,,,,,,,,,,,,,0,0,0,0,0,17,17,17,,,,,,,,,,,,,,,,,,,,,,,,,,,,,,,,,,,,,,,,,,,,,,,,,,,,,,,,,,,,,,,,,,,,,,,,,,,,,,,,,,,,,,,,,,,,,,,,,,,,,170.57092876599995,176.00186106200022,,,,,011721,0,1,1,3,0,1,2,0,10,2021_Jan_17_1447,listening_fmri,3.2.4,59.60555890261598,
1,parcelated_audio/42/42_19.ogg,,,,,,,,,0,0,0,0,0,1,1,1,0,0,0,0,,,,,,,,,,,,,0,0,0,0,0,18,18,18,,,,,,,,,,,,,,,,,,,,,,,,,,,,,,,,,,,,,,,,,,,,,,,,,,,,,,,,,,,,,,,,,,,,,,,,,,,,,,,,,,,,,,,,,,,,,,,,,,,,,176.00213633099997,185.14245775799986,,,,,011721,0,1,1,3,0,1,2,0,10,2021_Jan_17_1447,listening_fmri,3.2.4,59.60555890261598,
1,parcelated_audio/42/42_20.ogg,,,,,,,,,0,0,0,0,0,1,1,1,0,0,0,0,,,,,,,,,,,,,0,0,0,0,0,19,19,19,,,,,,,,,,,,,,,,,,,,,,,,,,,,,,,,,,,,,,,,,,,,,,,,,,,,,,,,,,,,,,,,,,,,,,,,,,,,,,,,,,,,,,,,,,,,,,,,,,,,,185.1427486529999,189.80076504000021,,,,,011721,0,1,1,3,0,1,2,0,10,2021_Jan_17_1447,listening_fmri,3.2.4,59.60555890261598,
1,parcelated_audio/42/42_21.ogg,,,,,,,,,0,0,0,0,0,1,1,1,0,0,0,0,,,,,,,,,,,,,0,0,0,0,0,20,20,20,,,,,,,,,,,,,,,,,,,,,,,,,,,,,,,,,,,,,,,,,,,,,,,,,,,,,,,,,,,,,,,,,,,,,,,,,,,,,,,,,,,,,,,,,,,,,,,,,,,,,189.80136178099997,199.70431061700015,,,,,011721,0,1,1,3,0,1,2,0,10,2021_Jan_17_1447,listening_fmri,3.2.4,59.60555890261598,
1,parcelated_audio/42/42_22.ogg,,,,,,,,,0,0,0,0,0,1,1,1,0,0,0,0,,,,,,,,,,,,,0,0,0,0,0,21,21,21,,,,,,,,,,,,,,,,,,,,,,,,,,,,,,,,,,,,,,,,,,,,,,,,,,,,,,,,,,,,,,,,,,,,,,,,,,,,,,,,,,,,,,,,,,,,,,,,,,,,,199.70469909200006,204.46728543999984,,,,,011721,0,1,1,3,0,1,2,0,10,2021_Jan_17_1447,listening_fmri,3.2.4,59.60555890261598,
1,parcelated_audio/42/42_23.ogg,,,,,,,,,0,0,0,0,0,1,1,1,0,0,0,0,,,,,,,,,,,,,0,0,0,0,0,22,22,22,,,,,,,,,,,,,,,,,,,,,,,,,,,,,,,,,,,,,,,,,,,,,,,,,,,,,,,,,,,,,,,,,,,,,,,,,,,,,,,,,,,,,,,,,,,,,,,,,,,,,204.46763984099994,210.78186852900012,,,,,011721,0,1,1,3,0,1,2,0,10,2021_Jan_17_1447,listening_fmri,3.2.4,59.60555890261598,
1,parcelated_audio/42/42_24.ogg,,,,,,,,,0,0,0,0,0,1,1,1,0,0,0,0,,,,,,,,,,,,,0,0,0,0,0,23,23,23,,,,,,,,,,,,,,,,,,,,,,,,,,,,,,,,,,,,,,,,,,,,,,,,,,,,,,,,,,,,,,,,,,,,,,,,,,,,,,,,,,,,,,,,,,,,,,,,,,,,,210.78222683199988,219.23190442100008,,,,,011721,0,1,1,3,0,1,2,0,10,2021_Jan_17_1447,listening_fmri,3.2.4,59.60555890261598,
1,parcelated_audio/42/42_25.ogg,,,,,,,,,0,0,0,0,0,1,1,1,0,0,0,0,,,,,,,,,,,,,0,0,0,0,0,24,24,24,,,,,,,,,,,,,,,,,,,,,,,,,,,,,,,,,,,,,,,,,,,,,,,,,,,,,,,,,,,,,,,,,,,,,,,,,,,,,,,,,,,,,,,,,,,,,,,,,,,,,219.23237735199996,225.45493092699985,,,,,011721,0,1,1,3,0,1,2,0,10,2021_Jan_17_1447,listening_fmri,3.2.4,59.60555890261598,
1,parcelated_audio/42/42_26.ogg,,,,,,,,,0,0,0,0,0,1,1,1,0,0,0,0,,,,,,,,,,,,,0,0,0,0,0,25,25,25,,,,,,,,,,,,,,,,,,,,,,,,,,,,,,,,,,,,,,,,,,,,,,,,,,,,,,,,,,,,,,,,,,,,,,,,,,,,,,,,,,,,,,,,,,,,,,,,,,,,,225.45528216300022,231.3458665400001,,,,,011721,0,1,1,3,0,1,2,0,10,2021_Jan_17_1447,listening_fmri,3.2.4,59.60555890261598,
1,parcelated_audio/42/42_27.ogg,,,,,,,,,0,0,0,0,0,1,1,1,0,0,0,0,,,,,,,,,,,,,0,0,0,0,0,26,26,26,,,,,,,,,,,,,,,,,,,,,,,,,,,,,,,,,,,,,,,,,,,,,,,,,,,,,,,,,,,,,,,,,,,,,,,,,,,,,,,,,,,,,,,,,,,,,,,,,,,,,231.34651678100022,239.04393653400007,,,,,011721,0,1,1,3,0,1,2,0,10,2021_Jan_17_1447,listening_fmri,3.2.4,59.60555890261598,
1,parcelated_audio/42/42_28.ogg,,,,,,,,,0,0,0,0,0,1,1,1,0,0,0,0,,,,,,,,,,,,,0,0,0,0,0,27,27,27,,,,,,,,,,,,,,,,,,,,,,,,,,,,,,,,,,,,,,,,,,,,,,,,,,,,,,,,,,,,,,,,,,,,,,,,,,,,,,,,,,,,,,,,,,,,,,,,,,,,,239.04428938000024,244.71480838399998,,,,,011721,0,1,1,3,0,1,2,0,10,2021_Jan_17_1447,listening_fmri,3.2.4,59.60555890261598,
1,parcelated_audio/42/42_29.ogg,,,,,,,,,0,0,0,0,0,1,1,1,0,0,0,0,,,,,,,,,,,,,0,0,0,0,0,28,28,28,,,,,,,,,,,,,,,,,,,,,,,,,,,,,,,,,,,,,,,,,,,,,,,,,,,,,,,,,,,,,,,,,,,,,,,,,,,,,,,,,,,,,,,,,,,,,,,,,,,,,244.7151323710002,251.60730737100016,,,,,011721,0,1,1,3,0,1,2,0,10,2021_Jan_17_1447,listening_fmri,3.2.4,59.60555890261598,
1,parcelated_audio/42/42_30.ogg,,,,,,,,,0,0,0,0,0,1,1,1,0,0,0,0,,,,,,,,,,,,,0,0,0,0,0,29,29,29,,,,,,,,,,,,,,,,,,,,,,,,,,,,,,,,,,,,,,,,,,,,,,,,,,,,,,,,,,,,,,,,,,,,,,,,,,,,,,,,,,,,,,,,,,,,,,,,,,,,,251.6075822549999,262.49548984499984,,,,,011721,0,1,1,3,0,1,2,0,10,2021_Jan_17_1447,listening_fmri,3.2.4,59.60555890261598,
1,parcelated_audio/42/42_31.ogg,,,,,,,,,0,0,0,0,0,1,1,1,0,0,0,0,,,,,,,,,,,,,0,0,0,0,0,30,30,30,,,,,,,,,,,,,,,,,,,,,,,,,,,,,,,,,,,,,,,,,,,,,,,,,,,,,,,,,,,,,,,,,,,,,,,,,,,,,,,,,,,,,,,,,,,,,,,,,,,,,262.49576705899995,268.68032989300013,,,,,011721,0,1,1,3,0,1,2,0,10,2021_Jan_17_1447,listening_fmri,3.2.4,59.60555890261598,
1,parcelated_audio/42/42_32.ogg,,,,,,,,,0,0,0,0,0,1,1,1,0,0,0,0,,,,,,,,,,,,,0,0,0,0,0,31,31,31,,,,,,,,,,,,,,,,,,,,,,,,,,,,,,,,,,,,,,,,,,,,,,,,,,,,,,,,,,,,,,,,,,,,,,,,,,,,,,,,,,,,,,,,,,,,,,,,,,,,,268.6807070309999,276.8347781939999,,,,,011721,0,1,1,3,0,1,2,0,10,2021_Jan_17_1447,listening_fmri,3.2.4,59.60555890261598,
1,parcelated_audio/42/42_33.ogg,,,,,,,,,0,0,0,0,0,1,1,1,0,0,0,0,,,,,,,,,,,,,0,0,0,0,0,32,32,32,,,,,,,,,,,,,,,,,,,,,,,,,,,,,,,,,,,,,,,,,,,,,,,,,,,,,,,,,,,,,,,,,,,,,,,,,,,,,,,,,,,,,,,,,,,,,,,,,,,,,276.83507610899983,283.88553666099983,,,,,011721,0,1,1,3,0,1,2,0,10,2021_Jan_17_1447,listening_fmri,3.2.4,59.60555890261598,
1,parcelated_audio/42/42_34.ogg,,,,,,,,,0,0,0,0,0,1,1,1,0,0,0,0,,,,,,,,,,,,,0,0,0,0,0,33,33,33,,,,,,,,,,,,,,,,,,,,,,,,,,,,,,,,,,,,,,,,,,,,,,,,,,,,,,,,,,,,,,,,,,,,,,,,,,,,,,,,,,,,,,,,,,,,,,,,,,,,,283.8858124290002,294.5922341420003,,,,,011721,0,1,1,3,0,1,2,0,10,2021_Jan_17_1447,listening_fmri,3.2.4,59.60555890261598,
1,parcelated_audio/42/42_35.ogg,,,,,,,,,0,0,0,0,0,1,1,1,0,0,0,0,,,,,,,,,,,,,0,0,0,0,0,34,34,34,,,,,,,,,,,,,,,,,,,,,,,,,,,,,,,,,,,,,,,,,,,,,,,,,,,,,,,,,,,,,,,,,,,,,,,,,,,,,,,,,,,,,,,,,,,,,,,,,,,,,294.59250457300027,304.3416808600002,,,,,011721,0,1,1,3,0,1,2,0,10,2021_Jan_17_1447,listening_fmri,3.2.4,59.60555890261598,
1,,,,,,,,,,0,0,0,0,0,1,1,1,0,0,0,0,,,,,,,,,,,,,0,0,0,0,,,,,,,,,,,,,,,,,,,,,,,,,,,,,,,,,,,,,,,,,,,,,,,,,,,,,,,,,,,,,,,,,,,,,,,,,,,,,,,,,,,,,,,,,,,,,,,,,,,,,,,,,,,,,,,011721,0,1,1,3,0,1,2,0,10,2021_Jan_17_1447,listening_fmri,3.2.4,59.60555890261598,
,,,,,,,,,,,,,,,,,,,,,,,,,,,,,,,,,,,,,,,,,,,,,,,,,,,,,,,,,,,304.34207870000023,310.3326319790001,355.0190008689997,None,,,,,,,,,,,,,,,,,,,,,,,,,,,,,,,,,,,,,,,,,,,,,,,,,,,,,,,,,,,,,,,,,,,,,,,,,,,,,,,,,,361.01960096799985,None,361.01960096799985,None,,,,,,,,,,,,,,,
﻿count,audio,trials_14.thisRepN,trials_14.thisTrialN,trials_14.thisN,trials_14.thisIndex,trials_3.thisRepN,trials_3.thisTrialN,trials_3.thisN,trials_3.thisIndex,trials_4.thisRepN,trials_4.thisTrialN,trials_4.thisN,trials_4.thisIndex,trials_6.thisRepN,trials_6.thisTrialN,trials_6.thisN,trials_6.thisIndex,trials_9.thisRepN,trials_9.thisTrialN,trials_9.thisN,trials_9.thisIndex,trials_10.thisRepN,trials_10.thisTrialN,trials_10.thisN,trials_10.thisIndex,trials_11.thisRepN,trials_11.thisTrialN,trials_11.thisN,trials_11.thisIndex,trials_12.thisRepN,trials_12.thisTrialN,trials_12.thisN,trials_12.thisIndex,trials_25.thisRepN,trials_25.thisTrialN,trials_25.thisN,trials_25.thisIndex,trials_15.thisRepN,trials_15.thisTrialN,trials_15.thisN,trials_15.thisIndex,trials_26.thisRepN,trials_26.thisTrialN,trials_26.thisN,trials_26.thisIndex,story_list_block2,action_list_block2,textTrigger.started,textTrigger.stopped,getTrigger.keys,getTrigger.rt,getTrigger.started,getTrigger.stopped,triggerTime,text_76.started,text_76.stopped,text_77.started,text_77.stopped,startWait,endWait,image_23.started,image_23.stopped,text_55.started,text_55.stopped,text_56.started,text_56.stopped,key_resp_2.keys,key_resp_2.rt,key_resp_2.started,key_resp_2.stopped,text_82.started,text_82.stopped,text_57.started,text_57.stopped,key_resp_17.keys,key_resp_17.rt,key_resp_17.started,key_resp_17.stopped,text_83.started,text_83.stopped,text_60.started,text_60.stopped,image_2.started,image_2.stopped,text_58.started,text_58.stopped,key_resp_23.keys,key_resp_23.rt,key_resp_23.started,key_resp_23.stopped,text_62.started,text_62.stopped,key_resp_18.keys,key_resp_18.rt,key_resp_18.started,key_resp_18.stopped,text_84.started,text_84.stopped,question1_2.started,question1_2.stopped,question2_2.started,question2_2.stopped,question3_2.started,question3_2.stopped,question4_2.started,question4_2.stopped,question5_2.started,question5_2.stopped,question6_2.started,question6_2.stopped,image_15.started,image_15.stopped,key_resp.keys,key_resp.started,key_resp.stopped,text_59.started,text_59.stopped,key_resp_19.keys,key_resp_19.rt,key_resp_19.started,key_resp_19.stopped,text_85.started,text_85.stopped,text_61.started,text_61.stopped,image_17.started,image_17.stopped,text_63.started,text_63.stopped,key_resp_24.keys,key_resp_24.rt,key_resp_24.started,key_resp_24.stopped,text_64.started,text_64.stopped,key_resp_20.keys,key_resp_20.rt,key_resp_20.started,key_resp_20.stopped,storyImage_StartTime,storyImage_EndTime,clip_StartTime,clip_EndTime,text_67.started,text_67.stopped,text_68.started,text_68.stopped,participant,sA,sB,lA,lB,block_struct,play_stories,block,behavioral,random_seed,date,expName,psychopyVersion,frameRate,
0,,,,,,,,,,0,0,0,0,0,0,0,0,,,,,,,,,,,,,,,,,,,,,,,,,,,,,[22 42 31 33 44 24 11 13],[3 2 4 4 2 3 1 1],22.10259188499981,None,equal,28.56285291999984,22.10259188499981,None,28.58206260299994,22.10259188499981,None,22.10259188499981,None,0.0003633660001014505,6.015336296999976,50.69161600999996,None,,,,,,,,,,,,,,,,,,,,,,,,,,,,,,,,,,,,,,,,,,,,,,,,,,,,,,,,,,,,,,,,,,,,,,,,,,,,,,,,,,,,,,011721,0,1,1,3,0,1,2,0,10,2021_Jan_17_1447,listening_fmri,3.2.4,59.60555890261598,
1,,,,,,,,,,0,0,0,0,0,1,1,1,0,0,0,0,0,0,0,0,0,0,0,0,,,,,,,,,,,,,,,,,,,,,,,,,,,,,,,,,,56.70242799999983,None,56.70242799999983,None,1,1.9228711380001187,56.70242799999983,None,56.70242799999983,None,58.65789816999995,None,1,1.5485020650000934,58.65789816999995,None,58.65789816999995,None,60.258069122999814,None,60.258069122999814,None,60.258069122999814,None,1,1.5683769249999386,60.258069122999814,None,61.852733084999954,None,1,1.9097333150000395,61.852733084999954,None,61.852733084999954,None,63.86936081999988,None,63.86936081999988,None,63.86936081999988,None,63.86936081999988,None,63.86936081999988,None,63.86936081999988,None,63.86936081999988,None,None,63.86936081999988,None,,,,,,,,,,,,,,,,,,,,,,,,,,,,,,,,,011721,0,1,1,3,0,1,2,0,10,2021_Jan_17_1447,listening_fmri,3.2.4,59.60555890261598,
1,,,,,,,,,,0,0,0,0,0,1,1,1,0,0,0,0,0,0,0,0,,,,,,,,,,,,,,,,,,,,,,,,,,,,,,,,,,,,,,,,,,,,,,,,,,,,,,,,,,,,,,,,,,,,,,,,,,,,,,,,,,,,,,,,,,,83.0527874559998,None,1,3.0345608390000507,83.0527874559998,None,83.0527874559998,None,86.13599551099992,None,86.13599551099992,None,86.13599551099992,None,1,1.8434428759999264,86.13599551099992,None,,,,,,,,,,,,,,,011721,0,1,1,3,0,1,2,0,10,2021_Jan_17_1447,listening_fmri,3.2.4,59.60555890261598,
1,parcelated_audio/42/42_1.ogg,,,,,,,,,0,0,0,0,0,1,1,1,0,0,0,0,,,,,,,,,,,,,0,0,0,0,0,0,0,0,,,,,,,,,,,,,,,,,,,,,,,,,,,,,,,,,,,,,,,,,,,,,,,,,,,,,,,,,,,,,,,,,,,,,,,,,,,,,,,,,,,,,,,,,,,,,88.00257954599988,None,1,1.8688510049998968,88.00257954599988,None,39.21732798700009,42.23148468399995,42.23651608900013,50.61893374700003,,,,,011721,0,1,1,3,0,1,2,0,10,2021_Jan_17_1447,listening_fmri,3.2.4,59.60555890261598,
1,parcelated_audio/42/42_2.ogg,,,,,,,,,0,0,0,0,0,1,1,1,0,0,0,0,,,,,,,,,,,,,0,0,0,0,0,1,1,1,,,,,,,,,,,,,,,,,,,,,,,,,,,,,,,,,,,,,,,,,,,,,,,,,,,,,,,,,,,,,,,,,,,,,,,,,,,,,,,,,,,,,,,,,,,,,,,,,,,,,50.61980831999995,63.354939275000106,,,,,011721,0,1,1,3,0,1,2,0,10,2021_Jan_17_1447,listening_fmri,3.2.4,59.60555890261598,
1,parcelated_audio/42/42_3.ogg,,,,,,,,,0,0,0,0,0,1,1,1,0,0,0,0,,,,,,,,,,,,,0,0,0,0,0,2,2,2,,,,,,,,,,,,,,,,,,,,,,,,,,,,,,,,,,,,,,,,,,,,,,,,,,,,,,,,,,,,,,,,,,,,,,,,,,,,,,,,,,,,,,,,,,,,,,,,,,,,,63.3552071040001,73.75272130200005,,,,,011721,0,1,1,3,0,1,2,0,10,2021_Jan_17_1447,listening_fmri,3.2.4,59.60555890261598,
1,parcelated_audio/42/42_4.ogg,,,,,,,,,0,0,0,0,0,1,1,1,0,0,0,0,,,,,,,,,,,,,0,0,0,0,0,3,3,3,,,,,,,,,,,,,,,,,,,,,,,,,,,,,,,,,,,,,,,,,,,,,,,,,,,,,,,,,,,,,,,,,,,,,,,,,,,,,,,,,,,,,,,,,,,,,,,,,,,,,73.7530054020001,87.44801592299996,,,,,011721,0,1,1,3,0,1,2,0,10,2021_Jan_17_1447,listening_fmri,3.2.4,59.60555890261598,
1,parcelated_audio/42/42_5.ogg,,,,,,,,,0,0,0,0,0,1,1,1,0,0,0,0,,,,,,,,,,,,,0,0,0,0,0,4,4,4,,,,,,,,,,,,,,,,,,,,,,,,,,,,,,,,,,,,,,,,,,,,,,,,,,,,,,,,,,,,,,,,,,,,,,,,,,,,,,,,,,,,,,,,,,,,,,,,,,,,,87.4483704700001,98.88845384399997,,,,,011721,0,1,1,3,0,1,2,0,10,2021_Jan_17_1447,listening_fmri,3.2.4,59.60555890261598,
1,parcelated_audio/42/42_6.ogg,,,,,,,,,0,0,0,0,0,1,1,1,0,0,0,0,,,,,,,,,,,,,0,0,0,0,0,5,5,5,,,,,,,,,,,,,,,,,,,,,,,,,,,,,,,,,,,,,,,,,,,,,,,,,,,,,,,,,,,,,,,,,,,,,,,,,,,,,,,,,,,,,,,,,,,,,,,,,,,,,98.88880343799997,105.37792471700004,,,,,011721,0,1,1,3,0,1,2,0,10,2021_Jan_17_1447,listening_fmri,3.2.4,59.60555890261598,
1,parcelated_audio/42/42_7.ogg,,,,,,,,,0,0,0,0,0,1,1,1,0,0,0,0,,,,,,,,,,,,,0,0,0,0,0,6,6,6,,,,,,,,,,,,,,,,,,,,,,,,,,,,,,,,,,,,,,,,,,,,,,,,,,,,,,,,,,,,,,,,,,,,,,,,,,,,,,,,,,,,,,,,,,,,,,,,,,,,,105.38095116099998,110.58720495000011,,,,,011721,0,1,1,3,0,1,2,0,10,2021_Jan_17_1447,listening_fmri,3.2.4,59.60555890261598,
1,parcelated_audio/42/42_8.ogg,,,,,,,,,0,0,0,0,0,1,1,1,0,0,0,0,,,,,,,,,,,,,0,0,0,0,0,7,7,7,,,,,,,,,,,,,,,,,,,,,,,,,,,,,,,,,,,,,,,,,,,,,,,,,,,,,,,,,,,,,,,,,,,,,,,,,,,,,,,,,,,,,,,,,,,,,,,,,,,,,110.58765455000002,113.75250037299998,,,,,011721,0,1,1,3,0,1,2,0,10,2021_Jan_17_1447,listening_fmri,3.2.4,59.60555890261598,
1,parcelated_audio/42/42_9.ogg,,,,,,,,,0,0,0,0,0,1,1,1,0,0,0,0,,,,,,,,,,,,,0,0,0,0,0,8,8,8,,,,,,,,,,,,,,,,,,,,,,,,,,,,,,,,,,,,,,,,,,,,,,,,,,,,,,,,,,,,,,,,,,,,,,,,,,,,,,,,,,,,,,,,,,,,,,,,,,,,,113.75290109800017,122.30369111699997,,,,,011721,0,1,1,3,0,1,2,0,10,2021_Jan_17_1447,listening_fmri,3.2.4,59.60555890261598,
1,parcelated_audio/42/42_10.ogg,,,,,,,,,0,0,0,0,0,1,1,1,0,0,0,0,,,,,,,,,,,,,0,0,0,0,0,9,9,9,,,,,,,,,,,,,,,,,,,,,,,,,,,,,,,,,,,,,,,,,,,,,,,,,,,,,,,,,,,,,,,,,,,,,,,,,,,,,,,,,,,,,,,,,,,,,,,,,,,,,122.30396946500014,126.62256729800015,,,,,011721,0,1,1,3,0,1,2,0,10,2021_Jan_17_1447,listening_fmri,3.2.4,59.60555890261598,
1,parcelated_audio/42/42_11.ogg,,,,,,,,,0,0,0,0,0,1,1,1,0,0,0,0,,,,,,,,,,,,,0,0,0,0,0,10,10,10,,,,,,,,,,,,,,,,,,,,,,,,,,,,,,,,,,,,,,,,,,,,,,,,,,,,,,,,,,,,,,,,,,,,,,,,,,,,,,,,,,,,,,,,,,,,,,,,,,,,,126.62283937100005,131.613714545,,,,,011721,0,1,1,3,0,1,2,0,10,2021_Jan_17_1447,listening_fmri,3.2.4,59.60555890261598,
1,parcelated_audio/42/42_12.ogg,,,,,,,,,0,0,0,0,0,1,1,1,0,0,0,0,,,,,,,,,,,,,0,0,0,0,0,11,11,11,,,,,,,,,,,,,,,,,,,,,,,,,,,,,,,,,,,,,,,,,,,,,,,,,,,,,,,,,,,,,,,,,,,,,,,,,,,,,,,,,,,,,,,,,,,,,,,,,,,,,131.61399826299998,137.580269349,,,,,011721,0,1,1,3,0,1,2,0,10,2021_Jan_17_1447,listening_fmri,3.2.4,59.60555890261598,
1,parcelated_audio/42/42_13.ogg,,,,,,,,,0,0,0,0,0,1,1,1,0,0,0,0,,,,,,,,,,,,,0,0,0,0,0,12,12,12,,,,,,,,,,,,,,,,,,,,,,,,,,,,,,,,,,,,,,,,,,,,,,,,,,,,,,,,,,,,,,,,,,,,,,,,,,,,,,,,,,,,,,,,,,,,,,,,,,,,,137.58077561599998,144.73627399500015,,,,,011721,0,1,1,3,0,1,2,0,10,2021_Jan_17_1447,listening_fmri,3.2.4,59.60555890261598,
1,parcelated_audio/42/42_14.ogg,,,,,,,,,0,0,0,0,0,1,1,1,0,0,0,0,,,,,,,,,,,,,0,0,0,0,0,13,13,13,,,,,,,,,,,,,,,,,,,,,,,,,,,,,,,,,,,,,,,,,,,,,,,,,,,,,,,,,,,,,,,,,,,,,,,,,,,,,,,,,,,,,,,,,,,,,,,,,,,,,144.7365478160002,149.4563522750002,,,,,011721,0,1,1,3,0,1,2,0,10,2021_Jan_17_1447,listening_fmri,3.2.4,59.60555890261598,
1,parcelated_audio/42/42_15.ogg,,,,,,,,,0,0,0,0,0,1,1,1,0,0,0,0,,,,,,,,,,,,,0,0,0,0,0,14,14,14,,,,,,,,,,,,,,,,,,,,,,,,,,,,,,,,,,,,,,,,,,,,,,,,,,,,,,,,,,,,,,,,,,,,,,,,,,,,,,,,,,,,,,,,,,,,,,,,,,,,,149.4566294980002,155.30156913899987,,,,,011721,0,1,1,3,0,1,2,0,10,2021_Jan_17_1447,listening_fmri,3.2.4,59.60555890261598,
1,parcelated_audio/42/42_16.ogg,,,,,,,,,0,0,0,0,0,1,1,1,0,0,0,0,,,,,,,,,,,,,0,0,0,0,0,15,15,15,,,,,,,,,,,,,,,,,,,,,,,,,,,,,,,,,,,,,,,,,,,,,,,,,,,,,,,,,,,,,,,,,,,,,,,,,,,,,,,,,,,,,,,,,,,,,,,,,,,,,155.30185155899994,160.89355289299988,,,,,011721,0,1,1,3,0,1,2,0,10,2021_Jan_17_1447,listening_fmri,3.2.4,59.60555890261598,
1,parcelated_audio/42/42_17.ogg,,,,,,,,,0,0,0,0,0,1,1,1,0,0,0,0,,,,,,,,,,,,,0,0,0,0,0,16,16,16,,,,,,,,,,,,,,,,,,,,,,,,,,,,,,,,,,,,,,,,,,,,,,,,,,,,,,,,,,,,,,,,,,,,,,,,,,,,,,,,,,,,,,,,,,,,,,,,,,,,,160.89384008599995,170.57064149400026,,,,,011721,0,1,1,3,0,1,2,0,10,2021_Jan_17_1447,listening_fmri,3.2.4,59.60555890261598,
1,parcelated_audio/42/42_18.ogg,,,,,,,,,0,0,0,0,0,1,1,1,0,0,0,0,,,,,,,,,,,,,0,0,0,0,0,17,17,17,,,,,,,,,,,,,,,,,,,,,,,,,,,,,,,,,,,,,,,,,,,,,,,,,,,,,,,,,,,,,,,,,,,,,,,,,,,,,,,,,,,,,,,,,,,,,,,,,,,,,170.57092876599995,176.00186106200022,,,,,011721,0,1,1,3,0,1,2,0,10,2021_Jan_17_1447,listening_fmri,3.2.4,59.60555890261598,
1,parcelated_audio/42/42_19.ogg,,,,,,,,,0,0,0,0,0,1,1,1,0,0,0,0,,,,,,,,,,,,,0,0,0,0,0,18,18,18,,,,,,,,,,,,,,,,,,,,,,,,,,,,,,,,,,,,,,,,,,,,,,,,,,,,,,,,,,,,,,,,,,,,,,,,,,,,,,,,,,,,,,,,,,,,,,,,,,,,,176.00213633099997,185.14245775799986,,,,,011721,0,1,1,3,0,1,2,0,10,2021_Jan_17_1447,listening_fmri,3.2.4,59.60555890261598,
1,parcelated_audio/42/42_20.ogg,,,,,,,,,0,0,0,0,0,1,1,1,0,0,0,0,,,,,,,,,,,,,0,0,0,0,0,19,19,19,,,,,,,,,,,,,,,,,,,,,,,,,,,,,,,,,,,,,,,,,,,,,,,,,,,,,,,,,,,,,,,,,,,,,,,,,,,,,,,,,,,,,,,,,,,,,,,,,,,,,185.1427486529999,189.80076504000021,,,,,011721,0,1,1,3,0,1,2,0,10,2021_Jan_17_1447,listening_fmri,3.2.4,59.60555890261598,
1,parcelated_audio/42/42_21.ogg,,,,,,,,,0,0,0,0,0,1,1,1,0,0,0,0,,,,,,,,,,,,,0,0,0,0,0,20,20,20,,,,,,,,,,,,,,,,,,,,,,,,,,,,,,,,,,,,,,,,,,,,,,,,,,,,,,,,,,,,,,,,,,,,,,,,,,,,,,,,,,,,,,,,,,,,,,,,,,,,,189.80136178099997,199.70431061700015,,,,,011721,0,1,1,3,0,1,2,0,10,2021_Jan_17_1447,listening_fmri,3.2.4,59.60555890261598,
1,parcelated_audio/42/42_22.ogg,,,,,,,,,0,0,0,0,0,1,1,1,0,0,0,0,,,,,,,,,,,,,0,0,0,0,0,21,21,21,,,,,,,,,,,,,,,,,,,,,,,,,,,,,,,,,,,,,,,,,,,,,,,,,,,,,,,,,,,,,,,,,,,,,,,,,,,,,,,,,,,,,,,,,,,,,,,,,,,,,199.70469909200006,204.46728543999984,,,,,011721,0,1,1,3,0,1,2,0,10,2021_Jan_17_1447,listening_fmri,3.2.4,59.60555890261598,
1,parcelated_audio/42/42_23.ogg,,,,,,,,,0,0,0,0,0,1,1,1,0,0,0,0,,,,,,,,,,,,,0,0,0,0,0,22,22,22,,,,,,,,,,,,,,,,,,,,,,,,,,,,,,,,,,,,,,,,,,,,,,,,,,,,,,,,,,,,,,,,,,,,,,,,,,,,,,,,,,,,,,,,,,,,,,,,,,,,,204.46763984099994,210.78186852900012,,,,,011721,0,1,1,3,0,1,2,0,10,2021_Jan_17_1447,listening_fmri,3.2.4,59.60555890261598,
1,parcelated_audio/42/42_24.ogg,,,,,,,,,0,0,0,0,0,1,1,1,0,0,0,0,,,,,,,,,,,,,0,0,0,0,0,23,23,23,,,,,,,,,,,,,,,,,,,,,,,,,,,,,,,,,,,,,,,,,,,,,,,,,,,,,,,,,,,,,,,,,,,,,,,,,,,,,,,,,,,,,,,,,,,,,,,,,,,,,210.78222683199988,219.23190442100008,,,,,011721,0,1,1,3,0,1,2,0,10,2021_Jan_17_1447,listening_fmri,3.2.4,59.60555890261598,
1,parcelated_audio/42/42_25.ogg,,,,,,,,,0,0,0,0,0,1,1,1,0,0,0,0,,,,,,,,,,,,,0,0,0,0,0,24,24,24,,,,,,,,,,,,,,,,,,,,,,,,,,,,,,,,,,,,,,,,,,,,,,,,,,,,,,,,,,,,,,,,,,,,,,,,,,,,,,,,,,,,,,,,,,,,,,,,,,,,,219.23237735199996,225.45493092699985,,,,,011721,0,1,1,3,0,1,2,0,10,2021_Jan_17_1447,listening_fmri,3.2.4,59.60555890261598,
1,parcelated_audio/42/42_26.ogg,,,,,,,,,0,0,0,0,0,1,1,1,0,0,0,0,,,,,,,,,,,,,0,0,0,0,0,25,25,25,,,,,,,,,,,,,,,,,,,,,,,,,,,,,,,,,,,,,,,,,,,,,,,,,,,,,,,,,,,,,,,,,,,,,,,,,,,,,,,,,,,,,,,,,,,,,,,,,,,,,225.45528216300022,231.3458665400001,,,,,011721,0,1,1,3,0,1,2,0,10,2021_Jan_17_1447,listening_fmri,3.2.4,59.60555890261598,
1,parcelated_audio/42/42_27.ogg,,,,,,,,,0,0,0,0,0,1,1,1,0,0,0,0,,,,,,,,,,,,,0,0,0,0,0,26,26,26,,,,,,,,,,,,,,,,,,,,,,,,,,,,,,,,,,,,,,,,,,,,,,,,,,,,,,,,,,,,,,,,,,,,,,,,,,,,,,,,,,,,,,,,,,,,,,,,,,,,,231.34651678100022,239.04393653400007,,,,,011721,0,1,1,3,0,1,2,0,10,2021_Jan_17_1447,listening_fmri,3.2.4,59.60555890261598,
1,parcelated_audio/42/42_28.ogg,,,,,,,,,0,0,0,0,0,1,1,1,0,0,0,0,,,,,,,,,,,,,0,0,0,0,0,27,27,27,,,,,,,,,,,,,,,,,,,,,,,,,,,,,,,,,,,,,,,,,,,,,,,,,,,,,,,,,,,,,,,,,,,,,,,,,,,,,,,,,,,,,,,,,,,,,,,,,,,,,239.04428938000024,244.71480838399998,,,,,011721,0,1,1,3,0,1,2,0,10,2021_Jan_17_1447,listening_fmri,3.2.4,59.60555890261598,
1,parcelated_audio/42/42_29.ogg,,,,,,,,,0,0,0,0,0,1,1,1,0,0,0,0,,,,,,,,,,,,,0,0,0,0,0,28,28,28,,,,,,,,,,,,,,,,,,,,,,,,,,,,,,,,,,,,,,,,,,,,,,,,,,,,,,,,,,,,,,,,,,,,,,,,,,,,,,,,,,,,,,,,,,,,,,,,,,,,,244.7151323710002,251.60730737100016,,,,,011721,0,1,1,3,0,1,2,0,10,2021_Jan_17_1447,listening_fmri,3.2.4,59.60555890261598,
1,parcelated_audio/42/42_30.ogg,,,,,,,,,0,0,0,0,0,1,1,1,0,0,0,0,,,,,,,,,,,,,0,0,0,0,0,29,29,29,,,,,,,,,,,,,,,,,,,,,,,,,,,,,,,,,,,,,,,,,,,,,,,,,,,,,,,,,,,,,,,,,,,,,,,,,,,,,,,,,,,,,,,,,,,,,,,,,,,,,251.6075822549999,262.49548984499984,,,,,011721,0,1,1,3,0,1,2,0,10,2021_Jan_17_1447,listening_fmri,3.2.4,59.60555890261598,
1,parcelated_audio/42/42_31.ogg,,,,,,,,,0,0,0,0,0,1,1,1,0,0,0,0,,,,,,,,,,,,,0,0,0,0,0,30,30,30,,,,,,,,,,,,,,,,,,,,,,,,,,,,,,,,,,,,,,,,,,,,,,,,,,,,,,,,,,,,,,,,,,,,,,,,,,,,,,,,,,,,,,,,,,,,,,,,,,,,,262.49576705899995,268.68032989300013,,,,,011721,0,1,1,3,0,1,2,0,10,2021_Jan_17_1447,listening_fmri,3.2.4,59.60555890261598,
1,parcelated_audio/42/42_32.ogg,,,,,,,,,0,0,0,0,0,1,1,1,0,0,0,0,,,,,,,,,,,,,0,0,0,0,0,31,31,31,,,,,,,,,,,,,,,,,,,,,,,,,,,,,,,,,,,,,,,,,,,,,,,,,,,,,,,,,,,,,,,,,,,,,,,,,,,,,,,,,,,,,,,,,,,,,,,,,,,,,268.6807070309999,276.8347781939999,,,,,011721,0,1,1,3,0,1,2,0,10,2021_Jan_17_1447,listening_fmri,3.2.4,59.60555890261598,
1,parcelated_audio/42/42_33.ogg,,,,,,,,,0,0,0,0,0,1,1,1,0,0,0,0,,,,,,,,,,,,,0,0,0,0,0,32,32,32,,,,,,,,,,,,,,,,,,,,,,,,,,,,,,,,,,,,,,,,,,,,,,,,,,,,,,,,,,,,,,,,,,,,,,,,,,,,,,,,,,,,,,,,,,,,,,,,,,,,,276.83507610899983,283.88553666099983,,,,,011721,0,1,1,3,0,1,2,0,10,2021_Jan_17_1447,listening_fmri,3.2.4,59.60555890261598,
1,parcelated_audio/42/42_34.ogg,,,,,,,,,0,0,0,0,0,1,1,1,0,0,0,0,,,,,,,,,,,,,0,0,0,0,0,33,33,33,,,,,,,,,,,,,,,,,,,,,,,,,,,,,,,,,,,,,,,,,,,,,,,,,,,,,,,,,,,,,,,,,,,,,,,,,,,,,,,,,,,,,,,,,,,,,,,,,,,,,283.8858124290002,294.5922341420003,,,,,011721,0,1,1,3,0,1,2,0,10,2021_Jan_17_1447,listening_fmri,3.2.4,59.60555890261598,
1,parcelated_audio/42/42_35.ogg,,,,,,,,,0,0,0,0,0,1,1,1,0,0,0,0,,,,,,,,,,,,,0,0,0,0,0,34,34,34,,,,,,,,,,,,,,,,,,,,,,,,,,,,,,,,,,,,,,,,,,,,,,,,,,,,,,,,,,,,,,,,,,,,,,,,,,,,,,,,,,,,,,,,,,,,,,,,,,,,,294.59250457300027,304.3416808600002,,,,,011721,0,1,1,3,0,1,2,0,10,2021_Jan_17_1447,listening_fmri,3.2.4,59.60555890261598,
1,,,,,,,,,,0,0,0,0,0,1,1,1,0,0,0,0,,,,,,,,,,,,,0,0,0,0,,,,,,,,,,,,,,,,,,,,,,,,,,,,,,,,,,,,,,,,,,,,,,,,,,,,,,,,,,,,,,,,,,,,,,,,,,,,,,,,,,,,,,,,,,,,,,,,,,,,,,,,,,,,,,,011721,0,1,1,3,0,1,2,0,10,2021_Jan_17_1447,listening_fmri,3.2.4,59.60555890261598,
1,,,,,,,,,,0,0,0,0,0,1,1,1,0,0,0,0,,,,,,,,,,,,,,,,,,,,,,,,,,,,,,,,,,,,,,304.34207870000023,310.3326319790001,355.0190008689997,None,,,,,,,,,,,,,,,,,,,,,,,,,,,,,,,,,,,,,,,,,,,,,,,,,,,,,,,,,,,,,,,,,,,,,,,,,,,,,,,,,,361.01960096799985,None,361.01960096799985,None,011721,0,1,1,3,0,1,2,0,10,2021_Jan_17_1447,listening_fmri,3.2.4,59.60555890261598,
1,,,,,,,,,,0,0,0,0,0,1,1,1,,,,,,,,,,,,,,,,,,,,,,,,,,,,,,,,,,,,,,,,,,,,,,,,,,,,,,,,,,,,,,,,,,,,,,,,,,,,,,,,,,,,,,,,,,,,,,,,,,,,,,,,,,,,,,,,,,,,,,,,,,,,,,,,,,,011721,0,1,1,3,0,1,2,0,10,2021_Jan_17_1447,listening_fmri,3.2.4,59.60555890261598,
2,parcelated_audio/31/31_1.ogg,,,,,,,,,0,0,0,0,0,2,2,2,0,0,0,0,,,,,,,,,,,,,0,0,0,0,0,0,0,0,,,,,,,,,,,,,,,,,,,,,,362.0358260859998,None,362.0358260859998,None,1,0.7646245900000395,362.0358260859998,None,362.0358260859998,None,,,,,,,,,,,,,,,,,,,,,,,,,,,,,,,,,,,,,,,,,,,,,,,,,,,,,,,,,,,,,,362.81954619,None,1,1.3479315900003712,362.81954619,None,313.5046990600001,316.51500265100026,316.5201432790002,325.19789080199985,,,,,011721,0,1,1,3,0,1,2,0,10,2021_Jan_17_1447,listening_fmri,3.2.4,59.60555890261598,
2,parcelated_audio/31/31_2.ogg,,,,,,,,,0,0,0,0,0,2,2,2,0,0,0,0,,,,,,,,,,,,,0,0,0,0,0,1,1,1,,,,,,,,,,,,,,,,,,,,,,,,,,,,,,,,,,,,,,,,,,,,,,,,,,,,,,,,,,,,,,,,,,,,,,,,,,,,,,,,,,,,,,,,,,,,,,,,,,,,,325.1982046410001,329.64371092099987,,,,,011721,0,1,1,3,0,1,2,0,10,2021_Jan_17_1447,listening_fmri,3.2.4,59.60555890261598,
2,parcelated_audio/31/31_3.ogg,,,,,,,,,0,0,0,0,0,2,2,2,0,0,0,0,,,,,,,,,,,,,0,0,0,0,0,2,2,2,,,,,,,,,,,,,,,,,,,,,,,,,,,,,,,,,,,,,,,,,,,,,,,,,,,,,,,,,,,,,,,,,,,,,,,,,,,,,,,,,,,,,,,,,,,,,,,,,,,,,329.6440295929999,337.93214554500014,,,,,011721,0,1,1,3,0,1,2,0,10,2021_Jan_17_1447,listening_fmri,3.2.4,59.60555890261598,
2,parcelated_audio/31/31_4.ogg,,,,,,,,,0,0,0,0,0,2,2,2,0,0,0,0,,,,,,,,,,,,,0,0,0,0,0,3,3,3,,,,,,,,,,,,,,,,,,,,,,,,,,,,,,,,,,,,,,,,,,,,,,,,,,,,,,,,,,,,,,,,,,,,,,,,,,,,,,,,,,,,,,,,,,,,,,,,,,,,,337.9324230079999,348.00570503799986,,,,,011721,0,1,1,3,0,1,2,0,10,2021_Jan_17_1447,listening_fmri,3.2.4,59.60555890261598,
2,parcelated_audio/31/31_5.ogg,,,,,,,,,0,0,0,0,0,2,2,2,0,0,0,0,,,,,,,,,,,,,0,0,0,0,0,4,4,4,,,,,,,,,,,,,,,,,,,,,,,,,,,,,,,,,,,,,,,,,,,,,,,,,,,,,,,,,,,,,,,,,,,,,,,,,,,,,,,,,,,,,,,,,,,,,,,,,,,,,348.00602532300013,359.12004003200013,,,,,011721,0,1,1,3,0,1,2,0,10,2021_Jan_17_1447,listening_fmri,3.2.4,59.60555890261598,
2,parcelated_audio/31/31_6.ogg,,,,,,,,,0,0,0,0,0,2,2,2,0,0,0,0,,,,,,,,,,,,,0,0,0,0,0,5,5,5,,,,,,,,,,,,,,,,,,,,,,,,,,,,,,,,,,,,,,,,,,,,,,,,,,,,,,,,,,,,,,,,,,,,,,,,,,,,,,,,,,,,,,,,,,,,,,,,,,,,,359.120316066,364.434966217,,,,,011721,0,1,1,3,0,1,2,0,10,2021_Jan_17_1447,listening_fmri,3.2.4,59.60555890261598,
2,parcelated_audio/31/31_7.ogg,,,,,,,,,0,0,0,0,0,2,2,2,0,0,0,0,,,,,,,,,,,,,0,0,0,0,0,6,6,6,,,,,,,,,,,,,,,,,,,,,,,,,,,,,,,,,,,,,,,,,,,,,,,,,,,,,,,,,,,,,,,,,,,,,,,,,,,,,,,,,,,,,,,,,,,,,,,,,,,,,364.43521966699996,369.2801968860001,,,,,011721,0,1,1,3,0,1,2,0,10,2021_Jan_17_1447,listening_fmri,3.2.4,59.60555890261598,
2,parcelated_audio/31/31_8.ogg,,,,,,,,,0,0,0,0,0,2,2,2,0,0,0,0,,,,,,,,,,,,,0,0,0,0,0,7,7,7,,,,,,,,,,,,,,,,,,,,,,,,,,,,,,,,,,,,,,,,,,,,,,,,,,,,,,,,,,,,,,,,,,,,,,,,,,,,,,,,,,,,,,,,,,,,,,,,,,,,,369.280472228,377.73368061999986,,,,,011721,0,1,1,3,0,1,2,0,10,2021_Jan_17_1447,listening_fmri,3.2.4,59.60555890261598,
2,parcelated_audio/31/31_9.ogg,,,,,,,,,0,0,0,0,0,2,2,2,0,0,0,0,,,,,,,,,,,,,0,0,0,0,0,8,8,8,,,,,,,,,,,,,,,,,,,,,,,,,,,,,,,,,,,,,,,,,,,,,,,,,,,,,,,,,,,,,,,,,,,,,,,,,,,,,,,,,,,,,,,,,,,,,,,,,,,,,377.73396537400026,382.8034822500001,,,,,011721,0,1,1,3,0,1,2,0,10,2021_Jan_17_1447,listening_fmri,3.2.4,59.60555890261598,
2,parcelated_audio/31/31_10.ogg,,,,,,,,,0,0,0,0,0,2,2,2,0,0,0,0,,,,,,,,,,,,,0,0,0,0,0,9,9,9,,,,,,,,,,,,,,,,,,,,,,,,,,,,,,,,,,,,,,,,,,,,,,,,,,,,,,,,,,,,,,,,,,,,,,,,,,,,,,,,,,,,,,,,,,,,,,,,,,,,,382.80378121399986,388.309702023,,,,,011721,0,1,1,3,0,1,2,0,10,2021_Jan_17_1447,listening_fmri,3.2.4,59.60555890261598,
2,parcelated_audio/31/31_11.ogg,,,,,,,,,0,0,0,0,0,2,2,2,0,0,0,0,,,,,,,,,,,,,0,0,0,0,0,10,10,10,,,,,,,,,,,,,,,,,,,,,,,,,,,,,,,,,,,,,,,,,,,,,,,,,,,,,,,,,,,,,,,,,,,,,,,,,,,,,,,,,,,,,,,,,,,,,,,,,,,,,388.309976969,398.5259913470002,,,,,011721,0,1,1,3,0,1,2,0,10,2021_Jan_17_1447,listening_fmri,3.2.4,59.60555890261598,
2,parcelated_audio/31/31_12.ogg,,,,,,,,,0,0,0,0,0,2,2,2,0,0,0,0,,,,,,,,,,,,,0,0,0,0,0,11,11,11,,,,,,,,,,,,,,,,,,,,,,,,,,,,,,,,,,,,,,,,,,,,,,,,,,,,,,,,,,,,,,,,,,,,,,,,,,,,,,,,,,,,,,,,,,,,,,,,,,,,,398.52634319799995,403.2976276679999,,,,,011721,0,1,1,3,0,1,2,0,10,2021_Jan_17_1447,listening_fmri,3.2.4,59.60555890261598,
2,parcelated_audio/31/31_13.ogg,,,,,,,,,0,0,0,0,0,2,2,2,0,0,0,0,,,,,,,,,,,,,0,0,0,0,0,12,12,12,,,,,,,,,,,,,,,,,,,,,,,,,,,,,,,,,,,,,,,,,,,,,,,,,,,,,,,,,,,,,,,,,,,,,,,,,,,,,,,,,,,,,,,,,,,,,,,,,,,,,403.297990323,410.62190713099994,,,,,011721,0,1,1,3,0,1,2,0,10,2021_Jan_17_1447,listening_fmri,3.2.4,59.60555890261598,
2,parcelated_audio/31/31_14.ogg,,,,,,,,,0,0,0,0,0,2,2,2,0,0,0,0,,,,,,,,,,,,,0,0,0,0,0,13,13,13,,,,,,,,,,,,,,,,,,,,,,,,,,,,,,,,,,,,,,,,,,,,,,,,,,,,,,,,,,,,,,,,,,,,,,,,,,,,,,,,,,,,,,,,,,,,,,,,,,,,,410.62232020299984,416.75784634800016,,,,,011721,0,1,1,3,0,1,2,0,10,2021_Jan_17_1447,listening_fmri,3.2.4,59.60555890261598,
2,parcelated_audio/31/31_15.ogg,,,,,,,,,0,0,0,0,0,2,2,2,0,0,0,0,,,,,,,,,,,,,0,0,0,0,0,14,14,14,,,,,,,,,,,,,,,,,,,,,,,,,,,,,,,,,,,,,,,,,,,,,,,,,,,,,,,,,,,,,,,,,,,,,,,,,,,,,,,,,,,,,,,,,,,,,,,,,,,,,416.75820054400015,423.5598141940002,,,,,011721,0,1,1,3,0,1,2,0,10,2021_Jan_17_1447,listening_fmri,3.2.4,59.60555890261598,
2,parcelated_audio/31/31_16.ogg,,,,,,,,,0,0,0,0,0,2,2,2,0,0,0,0,,,,,,,,,,,,,0,0,0,0,0,15,15,15,,,,,,,,,,,,,,,,,,,,,,,,,,,,,,,,,,,,,,,,,,,,,,,,,,,,,,,,,,,,,,,,,,,,,,,,,,,,,,,,,,,,,,,,,,,,,,,,,,,,,423.5601693199999,429.9640354740002,,,,,011721,0,1,1,3,0,1,2,0,10,2021_Jan_17_1447,listening_fmri,3.2.4,59.60555890261598,
2,parcelated_audio/31/31_17.ogg,,,,,,,,,0,0,0,0,0,2,2,2,0,0,0,0,,,,,,,,,,,,,0,0,0,0,0,16,16,16,,,,,,,,,,,,,,,,,,,,,,,,,,,,,,,,,,,,,,,,,,,,,,,,,,,,,,,,,,,,,,,,,,,,,,,,,,,,,,,,,,,,,,,,,,,,,,,,,,,,,429.96438159900003,433.41528634500014,,,,,011721,0,1,1,3,0,1,2,0,10,2021_Jan_17_1447,listening_fmri,3.2.4,59.60555890261598,
2,parcelated_audio/31/31_18.ogg,,,,,,,,,0,0,0,0,0,2,2,2,0,0,0,0,,,,,,,,,,,,,0,0,0,0,0,17,17,17,,,,,,,,,,,,,,,,,,,,,,,,,,,,,,,,,,,,,,,,,,,,,,,,,,,,,,,,,,,,,,,,,,,,,,,,,,,,,,,,,,,,,,,,,,,,,,,,,,,,,433.41564458100015,438.04290206300016,,,,,011721,0,1,1,3,0,1,2,0,10,2021_Jan_17_1447,listening_fmri,3.2.4,59.60555890261598,
2,parcelated_audio/31/31_19.ogg,,,,,,,,,0,0,0,0,0,2,2,2,0,0,0,0,,,,,,,,,,,,,0,0,0,0,0,18,18,18,,,,,,,,,,,,,,,,,,,,,,,,,,,,,,,,,,,,,,,,,,,,,,,,,,,,,,,,,,,,,,,,,,,,,,,,,,,,,,,,,,,,,,,,,,,,,,,,,,,,,438.0432533720002,446.34816043900014,,,,,011721,0,1,1,3,0,1,2,0,10,2021_Jan_17_1447,listening_fmri,3.2.4,59.60555890261598,
2,parcelated_audio/31/31_20.ogg,,,,,,,,,0,0,0,0,0,2,2,2,0,0,0,0,,,,,,,,,,,,,0,0,0,0,0,19,19,19,,,,,,,,,,,,,,,,,,,,,,,,,,,,,,,,,,,,,,,,,,,,,,,,,,,,,,,,,,,,,,,,,,,,,,,,,,,,,,,,,,,,,,,,,,,,,,,,,,,,,446.3485039069999,464.1843116289999,,,,,011721,0,1,1,3,0,1,2,0,10,2021_Jan_17_1447,listening_fmri,3.2.4,59.60555890261598,
2,parcelated_audio/31/31_21.ogg,,,,,,,,,0,0,0,0,0,2,2,2,0,0,0,0,,,,,,,,,,,,,0,0,0,0,0,20,20,20,,,,,,,,,,,,,,,,,,,,,,,,,,,,,,,,,,,,,,,,,,,,,,,,,,,,,,,,,,,,,,,,,,,,,,,,,,,,,,,,,,,,,,,,,,,,,,,,,,,,,464.1845662600001,474.43375238500016,,,,,011721,0,1,1,3,0,1,2,0,10,2021_Jan_17_1447,listening_fmri,3.2.4,59.60555890261598,
2,parcelated_audio/31/31_22.ogg,,,,,,,,,0,0,0,0,0,2,2,2,0,0,0,0,,,,,,,,,,,,,0,0,0,0,0,21,21,21,,,,,,,,,,,,,,,,,,,,,,,,,,,,,,,,,,,,,,,,,,,,,,,,,,,,,,,,,,,,,,,,,,,,,,,,,,,,,,,,,,,,,,,,,,,,,,,,,,,,,474.43402879200016,480.1475171929999,,,,,011721,0,1,1,3,0,1,2,0,10,2021_Jan_17_1447,listening_fmri,3.2.4,59.60555890261598,
2,parcelated_audio/31/31_23.ogg,,,,,,,,,0,0,0,0,0,2,2,2,0,0,0,0,,,,,,,,,,,,,0,0,0,0,0,22,22,22,,,,,,,,,,,,,,,,,,,,,,,,,,,,,,,,,,,,,,,,,,,,,,,,,,,,,,,,,,,,,,,,,,,,,,,,,,,,,,,,,,,,,,,,,,,,,,,,,,,,,480.14780512899983,484.7522466759999,,,,,011721,0,1,1,3,0,1,2,0,10,2021_Jan_17_1447,listening_fmri,3.2.4,59.60555890261598,
2,parcelated_audio/31/31_24.ogg,,,,,,,,,0,0,0,0,0,2,2,2,0,0,0,0,,,,,,,,,,,,,0,0,0,0,0,23,23,23,,,,,,,,,,,,,,,,,,,,,,,,,,,,,,,,,,,,,,,,,,,,,,,,,,,,,,,,,,,,,,,,,,,,,,,,,,,,,,,,,,,,,,,,,,,,,,,,,,,,,484.7525199439999,491.629592041,,,,,011721,0,1,1,3,0,1,2,0,10,2021_Jan_17_1447,listening_fmri,3.2.4,59.60555890261598,
2,parcelated_audio/31/31_25.ogg,,,,,,,,,0,0,0,0,0,2,2,2,0,0,0,0,,,,,,,,,,,,,0,0,0,0,0,24,24,24,,,,,,,,,,,,,,,,,,,,,,,,,,,,,,,,,,,,,,,,,,,,,,,,,,,,,,,,,,,,,,,,,,,,,,,,,,,,,,,,,,,,,,,,,,,,,,,,,,,,,491.62987455200005,503.62950412500027,,,,,011721,0,1,1,3,0,1,2,0,10,2021_Jan_17_1447,listening_fmri,3.2.4,59.60555890261598,
2,parcelated_audio/31/31_26.ogg,,,,,,,,,0,0,0,0,0,2,2,2,0,0,0,0,,,,,,,,,,,,,0,0,0,0,0,25,25,25,,,,,,,,,,,,,,,,,,,,,,,,,,,,,,,,,,,,,,,,,,,,,,,,,,,,,,,,,,,,,,,,,,,,,,,,,,,,,,,,,,,,,,,,,,,,,,,,,,,,,503.62978054400014,511.143694398,,,,,011721,0,1,1,3,0,1,2,0,10,2021_Jan_17_1447,listening_fmri,3.2.4,59.60555890261598,
2,parcelated_audio/31/31_27.ogg,,,,,,,,,0,0,0,0,0,2,2,2,0,0,0,0,,,,,,,,,,,,,0,0,0,0,0,26,26,26,,,,,,,,,,,,,,,,,,,,,,,,,,,,,,,,,,,,,,,,,,,,,,,,,,,,,,,,,,,,,,,,,,,,,,,,,,,,,,,,,,,,,,,,,,,,,,,,,,,,,511.144011483,515.5419382540001,,,,,011721,0,1,1,3,0,1,2,0,10,2021_Jan_17_1447,listening_fmri,3.2.4,59.60555890261598,
2,parcelated_audio/31/31_28.ogg,,,,,,,,,0,0,0,0,0,2,2,2,0,0,0,0,,,,,,,,,,,,,0,0,0,0,0,27,27,27,,,,,,,,,,,,,,,,,,,,,,,,,,,,,,,,,,,,,,,,,,,,,,,,,,,,,,,,,,,,,,,,,,,,,,,,,,,,,,,,,,,,,,,,,,,,,,,,,,,,,515.5423415950002,520.5486336390002,,,,,011721,0,1,1,3,0,1,2,0,10,2021_Jan_17_1447,listening_fmri,3.2.4,59.60555890261598,
2,parcelated_audio/31/31_29.ogg,,,,,,,,,0,0,0,0,0,2,2,2,0,0,0,0,,,,,,,,,,,,,0,0,0,0,0,28,28,28,,,,,,,,,,,,,,,,,,,,,,,,,,,,,,,,,,,,,,,,,,,,,,,,,,,,,,,,,,,,,,,,,,,,,,,,,,,,,,,,,,,,,,,,,,,,,,,,,,,,,520.549571239,524.8962027919999,,,,,011721,0,1,1,3,0,1,2,0,10,2021_Jan_17_1447,listening_fmri,3.2.4,59.60555890261598,
2,parcelated_audio/31/31_30.ogg,,,,,,,,,0,0,0,0,0,2,2,2,0,0,0,0,,,,,,,,,,,,,0,0,0,0,0,29,29,29,,,,,,,,,,,,,,,,,,,,,,,,,,,,,,,,,,,,,,,,,,,,,,,,,,,,,,,,,,,,,,,,,,,,,,,,,,,,,,,,,,,,,,,,,,,,,,,,,,,,,524.8965613729999,528.6616749259999,,,,,011721,0,1,1,3,0,1,2,0,10,2021_Jan_17_1447,listening_fmri,3.2.4,59.60555890261598,
2,parcelated_audio/31/31_31.ogg,,,,,,,,,0,0,0,0,0,2,2,2,0,0,0,0,,,,,,,,,,,,,0,0,0,0,0,30,30,30,,,,,,,,,,,,,,,,,,,,,,,,,,,,,,,,,,,,,,,,,,,,,,,,,,,,,,,,,,,,,,,,,,,,,,,,,,,,,,,,,,,,,,,,,,,,,,,,,,,,,528.662040986,534.6126227739999,,,,,011721,0,1,1,3,0,1,2,0,10,2021_Jan_17_1447,listening_fmri,3.2.4,59.60555890261598,
2,parcelated_audio/31/31_32.ogg,,,,,,,,,0,0,0,0,0,2,2,2,0,0,0,0,,,,,,,,,,,,,0,0,0,0,0,31,31,31,,,,,,,,,,,,,,,,,,,,,,,,,,,,,,,,,,,,,,,,,,,,,,,,,,,,,,,,,,,,,,,,,,,,,,,,,,,,,,,,,,,,,,,,,,,,,,,,,,,,,534.6129875130002,544.577924254,,,,,011721,0,1,1,3,0,1,2,0,10,2021_Jan_17_1447,listening_fmri,3.2.4,59.60555890261598,
2,parcelated_audio/31/31_33.ogg,,,,,,,,,0,0,0,0,0,2,2,2,0,0,0,0,,,,,,,,,,,,,0,0,0,0,0,32,32,32,,,,,,,,,,,,,,,,,,,,,,,,,,,,,,,,,,,,,,,,,,,,,,,,,,,,,,,,,,,,,,,,,,,,,,,,,,,,,,,,,,,,,,,,,,,,,,,,,,,,,544.5782774219999,552.9463857610001,,,,,011721,0,1,1,3,0,1,2,0,10,2021_Jan_17_1447,listening_fmri,3.2.4,59.60555890261598,
2,parcelated_audio/31/31_34.ogg,,,,,,,,,0,0,0,0,0,2,2,2,0,0,0,0,,,,,,,,,,,,,0,0,0,0,0,33,33,33,,,,,,,,,,,,,,,,,,,,,,,,,,,,,,,,,,,,,,,,,,,,,,,,,,,,,,,,,,,,,,,,,,,,,,,,,,,,,,,,,,,,,,,,,,,,,,,,,,,,,552.946720701,557.3282419459999,,,,,011721,0,1,1,3,0,1,2,0,10,2021_Jan_17_1447,listening_fmri,3.2.4,59.60555890261598,
2,parcelated_audio/31/31_35.ogg,,,,,,,,,0,0,0,0,0,2,2,2,0,0,0,0,,,,,,,,,,,,,0,0,0,0,0,34,34,34,,,,,,,,,,,,,,,,,,,,,,,,,,,,,,,,,,,,,,,,,,,,,,,,,,,,,,,,,,,,,,,,,,,,,,,,,,,,,,,,,,,,,,,,,,,,,,,,,,,,,557.3285214069999,563.0956293430002,,,,,011721,0,1,1,3,0,1,2,0,10,2021_Jan_17_1447,listening_fmri,3.2.4,59.60555890261598,
2,parcelated_audio/31/31_36.ogg,,,,,,,,,0,0,0,0,0,2,2,2,0,0,0,0,,,,,,,,,,,,,0,0,0,0,0,35,35,35,,,,,,,,,,,,,,,,,,,,,,,,,,,,,,,,,,,,,,,,,,,,,,,,,,,,,,,,,,,,,,,,,,,,,,,,,,,,,,,,,,,,,,,,,,,,,,,,,,,,,563.0959685290002,569.4096164499999,,,,,011721,0,1,1,3,0,1,2,0,10,2021_Jan_17_1447,listening_fmri,3.2.4,59.60555890261598,
2,,,,,,,,,,0,0,0,0,0,2,2,2,0,0,0,0,,,,,,,,,,,,,0,0,0,0,,,,,,,,,,,,,,,,,,,,,,,,,,,,,,,,,,,,,,,,,,,,,,,,,,,,,,,,,,,,,,,,,,,,,,,,,,,,,,,,,,,,,,,,,,,,,,,,,,,,,,,,,,,,,,,011721,0,1,1,3,0,1,2,0,10,2021_Jan_17_1447,listening_fmri,3.2.4,59.60555890261598,
,,,,,,,,,,,,,,,,,,,,,,,,,,,,,,,,,,,,,,,,,,,,,,,,,,,,,,,,,,,569.4099684820001,575.3986693190002,620.0853283470001,None,,,,,,,,,,,,,,,,,,,,,,,,,,,,,,,,,,,,,,,,,,,,,,,,,,,,,,,,,,,,,,,,,,,,,,,,,,,,,,,,,,626.0866010310001,None,626.0866010310001,None,,,,,,,,,,,,,,,
﻿count,audio,trials_14.thisRepN,trials_14.thisTrialN,trials_14.thisN,trials_14.thisIndex,trials_3.thisRepN,trials_3.thisTrialN,trials_3.thisN,trials_3.thisIndex,trials_4.thisRepN,trials_4.thisTrialN,trials_4.thisN,trials_4.thisIndex,trials_6.thisRepN,trials_6.thisTrialN,trials_6.thisN,trials_6.thisIndex,trials_9.thisRepN,trials_9.thisTrialN,trials_9.thisN,trials_9.thisIndex,trials_10.thisRepN,trials_10.thisTrialN,trials_10.thisN,trials_10.thisIndex,trials_11.thisRepN,trials_11.thisTrialN,trials_11.thisN,trials_11.thisIndex,trials_12.thisRepN,trials_12.thisTrialN,trials_12.thisN,trials_12.thisIndex,trials_25.thisRepN,trials_25.thisTrialN,trials_25.thisN,trials_25.thisIndex,trials_15.thisRepN,trials_15.thisTrialN,trials_15.thisN,trials_15.thisIndex,trials_26.thisRepN,trials_26.thisTrialN,trials_26.thisN,trials_26.thisIndex,story_list_block2,action_list_block2,textTrigger.started,textTrigger.stopped,getTrigger.keys,getTrigger.rt,getTrigger.started,getTrigger.stopped,triggerTime,text_76.started,text_76.stopped,text_77.started,text_77.stopped,startWait,endWait,image_23.started,image_23.stopped,text_55.started,text_55.stopped,text_56.started,text_56.stopped,key_resp_2.keys,key_resp_2.rt,key_resp_2.started,key_resp_2.stopped,text_82.started,text_82.stopped,text_57.started,text_57.stopped,key_resp_17.keys,key_resp_17.rt,key_resp_17.started,key_resp_17.stopped,text_83.started,text_83.stopped,text_60.started,text_60.stopped,image_2.started,image_2.stopped,text_58.started,text_58.stopped,key_resp_23.keys,key_resp_23.rt,key_resp_23.started,key_resp_23.stopped,text_62.started,text_62.stopped,key_resp_18.keys,key_resp_18.rt,key_resp_18.started,key_resp_18.stopped,text_84.started,text_84.stopped,question1_2.started,question1_2.stopped,question2_2.started,question2_2.stopped,question3_2.started,question3_2.stopped,question4_2.started,question4_2.stopped,question5_2.started,question5_2.stopped,question6_2.started,question6_2.stopped,image_15.started,image_15.stopped,key_resp.keys,key_resp.started,key_resp.stopped,text_59.started,text_59.stopped,key_resp_19.keys,key_resp_19.rt,key_resp_19.started,key_resp_19.stopped,text_85.started,text_85.stopped,text_61.started,text_61.stopped,image_17.started,image_17.stopped,text_63.started,text_63.stopped,key_resp_24.keys,key_resp_24.rt,key_resp_24.started,key_resp_24.stopped,text_64.started,text_64.stopped,key_resp_20.keys,key_resp_20.rt,key_resp_20.started,key_resp_20.stopped,storyImage_StartTime,storyImage_EndTime,clip_StartTime,clip_EndTime,text_67.started,text_67.stopped,text_68.started,text_68.stopped,participant,sA,sB,lA,lB,block_struct,play_stories,block,behavioral,random_seed,date,expName,psychopyVersion,frameRate,
0,,,,,,,,,,0,0,0,0,0,0,0,0,,,,,,,,,,,,,,,,,,,,,,,,,,,,,[22 42 31 33 44 24 11 13],[3 2 4 4 2 3 1 1],22.10259188499981,None,equal,28.56285291999984,22.10259188499981,None,28.58206260299994,22.10259188499981,None,22.10259188499981,None,0.0003633660001014505,6.015336296999976,50.69161600999996,None,,,,,,,,,,,,,,,,,,,,,,,,,,,,,,,,,,,,,,,,,,,,,,,,,,,,,,,,,,,,,,,,,,,,,,,,,,,,,,,,,,,,,,011721,0,1,1,3,0,1,2,0,10,2021_Jan_17_1447,listening_fmri,3.2.4,59.60555890261598,
1,,,,,,,,,,0,0,0,0,0,1,1,1,0,0,0,0,0,0,0,0,0,0,0,0,,,,,,,,,,,,,,,,,,,,,,,,,,,,,,,,,,56.70242799999983,None,56.70242799999983,None,1,1.9228711380001187,56.70242799999983,None,56.70242799999983,None,58.65789816999995,None,1,1.5485020650000934,58.65789816999995,None,58.65789816999995,None,60.258069122999814,None,60.258069122999814,None,60.258069122999814,None,1,1.5683769249999386,60.258069122999814,None,61.852733084999954,None,1,1.9097333150000395,61.852733084999954,None,61.852733084999954,None,63.86936081999988,None,63.86936081999988,None,63.86936081999988,None,63.86936081999988,None,63.86936081999988,None,63.86936081999988,None,63.86936081999988,None,None,63.86936081999988,None,,,,,,,,,,,,,,,,,,,,,,,,,,,,,,,,,011721,0,1,1,3,0,1,2,0,10,2021_Jan_17_1447,listening_fmri,3.2.4,59.60555890261598,
1,,,,,,,,,,0,0,0,0,0,1,1,1,0,0,0,0,0,0,0,0,,,,,,,,,,,,,,,,,,,,,,,,,,,,,,,,,,,,,,,,,,,,,,,,,,,,,,,,,,,,,,,,,,,,,,,,,,,,,,,,,,,,,,,,,,,83.0527874559998,None,1,3.0345608390000507,83.0527874559998,None,83.0527874559998,None,86.13599551099992,None,86.13599551099992,None,86.13599551099992,None,1,1.8434428759999264,86.13599551099992,None,,,,,,,,,,,,,,,011721,0,1,1,3,0,1,2,0,10,2021_Jan_17_1447,listening_fmri,3.2.4,59.60555890261598,
1,parcelated_audio/42/42_1.ogg,,,,,,,,,0,0,0,0,0,1,1,1,0,0,0,0,,,,,,,,,,,,,0,0,0,0,0,0,0,0,,,,,,,,,,,,,,,,,,,,,,,,,,,,,,,,,,,,,,,,,,,,,,,,,,,,,,,,,,,,,,,,,,,,,,,,,,,,,,,,,,,,,,,,,,,,,88.00257954599988,None,1,1.8688510049998968,88.00257954599988,None,39.21732798700009,42.23148468399995,42.23651608900013,50.61893374700003,,,,,011721,0,1,1,3,0,1,2,0,10,2021_Jan_17_1447,listening_fmri,3.2.4,59.60555890261598,
1,parcelated_audio/42/42_2.ogg,,,,,,,,,0,0,0,0,0,1,1,1,0,0,0,0,,,,,,,,,,,,,0,0,0,0,0,1,1,1,,,,,,,,,,,,,,,,,,,,,,,,,,,,,,,,,,,,,,,,,,,,,,,,,,,,,,,,,,,,,,,,,,,,,,,,,,,,,,,,,,,,,,,,,,,,,,,,,,,,,50.61980831999995,63.354939275000106,,,,,011721,0,1,1,3,0,1,2,0,10,2021_Jan_17_1447,listening_fmri,3.2.4,59.60555890261598,
1,parcelated_audio/42/42_3.ogg,,,,,,,,,0,0,0,0,0,1,1,1,0,0,0,0,,,,,,,,,,,,,0,0,0,0,0,2,2,2,,,,,,,,,,,,,,,,,,,,,,,,,,,,,,,,,,,,,,,,,,,,,,,,,,,,,,,,,,,,,,,,,,,,,,,,,,,,,,,,,,,,,,,,,,,,,,,,,,,,,63.3552071040001,73.75272130200005,,,,,011721,0,1,1,3,0,1,2,0,10,2021_Jan_17_1447,listening_fmri,3.2.4,59.60555890261598,
1,parcelated_audio/42/42_4.ogg,,,,,,,,,0,0,0,0,0,1,1,1,0,0,0,0,,,,,,,,,,,,,0,0,0,0,0,3,3,3,,,,,,,,,,,,,,,,,,,,,,,,,,,,,,,,,,,,,,,,,,,,,,,,,,,,,,,,,,,,,,,,,,,,,,,,,,,,,,,,,,,,,,,,,,,,,,,,,,,,,73.7530054020001,87.44801592299996,,,,,011721,0,1,1,3,0,1,2,0,10,2021_Jan_17_1447,listening_fmri,3.2.4,59.60555890261598,
1,parcelated_audio/42/42_5.ogg,,,,,,,,,0,0,0,0,0,1,1,1,0,0,0,0,,,,,,,,,,,,,0,0,0,0,0,4,4,4,,,,,,,,,,,,,,,,,,,,,,,,,,,,,,,,,,,,,,,,,,,,,,,,,,,,,,,,,,,,,,,,,,,,,,,,,,,,,,,,,,,,,,,,,,,,,,,,,,,,,87.4483704700001,98.88845384399997,,,,,011721,0,1,1,3,0,1,2,0,10,2021_Jan_17_1447,listening_fmri,3.2.4,59.60555890261598,
1,parcelated_audio/42/42_6.ogg,,,,,,,,,0,0,0,0,0,1,1,1,0,0,0,0,,,,,,,,,,,,,0,0,0,0,0,5,5,5,,,,,,,,,,,,,,,,,,,,,,,,,,,,,,,,,,,,,,,,,,,,,,,,,,,,,,,,,,,,,,,,,,,,,,,,,,,,,,,,,,,,,,,,,,,,,,,,,,,,,98.88880343799997,105.37792471700004,,,,,011721,0,1,1,3,0,1,2,0,10,2021_Jan_17_1447,listening_fmri,3.2.4,59.60555890261598,
1,parcelated_audio/42/42_7.ogg,,,,,,,,,0,0,0,0,0,1,1,1,0,0,0,0,,,,,,,,,,,,,0,0,0,0,0,6,6,6,,,,,,,,,,,,,,,,,,,,,,,,,,,,,,,,,,,,,,,,,,,,,,,,,,,,,,,,,,,,,,,,,,,,,,,,,,,,,,,,,,,,,,,,,,,,,,,,,,,,,105.38095116099998,110.58720495000011,,,,,011721,0,1,1,3,0,1,2,0,10,2021_Jan_17_1447,listening_fmri,3.2.4,59.60555890261598,
1,parcelated_audio/42/42_8.ogg,,,,,,,,,0,0,0,0,0,1,1,1,0,0,0,0,,,,,,,,,,,,,0,0,0,0,0,7,7,7,,,,,,,,,,,,,,,,,,,,,,,,,,,,,,,,,,,,,,,,,,,,,,,,,,,,,,,,,,,,,,,,,,,,,,,,,,,,,,,,,,,,,,,,,,,,,,,,,,,,,110.58765455000002,113.75250037299998,,,,,011721,0,1,1,3,0,1,2,0,10,2021_Jan_17_1447,listening_fmri,3.2.4,59.60555890261598,
1,parcelated_audio/42/42_9.ogg,,,,,,,,,0,0,0,0,0,1,1,1,0,0,0,0,,,,,,,,,,,,,0,0,0,0,0,8,8,8,,,,,,,,,,,,,,,,,,,,,,,,,,,,,,,,,,,,,,,,,,,,,,,,,,,,,,,,,,,,,,,,,,,,,,,,,,,,,,,,,,,,,,,,,,,,,,,,,,,,,113.75290109800017,122.30369111699997,,,,,011721,0,1,1,3,0,1,2,0,10,2021_Jan_17_1447,listening_fmri,3.2.4,59.60555890261598,
1,parcelated_audio/42/42_10.ogg,,,,,,,,,0,0,0,0,0,1,1,1,0,0,0,0,,,,,,,,,,,,,0,0,0,0,0,9,9,9,,,,,,,,,,,,,,,,,,,,,,,,,,,,,,,,,,,,,,,,,,,,,,,,,,,,,,,,,,,,,,,,,,,,,,,,,,,,,,,,,,,,,,,,,,,,,,,,,,,,,122.30396946500014,126.62256729800015,,,,,011721,0,1,1,3,0,1,2,0,10,2021_Jan_17_1447,listening_fmri,3.2.4,59.60555890261598,
1,parcelated_audio/42/42_11.ogg,,,,,,,,,0,0,0,0,0,1,1,1,0,0,0,0,,,,,,,,,,,,,0,0,0,0,0,10,10,10,,,,,,,,,,,,,,,,,,,,,,,,,,,,,,,,,,,,,,,,,,,,,,,,,,,,,,,,,,,,,,,,,,,,,,,,,,,,,,,,,,,,,,,,,,,,,,,,,,,,,126.62283937100005,131.613714545,,,,,011721,0,1,1,3,0,1,2,0,10,2021_Jan_17_1447,listening_fmri,3.2.4,59.60555890261598,
1,parcelated_audio/42/42_12.ogg,,,,,,,,,0,0,0,0,0,1,1,1,0,0,0,0,,,,,,,,,,,,,0,0,0,0,0,11,11,11,,,,,,,,,,,,,,,,,,,,,,,,,,,,,,,,,,,,,,,,,,,,,,,,,,,,,,,,,,,,,,,,,,,,,,,,,,,,,,,,,,,,,,,,,,,,,,,,,,,,,131.61399826299998,137.580269349,,,,,011721,0,1,1,3,0,1,2,0,10,2021_Jan_17_1447,listening_fmri,3.2.4,59.60555890261598,
1,parcelated_audio/42/42_13.ogg,,,,,,,,,0,0,0,0,0,1,1,1,0,0,0,0,,,,,,,,,,,,,0,0,0,0,0,12,12,12,,,,,,,,,,,,,,,,,,,,,,,,,,,,,,,,,,,,,,,,,,,,,,,,,,,,,,,,,,,,,,,,,,,,,,,,,,,,,,,,,,,,,,,,,,,,,,,,,,,,,137.58077561599998,144.73627399500015,,,,,011721,0,1,1,3,0,1,2,0,10,2021_Jan_17_1447,listening_fmri,3.2.4,59.60555890261598,
1,parcelated_audio/42/42_14.ogg,,,,,,,,,0,0,0,0,0,1,1,1,0,0,0,0,,,,,,,,,,,,,0,0,0,0,0,13,13,13,,,,,,,,,,,,,,,,,,,,,,,,,,,,,,,,,,,,,,,,,,,,,,,,,,,,,,,,,,,,,,,,,,,,,,,,,,,,,,,,,,,,,,,,,,,,,,,,,,,,,144.7365478160002,149.4563522750002,,,,,011721,0,1,1,3,0,1,2,0,10,2021_Jan_17_1447,listening_fmri,3.2.4,59.60555890261598,
1,parcelated_audio/42/42_15.ogg,,,,,,,,,0,0,0,0,0,1,1,1,0,0,0,0,,,,,,,,,,,,,0,0,0,0,0,14,14,14,,,,,,,,,,,,,,,,,,,,,,,,,,,,,,,,,,,,,,,,,,,,,,,,,,,,,,,,,,,,,,,,,,,,,,,,,,,,,,,,,,,,,,,,,,,,,,,,,,,,,149.4566294980002,155.30156913899987,,,,,011721,0,1,1,3,0,1,2,0,10,2021_Jan_17_1447,listening_fmri,3.2.4,59.60555890261598,
1,parcelated_audio/42/42_16.ogg,,,,,,,,,0,0,0,0,0,1,1,1,0,0,0,0,,,,,,,,,,,,,0,0,0,0,0,15,15,15,,,,,,,,,,,,,,,,,,,,,,,,,,,,,,,,,,,,,,,,,,,,,,,,,,,,,,,,,,,,,,,,,,,,,,,,,,,,,,,,,,,,,,,,,,,,,,,,,,,,,155.30185155899994,160.89355289299988,,,,,011721,0,1,1,3,0,1,2,0,10,2021_Jan_17_1447,listening_fmri,3.2.4,59.60555890261598,
1,parcelated_audio/42/42_17.ogg,,,,,,,,,0,0,0,0,0,1,1,1,0,0,0,0,,,,,,,,,,,,,0,0,0,0,0,16,16,16,,,,,,,,,,,,,,,,,,,,,,,,,,,,,,,,,,,,,,,,,,,,,,,,,,,,,,,,,,,,,,,,,,,,,,,,,,,,,,,,,,,,,,,,,,,,,,,,,,,,,160.89384008599995,170.57064149400026,,,,,011721,0,1,1,3,0,1,2,0,10,2021_Jan_17_1447,listening_fmri,3.2.4,59.60555890261598,
1,parcelated_audio/42/42_18.ogg,,,,,,,,,0,0,0,0,0,1,1,1,0,0,0,0,,,,,,,,,,,,,0,0,0,0,0,17,17,17,,,,,,,,,,,,,,,,,,,,,,,,,,,,,,,,,,,,,,,,,,,,,,,,,,,,,,,,,,,,,,,,,,,,,,,,,,,,,,,,,,,,,,,,,,,,,,,,,,,,,170.57092876599995,176.00186106200022,,,,,011721,0,1,1,3,0,1,2,0,10,2021_Jan_17_1447,listening_fmri,3.2.4,59.60555890261598,
1,parcelated_audio/42/42_19.ogg,,,,,,,,,0,0,0,0,0,1,1,1,0,0,0,0,,,,,,,,,,,,,0,0,0,0,0,18,18,18,,,,,,,,,,,,,,,,,,,,,,,,,,,,,,,,,,,,,,,,,,,,,,,,,,,,,,,,,,,,,,,,,,,,,,,,,,,,,,,,,,,,,,,,,,,,,,,,,,,,,176.00213633099997,185.14245775799986,,,,,011721,0,1,1,3,0,1,2,0,10,2021_Jan_17_1447,listening_fmri,3.2.4,59.60555890261598,
1,parcelated_audio/42/42_20.ogg,,,,,,,,,0,0,0,0,0,1,1,1,0,0,0,0,,,,,,,,,,,,,0,0,0,0,0,19,19,19,,,,,,,,,,,,,,,,,,,,,,,,,,,,,,,,,,,,,,,,,,,,,,,,,,,,,,,,,,,,,,,,,,,,,,,,,,,,,,,,,,,,,,,,,,,,,,,,,,,,,185.1427486529999,189.80076504000021,,,,,011721,0,1,1,3,0,1,2,0,10,2021_Jan_17_1447,listening_fmri,3.2.4,59.60555890261598,
1,parcelated_audio/42/42_21.ogg,,,,,,,,,0,0,0,0,0,1,1,1,0,0,0,0,,,,,,,,,,,,,0,0,0,0,0,20,20,20,,,,,,,,,,,,,,,,,,,,,,,,,,,,,,,,,,,,,,,,,,,,,,,,,,,,,,,,,,,,,,,,,,,,,,,,,,,,,,,,,,,,,,,,,,,,,,,,,,,,,189.80136178099997,199.70431061700015,,,,,011721,0,1,1,3,0,1,2,0,10,2021_Jan_17_1447,listening_fmri,3.2.4,59.60555890261598,
1,parcelated_audio/42/42_22.ogg,,,,,,,,,0,0,0,0,0,1,1,1,0,0,0,0,,,,,,,,,,,,,0,0,0,0,0,21,21,21,,,,,,,,,,,,,,,,,,,,,,,,,,,,,,,,,,,,,,,,,,,,,,,,,,,,,,,,,,,,,,,,,,,,,,,,,,,,,,,,,,,,,,,,,,,,,,,,,,,,,199.70469909200006,204.46728543999984,,,,,011721,0,1,1,3,0,1,2,0,10,2021_Jan_17_1447,listening_fmri,3.2.4,59.60555890261598,
1,parcelated_audio/42/42_23.ogg,,,,,,,,,0,0,0,0,0,1,1,1,0,0,0,0,,,,,,,,,,,,,0,0,0,0,0,22,22,22,,,,,,,,,,,,,,,,,,,,,,,,,,,,,,,,,,,,,,,,,,,,,,,,,,,,,,,,,,,,,,,,,,,,,,,,,,,,,,,,,,,,,,,,,,,,,,,,,,,,,204.46763984099994,210.78186852900012,,,,,011721,0,1,1,3,0,1,2,0,10,2021_Jan_17_1447,listening_fmri,3.2.4,59.60555890261598,
1,parcelated_audio/42/42_24.ogg,,,,,,,,,0,0,0,0,0,1,1,1,0,0,0,0,,,,,,,,,,,,,0,0,0,0,0,23,23,23,,,,,,,,,,,,,,,,,,,,,,,,,,,,,,,,,,,,,,,,,,,,,,,,,,,,,,,,,,,,,,,,,,,,,,,,,,,,,,,,,,,,,,,,,,,,,,,,,,,,,210.78222683199988,219.23190442100008,,,,,011721,0,1,1,3,0,1,2,0,10,2021_Jan_17_1447,listening_fmri,3.2.4,59.60555890261598,
1,parcelated_audio/42/42_25.ogg,,,,,,,,,0,0,0,0,0,1,1,1,0,0,0,0,,,,,,,,,,,,,0,0,0,0,0,24,24,24,,,,,,,,,,,,,,,,,,,,,,,,,,,,,,,,,,,,,,,,,,,,,,,,,,,,,,,,,,,,,,,,,,,,,,,,,,,,,,,,,,,,,,,,,,,,,,,,,,,,,219.23237735199996,225.45493092699985,,,,,011721,0,1,1,3,0,1,2,0,10,2021_Jan_17_1447,listening_fmri,3.2.4,59.60555890261598,
1,parcelated_audio/42/42_26.ogg,,,,,,,,,0,0,0,0,0,1,1,1,0,0,0,0,,,,,,,,,,,,,0,0,0,0,0,25,25,25,,,,,,,,,,,,,,,,,,,,,,,,,,,,,,,,,,,,,,,,,,,,,,,,,,,,,,,,,,,,,,,,,,,,,,,,,,,,,,,,,,,,,,,,,,,,,,,,,,,,,225.45528216300022,231.3458665400001,,,,,011721,0,1,1,3,0,1,2,0,10,2021_Jan_17_1447,listening_fmri,3.2.4,59.60555890261598,
1,parcelated_audio/42/42_27.ogg,,,,,,,,,0,0,0,0,0,1,1,1,0,0,0,0,,,,,,,,,,,,,0,0,0,0,0,26,26,26,,,,,,,,,,,,,,,,,,,,,,,,,,,,,,,,,,,,,,,,,,,,,,,,,,,,,,,,,,,,,,,,,,,,,,,,,,,,,,,,,,,,,,,,,,,,,,,,,,,,,231.34651678100022,239.04393653400007,,,,,011721,0,1,1,3,0,1,2,0,10,2021_Jan_17_1447,listening_fmri,3.2.4,59.60555890261598,
1,parcelated_audio/42/42_28.ogg,,,,,,,,,0,0,0,0,0,1,1,1,0,0,0,0,,,,,,,,,,,,,0,0,0,0,0,27,27,27,,,,,,,,,,,,,,,,,,,,,,,,,,,,,,,,,,,,,,,,,,,,,,,,,,,,,,,,,,,,,,,,,,,,,,,,,,,,,,,,,,,,,,,,,,,,,,,,,,,,,239.04428938000024,244.71480838399998,,,,,011721,0,1,1,3,0,1,2,0,10,2021_Jan_17_1447,listening_fmri,3.2.4,59.60555890261598,
1,parcelated_audio/42/42_29.ogg,,,,,,,,,0,0,0,0,0,1,1,1,0,0,0,0,,,,,,,,,,,,,0,0,0,0,0,28,28,28,,,,,,,,,,,,,,,,,,,,,,,,,,,,,,,,,,,,,,,,,,,,,,,,,,,,,,,,,,,,,,,,,,,,,,,,,,,,,,,,,,,,,,,,,,,,,,,,,,,,,244.7151323710002,251.60730737100016,,,,,011721,0,1,1,3,0,1,2,0,10,2021_Jan_17_1447,listening_fmri,3.2.4,59.60555890261598,
1,parcelated_audio/42/42_30.ogg,,,,,,,,,0,0,0,0,0,1,1,1,0,0,0,0,,,,,,,,,,,,,0,0,0,0,0,29,29,29,,,,,,,,,,,,,,,,,,,,,,,,,,,,,,,,,,,,,,,,,,,,,,,,,,,,,,,,,,,,,,,,,,,,,,,,,,,,,,,,,,,,,,,,,,,,,,,,,,,,,251.6075822549999,262.49548984499984,,,,,011721,0,1,1,3,0,1,2,0,10,2021_Jan_17_1447,listening_fmri,3.2.4,59.60555890261598,
1,parcelated_audio/42/42_31.ogg,,,,,,,,,0,0,0,0,0,1,1,1,0,0,0,0,,,,,,,,,,,,,0,0,0,0,0,30,30,30,,,,,,,,,,,,,,,,,,,,,,,,,,,,,,,,,,,,,,,,,,,,,,,,,,,,,,,,,,,,,,,,,,,,,,,,,,,,,,,,,,,,,,,,,,,,,,,,,,,,,262.49576705899995,268.68032989300013,,,,,011721,0,1,1,3,0,1,2,0,10,2021_Jan_17_1447,listening_fmri,3.2.4,59.60555890261598,
1,parcelated_audio/42/42_32.ogg,,,,,,,,,0,0,0,0,0,1,1,1,0,0,0,0,,,,,,,,,,,,,0,0,0,0,0,31,31,31,,,,,,,,,,,,,,,,,,,,,,,,,,,,,,,,,,,,,,,,,,,,,,,,,,,,,,,,,,,,,,,,,,,,,,,,,,,,,,,,,,,,,,,,,,,,,,,,,,,,,268.6807070309999,276.8347781939999,,,,,011721,0,1,1,3,0,1,2,0,10,2021_Jan_17_1447,listening_fmri,3.2.4,59.60555890261598,
1,parcelated_audio/42/42_33.ogg,,,,,,,,,0,0,0,0,0,1,1,1,0,0,0,0,,,,,,,,,,,,,0,0,0,0,0,32,32,32,,,,,,,,,,,,,,,,,,,,,,,,,,,,,,,,,,,,,,,,,,,,,,,,,,,,,,,,,,,,,,,,,,,,,,,,,,,,,,,,,,,,,,,,,,,,,,,,,,,,,276.83507610899983,283.88553666099983,,,,,011721,0,1,1,3,0,1,2,0,10,2021_Jan_17_1447,listening_fmri,3.2.4,59.60555890261598,
1,parcelated_audio/42/42_34.ogg,,,,,,,,,0,0,0,0,0,1,1,1,0,0,0,0,,,,,,,,,,,,,0,0,0,0,0,33,33,33,,,,,,,,,,,,,,,,,,,,,,,,,,,,,,,,,,,,,,,,,,,,,,,,,,,,,,,,,,,,,,,,,,,,,,,,,,,,,,,,,,,,,,,,,,,,,,,,,,,,,283.8858124290002,294.5922341420003,,,,,011721,0,1,1,3,0,1,2,0,10,2021_Jan_17_1447,listening_fmri,3.2.4,59.60555890261598,
1,parcelated_audio/42/42_35.ogg,,,,,,,,,0,0,0,0,0,1,1,1,0,0,0,0,,,,,,,,,,,,,0,0,0,0,0,34,34,34,,,,,,,,,,,,,,,,,,,,,,,,,,,,,,,,,,,,,,,,,,,,,,,,,,,,,,,,,,,,,,,,,,,,,,,,,,,,,,,,,,,,,,,,,,,,,,,,,,,,,294.59250457300027,304.3416808600002,,,,,011721,0,1,1,3,0,1,2,0,10,2021_Jan_17_1447,listening_fmri,3.2.4,59.60555890261598,
1,,,,,,,,,,0,0,0,0,0,1,1,1,0,0,0,0,,,,,,,,,,,,,0,0,0,0,,,,,,,,,,,,,,,,,,,,,,,,,,,,,,,,,,,,,,,,,,,,,,,,,,,,,,,,,,,,,,,,,,,,,,,,,,,,,,,,,,,,,,,,,,,,,,,,,,,,,,,,,,,,,,,011721,0,1,1,3,0,1,2,0,10,2021_Jan_17_1447,listening_fmri,3.2.4,59.60555890261598,
1,,,,,,,,,,0,0,0,0,0,1,1,1,0,0,0,0,,,,,,,,,,,,,,,,,,,,,,,,,,,,,,,,,,,,,,304.34207870000023,310.3326319790001,355.0190008689997,None,,,,,,,,,,,,,,,,,,,,,,,,,,,,,,,,,,,,,,,,,,,,,,,,,,,,,,,,,,,,,,,,,,,,,,,,,,,,,,,,,,361.01960096799985,None,361.01960096799985,None,011721,0,1,1,3,0,1,2,0,10,2021_Jan_17_1447,listening_fmri,3.2.4,59.60555890261598,
1,,,,,,,,,,0,0,0,0,0,1,1,1,,,,,,,,,,,,,,,,,,,,,,,,,,,,,,,,,,,,,,,,,,,,,,,,,,,,,,,,,,,,,,,,,,,,,,,,,,,,,,,,,,,,,,,,,,,,,,,,,,,,,,,,,,,,,,,,,,,,,,,,,,,,,,,,,,,011721,0,1,1,3,0,1,2,0,10,2021_Jan_17_1447,listening_fmri,3.2.4,59.60555890261598,
2,parcelated_audio/31/31_1.ogg,,,,,,,,,0,0,0,0,0,2,2,2,0,0,0,0,,,,,,,,,,,,,0,0,0,0,0,0,0,0,,,,,,,,,,,,,,,,,,,,,,362.0358260859998,None,362.0358260859998,None,1,0.7646245900000395,362.0358260859998,None,362.0358260859998,None,,,,,,,,,,,,,,,,,,,,,,,,,,,,,,,,,,,,,,,,,,,,,,,,,,,,,,,,,,,,,,362.81954619,None,1,1.3479315900003712,362.81954619,None,313.5046990600001,316.51500265100026,316.5201432790002,325.19789080199985,,,,,011721,0,1,1,3,0,1,2,0,10,2021_Jan_17_1447,listening_fmri,3.2.4,59.60555890261598,
2,parcelated_audio/31/31_2.ogg,,,,,,,,,0,0,0,0,0,2,2,2,0,0,0,0,,,,,,,,,,,,,0,0,0,0,0,1,1,1,,,,,,,,,,,,,,,,,,,,,,,,,,,,,,,,,,,,,,,,,,,,,,,,,,,,,,,,,,,,,,,,,,,,,,,,,,,,,,,,,,,,,,,,,,,,,,,,,,,,,325.1982046410001,329.64371092099987,,,,,011721,0,1,1,3,0,1,2,0,10,2021_Jan_17_1447,listening_fmri,3.2.4,59.60555890261598,
2,parcelated_audio/31/31_3.ogg,,,,,,,,,0,0,0,0,0,2,2,2,0,0,0,0,,,,,,,,,,,,,0,0,0,0,0,2,2,2,,,,,,,,,,,,,,,,,,,,,,,,,,,,,,,,,,,,,,,,,,,,,,,,,,,,,,,,,,,,,,,,,,,,,,,,,,,,,,,,,,,,,,,,,,,,,,,,,,,,,329.6440295929999,337.93214554500014,,,,,011721,0,1,1,3,0,1,2,0,10,2021_Jan_17_1447,listening_fmri,3.2.4,59.60555890261598,
2,parcelated_audio/31/31_4.ogg,,,,,,,,,0,0,0,0,0,2,2,2,0,0,0,0,,,,,,,,,,,,,0,0,0,0,0,3,3,3,,,,,,,,,,,,,,,,,,,,,,,,,,,,,,,,,,,,,,,,,,,,,,,,,,,,,,,,,,,,,,,,,,,,,,,,,,,,,,,,,,,,,,,,,,,,,,,,,,,,,337.9324230079999,348.00570503799986,,,,,011721,0,1,1,3,0,1,2,0,10,2021_Jan_17_1447,listening_fmri,3.2.4,59.60555890261598,
2,parcelated_audio/31/31_5.ogg,,,,,,,,,0,0,0,0,0,2,2,2,0,0,0,0,,,,,,,,,,,,,0,0,0,0,0,4,4,4,,,,,,,,,,,,,,,,,,,,,,,,,,,,,,,,,,,,,,,,,,,,,,,,,,,,,,,,,,,,,,,,,,,,,,,,,,,,,,,,,,,,,,,,,,,,,,,,,,,,,348.00602532300013,359.12004003200013,,,,,011721,0,1,1,3,0,1,2,0,10,2021_Jan_17_1447,listening_fmri,3.2.4,59.60555890261598,
2,parcelated_audio/31/31_6.ogg,,,,,,,,,0,0,0,0,0,2,2,2,0,0,0,0,,,,,,,,,,,,,0,0,0,0,0,5,5,5,,,,,,,,,,,,,,,,,,,,,,,,,,,,,,,,,,,,,,,,,,,,,,,,,,,,,,,,,,,,,,,,,,,,,,,,,,,,,,,,,,,,,,,,,,,,,,,,,,,,,359.120316066,364.434966217,,,,,011721,0,1,1,3,0,1,2,0,10,2021_Jan_17_1447,listening_fmri,3.2.4,59.60555890261598,
2,parcelated_audio/31/31_7.ogg,,,,,,,,,0,0,0,0,0,2,2,2,0,0,0,0,,,,,,,,,,,,,0,0,0,0,0,6,6,6,,,,,,,,,,,,,,,,,,,,,,,,,,,,,,,,,,,,,,,,,,,,,,,,,,,,,,,,,,,,,,,,,,,,,,,,,,,,,,,,,,,,,,,,,,,,,,,,,,,,,364.43521966699996,369.2801968860001,,,,,011721,0,1,1,3,0,1,2,0,10,2021_Jan_17_1447,listening_fmri,3.2.4,59.60555890261598,
2,parcelated_audio/31/31_8.ogg,,,,,,,,,0,0,0,0,0,2,2,2,0,0,0,0,,,,,,,,,,,,,0,0,0,0,0,7,7,7,,,,,,,,,,,,,,,,,,,,,,,,,,,,,,,,,,,,,,,,,,,,,,,,,,,,,,,,,,,,,,,,,,,,,,,,,,,,,,,,,,,,,,,,,,,,,,,,,,,,,369.280472228,377.73368061999986,,,,,011721,0,1,1,3,0,1,2,0,10,2021_Jan_17_1447,listening_fmri,3.2.4,59.60555890261598,
2,parcelated_audio/31/31_9.ogg,,,,,,,,,0,0,0,0,0,2,2,2,0,0,0,0,,,,,,,,,,,,,0,0,0,0,0,8,8,8,,,,,,,,,,,,,,,,,,,,,,,,,,,,,,,,,,,,,,,,,,,,,,,,,,,,,,,,,,,,,,,,,,,,,,,,,,,,,,,,,,,,,,,,,,,,,,,,,,,,,377.73396537400026,382.8034822500001,,,,,011721,0,1,1,3,0,1,2,0,10,2021_Jan_17_1447,listening_fmri,3.2.4,59.60555890261598,
2,parcelated_audio/31/31_10.ogg,,,,,,,,,0,0,0,0,0,2,2,2,0,0,0,0,,,,,,,,,,,,,0,0,0,0,0,9,9,9,,,,,,,,,,,,,,,,,,,,,,,,,,,,,,,,,,,,,,,,,,,,,,,,,,,,,,,,,,,,,,,,,,,,,,,,,,,,,,,,,,,,,,,,,,,,,,,,,,,,,382.80378121399986,388.309702023,,,,,011721,0,1,1,3,0,1,2,0,10,2021_Jan_17_1447,listening_fmri,3.2.4,59.60555890261598,
2,parcelated_audio/31/31_11.ogg,,,,,,,,,0,0,0,0,0,2,2,2,0,0,0,0,,,,,,,,,,,,,0,0,0,0,0,10,10,10,,,,,,,,,,,,,,,,,,,,,,,,,,,,,,,,,,,,,,,,,,,,,,,,,,,,,,,,,,,,,,,,,,,,,,,,,,,,,,,,,,,,,,,,,,,,,,,,,,,,,388.309976969,398.5259913470002,,,,,011721,0,1,1,3,0,1,2,0,10,2021_Jan_17_1447,listening_fmri,3.2.4,59.60555890261598,
2,parcelated_audio/31/31_12.ogg,,,,,,,,,0,0,0,0,0,2,2,2,0,0,0,0,,,,,,,,,,,,,0,0,0,0,0,11,11,11,,,,,,,,,,,,,,,,,,,,,,,,,,,,,,,,,,,,,,,,,,,,,,,,,,,,,,,,,,,,,,,,,,,,,,,,,,,,,,,,,,,,,,,,,,,,,,,,,,,,,398.52634319799995,403.2976276679999,,,,,011721,0,1,1,3,0,1,2,0,10,2021_Jan_17_1447,listening_fmri,3.2.4,59.60555890261598,
2,parcelated_audio/31/31_13.ogg,,,,,,,,,0,0,0,0,0,2,2,2,0,0,0,0,,,,,,,,,,,,,0,0,0,0,0,12,12,12,,,,,,,,,,,,,,,,,,,,,,,,,,,,,,,,,,,,,,,,,,,,,,,,,,,,,,,,,,,,,,,,,,,,,,,,,,,,,,,,,,,,,,,,,,,,,,,,,,,,,403.297990323,410.62190713099994,,,,,011721,0,1,1,3,0,1,2,0,10,2021_Jan_17_1447,listening_fmri,3.2.4,59.60555890261598,
2,parcelated_audio/31/31_14.ogg,,,,,,,,,0,0,0,0,0,2,2,2,0,0,0,0,,,,,,,,,,,,,0,0,0,0,0,13,13,13,,,,,,,,,,,,,,,,,,,,,,,,,,,,,,,,,,,,,,,,,,,,,,,,,,,,,,,,,,,,,,,,,,,,,,,,,,,,,,,,,,,,,,,,,,,,,,,,,,,,,410.62232020299984,416.75784634800016,,,,,011721,0,1,1,3,0,1,2,0,10,2021_Jan_17_1447,listening_fmri,3.2.4,59.60555890261598,
2,parcelated_audio/31/31_15.ogg,,,,,,,,,0,0,0,0,0,2,2,2,0,0,0,0,,,,,,,,,,,,,0,0,0,0,0,14,14,14,,,,,,,,,,,,,,,,,,,,,,,,,,,,,,,,,,,,,,,,,,,,,,,,,,,,,,,,,,,,,,,,,,,,,,,,,,,,,,,,,,,,,,,,,,,,,,,,,,,,,416.75820054400015,423.5598141940002,,,,,011721,0,1,1,3,0,1,2,0,10,2021_Jan_17_1447,listening_fmri,3.2.4,59.60555890261598,
2,parcelated_audio/31/31_16.ogg,,,,,,,,,0,0,0,0,0,2,2,2,0,0,0,0,,,,,,,,,,,,,0,0,0,0,0,15,15,15,,,,,,,,,,,,,,,,,,,,,,,,,,,,,,,,,,,,,,,,,,,,,,,,,,,,,,,,,,,,,,,,,,,,,,,,,,,,,,,,,,,,,,,,,,,,,,,,,,,,,423.5601693199999,429.9640354740002,,,,,011721,0,1,1,3,0,1,2,0,10,2021_Jan_17_1447,listening_fmri,3.2.4,59.60555890261598,
2,parcelated_audio/31/31_17.ogg,,,,,,,,,0,0,0,0,0,2,2,2,0,0,0,0,,,,,,,,,,,,,0,0,0,0,0,16,16,16,,,,,,,,,,,,,,,,,,,,,,,,,,,,,,,,,,,,,,,,,,,,,,,,,,,,,,,,,,,,,,,,,,,,,,,,,,,,,,,,,,,,,,,,,,,,,,,,,,,,,429.96438159900003,433.41528634500014,,,,,011721,0,1,1,3,0,1,2,0,10,2021_Jan_17_1447,listening_fmri,3.2.4,59.60555890261598,
2,parcelated_audio/31/31_18.ogg,,,,,,,,,0,0,0,0,0,2,2,2,0,0,0,0,,,,,,,,,,,,,0,0,0,0,0,17,17,17,,,,,,,,,,,,,,,,,,,,,,,,,,,,,,,,,,,,,,,,,,,,,,,,,,,,,,,,,,,,,,,,,,,,,,,,,,,,,,,,,,,,,,,,,,,,,,,,,,,,,433.41564458100015,438.04290206300016,,,,,011721,0,1,1,3,0,1,2,0,10,2021_Jan_17_1447,listening_fmri,3.2.4,59.60555890261598,
2,parcelated_audio/31/31_19.ogg,,,,,,,,,0,0,0,0,0,2,2,2,0,0,0,0,,,,,,,,,,,,,0,0,0,0,0,18,18,18,,,,,,,,,,,,,,,,,,,,,,,,,,,,,,,,,,,,,,,,,,,,,,,,,,,,,,,,,,,,,,,,,,,,,,,,,,,,,,,,,,,,,,,,,,,,,,,,,,,,,438.0432533720002,446.34816043900014,,,,,011721,0,1,1,3,0,1,2,0,10,2021_Jan_17_1447,listening_fmri,3.2.4,59.60555890261598,
2,parcelated_audio/31/31_20.ogg,,,,,,,,,0,0,0,0,0,2,2,2,0,0,0,0,,,,,,,,,,,,,0,0,0,0,0,19,19,19,,,,,,,,,,,,,,,,,,,,,,,,,,,,,,,,,,,,,,,,,,,,,,,,,,,,,,,,,,,,,,,,,,,,,,,,,,,,,,,,,,,,,,,,,,,,,,,,,,,,,446.3485039069999,464.1843116289999,,,,,011721,0,1,1,3,0,1,2,0,10,2021_Jan_17_1447,listening_fmri,3.2.4,59.60555890261598,
2,parcelated_audio/31/31_21.ogg,,,,,,,,,0,0,0,0,0,2,2,2,0,0,0,0,,,,,,,,,,,,,0,0,0,0,0,20,20,20,,,,,,,,,,,,,,,,,,,,,,,,,,,,,,,,,,,,,,,,,,,,,,,,,,,,,,,,,,,,,,,,,,,,,,,,,,,,,,,,,,,,,,,,,,,,,,,,,,,,,464.1845662600001,474.43375238500016,,,,,011721,0,1,1,3,0,1,2,0,10,2021_Jan_17_1447,listening_fmri,3.2.4,59.60555890261598,
2,parcelated_audio/31/31_22.ogg,,,,,,,,,0,0,0,0,0,2,2,2,0,0,0,0,,,,,,,,,,,,,0,0,0,0,0,21,21,21,,,,,,,,,,,,,,,,,,,,,,,,,,,,,,,,,,,,,,,,,,,,,,,,,,,,,,,,,,,,,,,,,,,,,,,,,,,,,,,,,,,,,,,,,,,,,,,,,,,,,474.43402879200016,480.1475171929999,,,,,011721,0,1,1,3,0,1,2,0,10,2021_Jan_17_1447,listening_fmri,3.2.4,59.60555890261598,
2,parcelated_audio/31/31_23.ogg,,,,,,,,,0,0,0,0,0,2,2,2,0,0,0,0,,,,,,,,,,,,,0,0,0,0,0,22,22,22,,,,,,,,,,,,,,,,,,,,,,,,,,,,,,,,,,,,,,,,,,,,,,,,,,,,,,,,,,,,,,,,,,,,,,,,,,,,,,,,,,,,,,,,,,,,,,,,,,,,,480.14780512899983,484.7522466759999,,,,,011721,0,1,1,3,0,1,2,0,10,2021_Jan_17_1447,listening_fmri,3.2.4,59.60555890261598,
2,parcelated_audio/31/31_24.ogg,,,,,,,,,0,0,0,0,0,2,2,2,0,0,0,0,,,,,,,,,,,,,0,0,0,0,0,23,23,23,,,,,,,,,,,,,,,,,,,,,,,,,,,,,,,,,,,,,,,,,,,,,,,,,,,,,,,,,,,,,,,,,,,,,,,,,,,,,,,,,,,,,,,,,,,,,,,,,,,,,484.7525199439999,491.629592041,,,,,011721,0,1,1,3,0,1,2,0,10,2021_Jan_17_1447,listening_fmri,3.2.4,59.60555890261598,
2,parcelated_audio/31/31_25.ogg,,,,,,,,,0,0,0,0,0,2,2,2,0,0,0,0,,,,,,,,,,,,,0,0,0,0,0,24,24,24,,,,,,,,,,,,,,,,,,,,,,,,,,,,,,,,,,,,,,,,,,,,,,,,,,,,,,,,,,,,,,,,,,,,,,,,,,,,,,,,,,,,,,,,,,,,,,,,,,,,,491.62987455200005,503.62950412500027,,,,,011721,0,1,1,3,0,1,2,0,10,2021_Jan_17_1447,listening_fmri,3.2.4,59.60555890261598,
2,parcelated_audio/31/31_26.ogg,,,,,,,,,0,0,0,0,0,2,2,2,0,0,0,0,,,,,,,,,,,,,0,0,0,0,0,25,25,25,,,,,,,,,,,,,,,,,,,,,,,,,,,,,,,,,,,,,,,,,,,,,,,,,,,,,,,,,,,,,,,,,,,,,,,,,,,,,,,,,,,,,,,,,,,,,,,,,,,,,503.62978054400014,511.143694398,,,,,011721,0,1,1,3,0,1,2,0,10,2021_Jan_17_1447,listening_fmri,3.2.4,59.60555890261598,
2,parcelated_audio/31/31_27.ogg,,,,,,,,,0,0,0,0,0,2,2,2,0,0,0,0,,,,,,,,,,,,,0,0,0,0,0,26,26,26,,,,,,,,,,,,,,,,,,,,,,,,,,,,,,,,,,,,,,,,,,,,,,,,,,,,,,,,,,,,,,,,,,,,,,,,,,,,,,,,,,,,,,,,,,,,,,,,,,,,,511.144011483,515.5419382540001,,,,,011721,0,1,1,3,0,1,2,0,10,2021_Jan_17_1447,listening_fmri,3.2.4,59.60555890261598,
2,parcelated_audio/31/31_28.ogg,,,,,,,,,0,0,0,0,0,2,2,2,0,0,0,0,,,,,,,,,,,,,0,0,0,0,0,27,27,27,,,,,,,,,,,,,,,,,,,,,,,,,,,,,,,,,,,,,,,,,,,,,,,,,,,,,,,,,,,,,,,,,,,,,,,,,,,,,,,,,,,,,,,,,,,,,,,,,,,,,515.5423415950002,520.5486336390002,,,,,011721,0,1,1,3,0,1,2,0,10,2021_Jan_17_1447,listening_fmri,3.2.4,59.60555890261598,
2,parcelated_audio/31/31_29.ogg,,,,,,,,,0,0,0,0,0,2,2,2,0,0,0,0,,,,,,,,,,,,,0,0,0,0,0,28,28,28,,,,,,,,,,,,,,,,,,,,,,,,,,,,,,,,,,,,,,,,,,,,,,,,,,,,,,,,,,,,,,,,,,,,,,,,,,,,,,,,,,,,,,,,,,,,,,,,,,,,,520.549571239,524.8962027919999,,,,,011721,0,1,1,3,0,1,2,0,10,2021_Jan_17_1447,listening_fmri,3.2.4,59.60555890261598,
2,parcelated_audio/31/31_30.ogg,,,,,,,,,0,0,0,0,0,2,2,2,0,0,0,0,,,,,,,,,,,,,0,0,0,0,0,29,29,29,,,,,,,,,,,,,,,,,,,,,,,,,,,,,,,,,,,,,,,,,,,,,,,,,,,,,,,,,,,,,,,,,,,,,,,,,,,,,,,,,,,,,,,,,,,,,,,,,,,,,524.8965613729999,528.6616749259999,,,,,011721,0,1,1,3,0,1,2,0,10,2021_Jan_17_1447,listening_fmri,3.2.4,59.60555890261598,
2,parcelated_audio/31/31_31.ogg,,,,,,,,,0,0,0,0,0,2,2,2,0,0,0,0,,,,,,,,,,,,,0,0,0,0,0,30,30,30,,,,,,,,,,,,,,,,,,,,,,,,,,,,,,,,,,,,,,,,,,,,,,,,,,,,,,,,,,,,,,,,,,,,,,,,,,,,,,,,,,,,,,,,,,,,,,,,,,,,,528.662040986,534.6126227739999,,,,,011721,0,1,1,3,0,1,2,0,10,2021_Jan_17_1447,listening_fmri,3.2.4,59.60555890261598,
2,parcelated_audio/31/31_32.ogg,,,,,,,,,0,0,0,0,0,2,2,2,0,0,0,0,,,,,,,,,,,,,0,0,0,0,0,31,31,31,,,,,,,,,,,,,,,,,,,,,,,,,,,,,,,,,,,,,,,,,,,,,,,,,,,,,,,,,,,,,,,,,,,,,,,,,,,,,,,,,,,,,,,,,,,,,,,,,,,,,534.6129875130002,544.577924254,,,,,011721,0,1,1,3,0,1,2,0,10,2021_Jan_17_1447,listening_fmri,3.2.4,59.60555890261598,
2,parcelated_audio/31/31_33.ogg,,,,,,,,,0,0,0,0,0,2,2,2,0,0,0,0,,,,,,,,,,,,,0,0,0,0,0,32,32,32,,,,,,,,,,,,,,,,,,,,,,,,,,,,,,,,,,,,,,,,,,,,,,,,,,,,,,,,,,,,,,,,,,,,,,,,,,,,,,,,,,,,,,,,,,,,,,,,,,,,,544.5782774219999,552.9463857610001,,,,,011721,0,1,1,3,0,1,2,0,10,2021_Jan_17_1447,listening_fmri,3.2.4,59.60555890261598,
2,parcelated_audio/31/31_34.ogg,,,,,,,,,0,0,0,0,0,2,2,2,0,0,0,0,,,,,,,,,,,,,0,0,0,0,0,33,33,33,,,,,,,,,,,,,,,,,,,,,,,,,,,,,,,,,,,,,,,,,,,,,,,,,,,,,,,,,,,,,,,,,,,,,,,,,,,,,,,,,,,,,,,,,,,,,,,,,,,,,552.946720701,557.3282419459999,,,,,011721,0,1,1,3,0,1,2,0,10,2021_Jan_17_1447,listening_fmri,3.2.4,59.60555890261598,
2,parcelated_audio/31/31_35.ogg,,,,,,,,,0,0,0,0,0,2,2,2,0,0,0,0,,,,,,,,,,,,,0,0,0,0,0,34,34,34,,,,,,,,,,,,,,,,,,,,,,,,,,,,,,,,,,,,,,,,,,,,,,,,,,,,,,,,,,,,,,,,,,,,,,,,,,,,,,,,,,,,,,,,,,,,,,,,,,,,,557.3285214069999,563.0956293430002,,,,,011721,0,1,1,3,0,1,2,0,10,2021_Jan_17_1447,listening_fmri,3.2.4,59.60555890261598,
2,parcelated_audio/31/31_36.ogg,,,,,,,,,0,0,0,0,0,2,2,2,0,0,0,0,,,,,,,,,,,,,0,0,0,0,0,35,35,35,,,,,,,,,,,,,,,,,,,,,,,,,,,,,,,,,,,,,,,,,,,,,,,,,,,,,,,,,,,,,,,,,,,,,,,,,,,,,,,,,,,,,,,,,,,,,,,,,,,,,563.0959685290002,569.4096164499999,,,,,011721,0,1,1,3,0,1,2,0,10,2021_Jan_17_1447,listening_fmri,3.2.4,59.60555890261598,
2,,,,,,,,,,0,0,0,0,0,2,2,2,0,0,0,0,,,,,,,,,,,,,0,0,0,0,,,,,,,,,,,,,,,,,,,,,,,,,,,,,,,,,,,,,,,,,,,,,,,,,,,,,,,,,,,,,,,,,,,,,,,,,,,,,,,,,,,,,,,,,,,,,,,,,,,,,,,,,,,,,,,011721,0,1,1,3,0,1,2,0,10,2021_Jan_17_1447,listening_fmri,3.2.4,59.60555890261598,
2,,,,,,,,,,0,0,0,0,0,2,2,2,0,0,0,0,,,,,,,,,,,,,,,,,,,,,,,,,,,,,,,,,,,,,,569.4099684820001,575.3986693190002,620.0853283470001,None,,,,,,,,,,,,,,,,,,,,,,,,,,,,,,,,,,,,,,,,,,,,,,,,,,,,,,,,,,,,,,,,,,,,,,,,,,,,,,,,,,626.0866010310001,None,626.0866010310001,None,011721,0,1,1,3,0,1,2,0,10,2021_Jan_17_1447,listening_fmri,3.2.4,59.60555890261598,
2,,,,,,,,,,0,0,0,0,0,2,2,2,,,,,,,,,,,,,,,,,,,,,,,,,,,,,,,,,,,,,,,,,,,,,,,,,,,,,,,,,,,,,,,,,,,,,,,,,,,,,,,,,,,,,,,,,,,,,,,,,,,,,,,,,,,,,,,,,,,,,,,,,,,,,,,,,,,011721,0,1,1,3,0,1,2,0,10,2021_Jan_17_1447,listening_fmri,3.2.4,59.60555890261598,
3,parcelated_audio/33/33_1.ogg,,,,,,,,,0,0,0,0,0,3,3,3,0,0,0,0,,,,,,,,,,,,,0,0,0,0,0,0,0,0,,,,,,,,,,,,,,,,,,,,,,627.100002831,None,627.100002831,None,1,1.0764744220000466,627.100002831,None,627.100002831,None,,,,,,,,,,,,,,,,,,,,,,,,,,,,,,,,,,,,,,,,,,,,,,,,,,,,,,,,,,,,,,628.2037748869998,None,1,2.1767256680000173,628.2037748869998,None,579.72170136,582.7326710740001,582.7372766199999,592.696023318,,,,,011721,0,1,1,3,0,1,2,0,10,2021_Jan_17_1447,listening_fmri,3.2.4,59.60555890261598,
3,parcelated_audio/33/33_2.ogg,,,,,,,,,0,0,0,0,0,3,3,3,0,0,0,0,,,,,,,,,,,,,0,0,0,0,0,1,1,1,,,,,,,,,,,,,,,,,,,,,,,,,,,,,,,,,,,,,,,,,,,,,,,,,,,,,,,,,,,,,,,,,,,,,,,,,,,,,,,,,,,,,,,,,,,,,,,,,,,,,592.6962843530002,603.1394684150002,,,,,011721,0,1,1,3,0,1,2,0,10,2021_Jan_17_1447,listening_fmri,3.2.4,59.60555890261598,
3,parcelated_audio/33/33_3.ogg,,,,,,,,,0,0,0,0,0,3,3,3,0,0,0,0,,,,,,,,,,,,,0,0,0,0,0,2,2,2,,,,,,,,,,,,,,,,,,,,,,,,,,,,,,,,,,,,,,,,,,,,,,,,,,,,,,,,,,,,,,,,,,,,,,,,,,,,,,,,,,,,,,,,,,,,,,,,,,,,,603.1397420159999,609.6775571129999,,,,,011721,0,1,1,3,0,1,2,0,10,2021_Jan_17_1447,listening_fmri,3.2.4,59.60555890261598,
3,parcelated_audio/33/33_4.ogg,,,,,,,,,0,0,0,0,0,3,3,3,0,0,0,0,,,,,,,,,,,,,0,0,0,0,0,3,3,3,,,,,,,,,,,,,,,,,,,,,,,,,,,,,,,,,,,,,,,,,,,,,,,,,,,,,,,,,,,,,,,,,,,,,,,,,,,,,,,,,,,,,,,,,,,,,,,,,,,,,609.6778334809999,613.2509396900002,,,,,011721,0,1,1,3,0,1,2,0,10,2021_Jan_17_1447,listening_fmri,3.2.4,59.60555890261598,
3,parcelated_audio/33/33_5.ogg,,,,,,,,,0,0,0,0,0,3,3,3,0,0,0,0,,,,,,,,,,,,,0,0,0,0,0,4,4,4,,,,,,,,,,,,,,,,,,,,,,,,,,,,,,,,,,,,,,,,,,,,,,,,,,,,,,,,,,,,,,,,,,,,,,,,,,,,,,,,,,,,,,,,,,,,,,,,,,,,,613.251440498,624.4964965370002,,,,,011721,0,1,1,3,0,1,2,0,10,2021_Jan_17_1447,listening_fmri,3.2.4,59.60555890261598,
3,parcelated_audio/33/33_6.ogg,,,,,,,,,0,0,0,0,0,3,3,3,0,0,0,0,,,,,,,,,,,,,0,0,0,0,0,5,5,5,,,,,,,,,,,,,,,,,,,,,,,,,,,,,,,,,,,,,,,,,,,,,,,,,,,,,,,,,,,,,,,,,,,,,,,,,,,,,,,,,,,,,,,,,,,,,,,,,,,,,624.4969071809999,636.1896498009999,,,,,011721,0,1,1,3,0,1,2,0,10,2021_Jan_17_1447,listening_fmri,3.2.4,59.60555890261598,
3,parcelated_audio/33/33_7.ogg,,,,,,,,,0,0,0,0,0,3,3,3,0,0,0,0,,,,,,,,,,,,,0,0,0,0,0,6,6,6,,,,,,,,,,,,,,,,,,,,,,,,,,,,,,,,,,,,,,,,,,,,,,,,,,,,,,,,,,,,,,,,,,,,,,,,,,,,,,,,,,,,,,,,,,,,,,,,,,,,,636.1901910499998,650.747114129,,,,,011721,0,1,1,3,0,1,2,0,10,2021_Jan_17_1447,listening_fmri,3.2.4,59.60555890261598,
3,parcelated_audio/33/33_8.ogg,,,,,,,,,0,0,0,0,0,3,3,3,0,0,0,0,,,,,,,,,,,,,0,0,0,0,0,7,7,7,,,,,,,,,,,,,,,,,,,,,,,,,,,,,,,,,,,,,,,,,,,,,,,,,,,,,,,,,,,,,,,,,,,,,,,,,,,,,,,,,,,,,,,,,,,,,,,,,,,,,650.7474696840002,656.8820057230002,,,,,011721,0,1,1,3,0,1,2,0,10,2021_Jan_17_1447,listening_fmri,3.2.4,59.60555890261598,
3,parcelated_audio/33/33_9.ogg,,,,,,,,,0,0,0,0,0,3,3,3,0,0,0,0,,,,,,,,,,,,,0,0,0,0,0,8,8,8,,,,,,,,,,,,,,,,,,,,,,,,,,,,,,,,,,,,,,,,,,,,,,,,,,,,,,,,,,,,,,,,,,,,,,,,,,,,,,,,,,,,,,,,,,,,,,,,,,,,,656.8823613440002,660.580196912,,,,,011721,0,1,1,3,0,1,2,0,10,2021_Jan_17_1447,listening_fmri,3.2.4,59.60555890261598,
3,parcelated_audio/33/33_10.ogg,,,,,,,,,0,0,0,0,0,3,3,3,0,0,0,0,,,,,,,,,,,,,0,0,0,0,0,9,9,9,,,,,,,,,,,,,,,,,,,,,,,,,,,,,,,,,,,,,,,,,,,,,,,,,,,,,,,,,,,,,,,,,,,,,,,,,,,,,,,,,,,,,,,,,,,,,,,,,,,,,660.5805519060002,665.9445495530001,,,,,011721,0,1,1,3,0,1,2,0,10,2021_Jan_17_1447,listening_fmri,3.2.4,59.60555890261598,
3,parcelated_audio/33/33_11.ogg,,,,,,,,,0,0,0,0,0,3,3,3,0,0,0,0,,,,,,,,,,,,,0,0,0,0,0,10,10,10,,,,,,,,,,,,,,,,,,,,,,,,,,,,,,,,,,,,,,,,,,,,,,,,,,,,,,,,,,,,,,,,,,,,,,,,,,,,,,,,,,,,,,,,,,,,,,,,,,,,,665.9451999780001,680.3640371260001,,,,,011721,0,1,1,3,0,1,2,0,10,2021_Jan_17_1447,listening_fmri,3.2.4,59.60555890261598,
3,parcelated_audio/33/33_12.ogg,,,,,,,,,0,0,0,0,0,3,3,3,0,0,0,0,,,,,,,,,,,,,0,0,0,0,0,11,11,11,,,,,,,,,,,,,,,,,,,,,,,,,,,,,,,,,,,,,,,,,,,,,,,,,,,,,,,,,,,,,,,,,,,,,,,,,,,,,,,,,,,,,,,,,,,,,,,,,,,,,680.364391462,686.4675358239999,,,,,011721,0,1,1,3,0,1,2,0,10,2021_Jan_17_1447,listening_fmri,3.2.4,59.60555890261598,
3,parcelated_audio/33/33_13.ogg,,,,,,,,,0,0,0,0,0,3,3,3,0,0,0,0,,,,,,,,,,,,,0,0,0,0,0,12,12,12,,,,,,,,,,,,,,,,,,,,,,,,,,,,,,,,,,,,,,,,,,,,,,,,,,,,,,,,,,,,,,,,,,,,,,,,,,,,,,,,,,,,,,,,,,,,,,,,,,,,,686.4679056830003,693.882666317,,,,,011721,0,1,1,3,0,1,2,0,10,2021_Jan_17_1447,listening_fmri,3.2.4,59.60555890261598,
3,parcelated_audio/33/33_14.ogg,,,,,,,,,0,0,0,0,0,3,3,3,0,0,0,0,,,,,,,,,,,,,0,0,0,0,0,13,13,13,,,,,,,,,,,,,,,,,,,,,,,,,,,,,,,,,,,,,,,,,,,,,,,,,,,,,,,,,,,,,,,,,,,,,,,,,,,,,,,,,,,,,,,,,,,,,,,,,,,,,693.8829594870001,706.314904178,,,,,011721,0,1,1,3,0,1,2,0,10,2021_Jan_17_1447,listening_fmri,3.2.4,59.60555890261598,
3,parcelated_audio/33/33_15.ogg,,,,,,,,,0,0,0,0,0,3,3,3,0,0,0,0,,,,,,,,,,,,,0,0,0,0,0,14,14,14,,,,,,,,,,,,,,,,,,,,,,,,,,,,,,,,,,,,,,,,,,,,,,,,,,,,,,,,,,,,,,,,,,,,,,,,,,,,,,,,,,,,,,,,,,,,,,,,,,,,,706.3151568750002,724.853544028,,,,,011721,0,1,1,3,0,1,2,0,10,2021_Jan_17_1447,listening_fmri,3.2.4,59.60555890261598,
3,parcelated_audio/33/33_16.ogg,,,,,,,,,0,0,0,0,0,3,3,3,0,0,0,0,,,,,,,,,,,,,0,0,0,0,0,15,15,15,,,,,,,,,,,,,,,,,,,,,,,,,,,,,,,,,,,,,,,,,,,,,,,,,,,,,,,,,,,,,,,,,,,,,,,,,,,,,,,,,,,,,,,,,,,,,,,,,,,,,724.854051042,737.0802888750002,,,,,011721,0,1,1,3,0,1,2,0,10,2021_Jan_17_1447,listening_fmri,3.2.4,59.60555890261598,
3,parcelated_audio/33/33_17.ogg,,,,,,,,,0,0,0,0,0,3,3,3,0,0,0,0,,,,,,,,,,,,,0,0,0,0,0,16,16,16,,,,,,,,,,,,,,,,,,,,,,,,,,,,,,,,,,,,,,,,,,,,,,,,,,,,,,,,,,,,,,,,,,,,,,,,,,,,,,,,,,,,,,,,,,,,,,,,,,,,,737.080566114,748.31590183,,,,,011721,0,1,1,3,0,1,2,0,10,2021_Jan_17_1447,listening_fmri,3.2.4,59.60555890261598,
3,parcelated_audio/33/33_18.ogg,,,,,,,,,0,0,0,0,0,3,3,3,0,0,0,0,,,,,,,,,,,,,0,0,0,0,0,17,17,17,,,,,,,,,,,,,,,,,,,,,,,,,,,,,,,,,,,,,,,,,,,,,,,,,,,,,,,,,,,,,,,,,,,,,,,,,,,,,,,,,,,,,,,,,,,,,,,,,,,,,748.3161685920002,756.779413259,,,,,011721,0,1,1,3,0,1,2,0,10,2021_Jan_17_1447,listening_fmri,3.2.4,59.60555890261598,
3,parcelated_audio/33/33_19.ogg,,,,,,,,,0,0,0,0,0,3,3,3,0,0,0,0,,,,,,,,,,,,,0,0,0,0,0,18,18,18,,,,,,,,,,,,,,,,,,,,,,,,,,,,,,,,,,,,,,,,,,,,,,,,,,,,,,,,,,,,,,,,,,,,,,,,,,,,,,,,,,,,,,,,,,,,,,,,,,,,,756.779780049,760.2259451900002,,,,,011721,0,1,1,3,0,1,2,0,10,2021_Jan_17_1447,listening_fmri,3.2.4,59.60555890261598,
3,parcelated_audio/33/33_20.ogg,,,,,,,,,0,0,0,0,0,3,3,3,0,0,0,0,,,,,,,,,,,,,0,0,0,0,0,19,19,19,,,,,,,,,,,,,,,,,,,,,,,,,,,,,,,,,,,,,,,,,,,,,,,,,,,,,,,,,,,,,,,,,,,,,,,,,,,,,,,,,,,,,,,,,,,,,,,,,,,,,760.2262321999999,767.0926838420003,,,,,011721,0,1,1,3,0,1,2,0,10,2021_Jan_17_1447,listening_fmri,3.2.4,59.60555890261598,
3,parcelated_audio/33/33_21.ogg,,,,,,,,,0,0,0,0,0,3,3,3,0,0,0,0,,,,,,,,,,,,,0,0,0,0,0,20,20,20,,,,,,,,,,,,,,,,,,,,,,,,,,,,,,,,,,,,,,,,,,,,,,,,,,,,,,,,,,,,,,,,,,,,,,,,,,,,,,,,,,,,,,,,,,,,,,,,,,,,,767.0930379829999,771.2326167500003,,,,,011721,0,1,1,3,0,1,2,0,10,2021_Jan_17_1447,listening_fmri,3.2.4,59.60555890261598,
3,parcelated_audio/33/33_22.ogg,,,,,,,,,0,0,0,0,0,3,3,3,0,0,0,0,,,,,,,,,,,,,0,0,0,0,0,21,21,21,,,,,,,,,,,,,,,,,,,,,,,,,,,,,,,,,,,,,,,,,,,,,,,,,,,,,,,,,,,,,,,,,,,,,,,,,,,,,,,,,,,,,,,,,,,,,,,,,,,,,771.2330180470001,783.0646601840001,,,,,011721,0,1,1,3,0,1,2,0,10,2021_Jan_17_1447,listening_fmri,3.2.4,59.60555890261598,
3,parcelated_audio/33/33_23.ogg,,,,,,,,,0,0,0,0,0,3,3,3,0,0,0,0,,,,,,,,,,,,,0,0,0,0,0,22,22,22,,,,,,,,,,,,,,,,,,,,,,,,,,,,,,,,,,,,,,,,,,,,,,,,,,,,,,,,,,,,,,,,,,,,,,,,,,,,,,,,,,,,,,,,,,,,,,,,,,,,,783.0650125220002,793.5412304580002,,,,,011721,0,1,1,3,0,1,2,0,10,2021_Jan_17_1447,listening_fmri,3.2.4,59.60555890261598,
3,parcelated_audio/33/33_24.ogg,,,,,,,,,0,0,0,0,0,3,3,3,0,0,0,0,,,,,,,,,,,,,0,0,0,0,0,23,23,23,,,,,,,,,,,,,,,,,,,,,,,,,,,,,,,,,,,,,,,,,,,,,,,,,,,,,,,,,,,,,,,,,,,,,,,,,,,,,,,,,,,,,,,,,,,,,,,,,,,,,793.5415982430002,799.8211809319998,,,,,011721,0,1,1,3,0,1,2,0,10,2021_Jan_17_1447,listening_fmri,3.2.4,59.60555890261598,
3,parcelated_audio/33/33_25.ogg,,,,,,,,,0,0,0,0,0,3,3,3,0,0,0,0,,,,,,,,,,,,,0,0,0,0,0,24,24,24,,,,,,,,,,,,,,,,,,,,,,,,,,,,,,,,,,,,,,,,,,,,,,,,,,,,,,,,,,,,,,,,,,,,,,,,,,,,,,,,,,,,,,,,,,,,,,,,,,,,,799.8215042680001,808.0314383799998,,,,,011721,0,1,1,3,0,1,2,0,10,2021_Jan_17_1447,listening_fmri,3.2.4,59.60555890261598,
3,parcelated_audio/33/33_26.ogg,,,,,,,,,0,0,0,0,0,3,3,3,0,0,0,0,,,,,,,,,,,,,0,0,0,0,0,25,25,25,,,,,,,,,,,,,,,,,,,,,,,,,,,,,,,,,,,,,,,,,,,,,,,,,,,,,,,,,,,,,,,,,,,,,,,,,,,,,,,,,,,,,,,,,,,,,,,,,,,,,808.0317931339998,815.198681786,,,,,011721,0,1,1,3,0,1,2,0,10,2021_Jan_17_1447,listening_fmri,3.2.4,59.60555890261598,
3,parcelated_audio/33/33_27.ogg,,,,,,,,,0,0,0,0,0,3,3,3,0,0,0,0,,,,,,,,,,,,,0,0,0,0,0,26,26,26,,,,,,,,,,,,,,,,,,,,,,,,,,,,,,,,,,,,,,,,,,,,,,,,,,,,,,,,,,,,,,,,,,,,,,,,,,,,,,,,,,,,,,,,,,,,,,,,,,,,,815.198969673,822.737633938,,,,,011721,0,1,1,3,0,1,2,0,10,2021_Jan_17_1447,listening_fmri,3.2.4,59.60555890261598,
3,parcelated_audio/33/33_28.ogg,,,,,,,,,0,0,0,0,0,3,3,3,0,0,0,0,,,,,,,,,,,,,0,0,0,0,0,27,27,27,,,,,,,,,,,,,,,,,,,,,,,,,,,,,,,,,,,,,,,,,,,,,,,,,,,,,,,,,,,,,,,,,,,,,,,,,,,,,,,,,,,,,,,,,,,,,,,,,,,,,822.7379050659999,828.4097936710002,,,,,011721,0,1,1,3,0,1,2,0,10,2021_Jan_17_1447,listening_fmri,3.2.4,59.60555890261598,
3,parcelated_audio/33/33_29.ogg,,,,,,,,,0,0,0,0,0,3,3,3,0,0,0,0,,,,,,,,,,,,,0,0,0,0,0,28,28,28,,,,,,,,,,,,,,,,,,,,,,,,,,,,,,,,,,,,,,,,,,,,,,,,,,,,,,,,,,,,,,,,,,,,,,,,,,,,,,,,,,,,,,,,,,,,,,,,,,,,,828.4100512940001,836.3268017910002,,,,,011721,0,1,1,3,0,1,2,0,10,2021_Jan_17_1447,listening_fmri,3.2.4,59.60555890261598,
3,parcelated_audio/33/33_30.ogg,,,,,,,,,0,0,0,0,0,3,3,3,0,0,0,0,,,,,,,,,,,,,0,0,0,0,0,29,29,29,,,,,,,,,,,,,,,,,,,,,,,,,,,,,,,,,,,,,,,,,,,,,,,,,,,,,,,,,,,,,,,,,,,,,,,,,,,,,,,,,,,,,,,,,,,,,,,,,,,,,836.3270884450001,851.2896622119999,,,,,011721,0,1,1,3,0,1,2,0,10,2021_Jan_17_1447,listening_fmri,3.2.4,59.60555890261598,
3,parcelated_audio/33/33_31.ogg,,,,,,,,,0,0,0,0,0,3,3,3,0,0,0,0,,,,,,,,,,,,,0,0,0,0,0,30,30,30,,,,,,,,,,,,,,,,,,,,,,,,,,,,,,,,,,,,,,,,,,,,,,,,,,,,,,,,,,,,,,,,,,,,,,,,,,,,,,,,,,,,,,,,,,,,,,,,,,,,,851.2899352319998,861.0348503900002,,,,,011721,0,1,1,3,0,1,2,0,10,2021_Jan_17_1447,listening_fmri,3.2.4,59.60555890261598,
3,parcelated_audio/33/33_32.ogg,,,,,,,,,0,0,0,0,0,3,3,3,0,0,0,0,,,,,,,,,,,,,0,0,0,0,0,31,31,31,,,,,,,,,,,,,,,,,,,,,,,,,,,,,,,,,,,,,,,,,,,,,,,,,,,,,,,,,,,,,,,,,,,,,,,,,,,,,,,,,,,,,,,,,,,,,,,,,,,,,861.0351210659999,866.66291561,,,,,011721,0,1,1,3,0,1,2,0,10,2021_Jan_17_1447,listening_fmri,3.2.4,59.60555890261598,
3,,,,,,,,,,0,0,0,0,0,3,3,3,0,0,0,0,,,,,,,,,,,,,0,0,0,0,,,,,,,,,,,,,,,,,,,,,,,,,,,,,,,,,,,,,,,,,,,,,,,,,,,,,,,,,,,,,,,,,,,,,,,,,,,,,,,,,,,,,,,,,,,,,,,,,,,,,,,,,,,,,,,011721,0,1,1,3,0,1,2,0,10,2021_Jan_17_1447,listening_fmri,3.2.4,59.60555890261598,
,,,,,,,,,,,,,,,,,,,,,,,,,,,,,,,,,,,,,,,,,,,,,,,,,,,,,,,,,,,866.663268133,872.6582675259999,917.3450906590001,None,,,,,,,,,,,,,,,,,,,,,,,,,,,,,,,,,,,,,,,,,,,,,,,,,,,,,,,,,,,,,,,,,,,,,,,,,,,,,,,,,,923.3368092119999,None,923.3368092119999,None,,,,,,,,,,,,,,,
﻿count,audio,trials_14.thisRepN,trials_14.thisTrialN,trials_14.thisN,trials_14.thisIndex,trials_3.thisRepN,trials_3.thisTrialN,trials_3.thisN,trials_3.thisIndex,trials_4.thisRepN,trials_4.thisTrialN,trials_4.thisN,trials_4.thisIndex,trials_6.thisRepN,trials_6.thisTrialN,trials_6.thisN,trials_6.thisIndex,trials_9.thisRepN,trials_9.thisTrialN,trials_9.thisN,trials_9.thisIndex,trials_10.thisRepN,trials_10.thisTrialN,trials_10.thisN,trials_10.thisIndex,trials_11.thisRepN,trials_11.thisTrialN,trials_11.thisN,trials_11.thisIndex,trials_12.thisRepN,trials_12.thisTrialN,trials_12.thisN,trials_12.thisIndex,trials_25.thisRepN,trials_25.thisTrialN,trials_25.thisN,trials_25.thisIndex,trials_15.thisRepN,trials_15.thisTrialN,trials_15.thisN,trials_15.thisIndex,trials_26.thisRepN,trials_26.thisTrialN,trials_26.thisN,trials_26.thisIndex,story_list_block2,action_list_block2,textTrigger.started,textTrigger.stopped,getTrigger.keys,getTrigger.rt,getTrigger.started,getTrigger.stopped,triggerTime,text_76.started,text_76.stopped,text_77.started,text_77.stopped,startWait,endWait,image_23.started,image_23.stopped,text_55.started,text_55.stopped,text_56.started,text_56.stopped,key_resp_2.keys,key_resp_2.rt,key_resp_2.started,key_resp_2.stopped,text_82.started,text_82.stopped,text_57.started,text_57.stopped,key_resp_17.keys,key_resp_17.rt,key_resp_17.started,key_resp_17.stopped,text_83.started,text_83.stopped,text_60.started,text_60.stopped,image_2.started,image_2.stopped,text_58.started,text_58.stopped,key_resp_23.keys,key_resp_23.rt,key_resp_23.started,key_resp_23.stopped,text_62.started,text_62.stopped,key_resp_18.keys,key_resp_18.rt,key_resp_18.started,key_resp_18.stopped,text_84.started,text_84.stopped,question1_2.started,question1_2.stopped,question2_2.started,question2_2.stopped,question3_2.started,question3_2.stopped,question4_2.started,question4_2.stopped,question5_2.started,question5_2.stopped,question6_2.started,question6_2.stopped,image_15.started,image_15.stopped,key_resp.keys,key_resp.started,key_resp.stopped,text_59.started,text_59.stopped,key_resp_19.keys,key_resp_19.rt,key_resp_19.started,key_resp_19.stopped,text_85.started,text_85.stopped,text_61.started,text_61.stopped,image_17.started,image_17.stopped,text_63.started,text_63.stopped,key_resp_24.keys,key_resp_24.rt,key_resp_24.started,key_resp_24.stopped,text_64.started,text_64.stopped,key_resp_20.keys,key_resp_20.rt,key_resp_20.started,key_resp_20.stopped,storyImage_StartTime,storyImage_EndTime,clip_StartTime,clip_EndTime,text_67.started,text_67.stopped,text_68.started,text_68.stopped,participant,sA,sB,lA,lB,block_struct,play_stories,block,behavioral,random_seed,date,expName,psychopyVersion,frameRate,
0,,,,,,,,,,0,0,0,0,0,0,0,0,,,,,,,,,,,,,,,,,,,,,,,,,,,,,[22 42 31 33 44 24 11 13],[3 2 4 4 2 3 1 1],22.10259188499981,None,equal,28.56285291999984,22.10259188499981,None,28.58206260299994,22.10259188499981,None,22.10259188499981,None,0.0003633660001014505,6.015336296999976,50.69161600999996,None,,,,,,,,,,,,,,,,,,,,,,,,,,,,,,,,,,,,,,,,,,,,,,,,,,,,,,,,,,,,,,,,,,,,,,,,,,,,,,,,,,,,,,011721,0,1,1,3,0,1,2,0,10,2021_Jan_17_1447,listening_fmri,3.2.4,59.60555890261598,
1,,,,,,,,,,0,0,0,0,0,1,1,1,0,0,0,0,0,0,0,0,0,0,0,0,,,,,,,,,,,,,,,,,,,,,,,,,,,,,,,,,,56.70242799999983,None,56.70242799999983,None,1,1.9228711380001187,56.70242799999983,None,56.70242799999983,None,58.65789816999995,None,1,1.5485020650000934,58.65789816999995,None,58.65789816999995,None,60.258069122999814,None,60.258069122999814,None,60.258069122999814,None,1,1.5683769249999386,60.258069122999814,None,61.852733084999954,None,1,1.9097333150000395,61.852733084999954,None,61.852733084999954,None,63.86936081999988,None,63.86936081999988,None,63.86936081999988,None,63.86936081999988,None,63.86936081999988,None,63.86936081999988,None,63.86936081999988,None,None,63.86936081999988,None,,,,,,,,,,,,,,,,,,,,,,,,,,,,,,,,,011721,0,1,1,3,0,1,2,0,10,2021_Jan_17_1447,listening_fmri,3.2.4,59.60555890261598,
1,,,,,,,,,,0,0,0,0,0,1,1,1,0,0,0,0,0,0,0,0,,,,,,,,,,,,,,,,,,,,,,,,,,,,,,,,,,,,,,,,,,,,,,,,,,,,,,,,,,,,,,,,,,,,,,,,,,,,,,,,,,,,,,,,,,,83.0527874559998,None,1,3.0345608390000507,83.0527874559998,None,83.0527874559998,None,86.13599551099992,None,86.13599551099992,None,86.13599551099992,None,1,1.8434428759999264,86.13599551099992,None,,,,,,,,,,,,,,,011721,0,1,1,3,0,1,2,0,10,2021_Jan_17_1447,listening_fmri,3.2.4,59.60555890261598,
1,parcelated_audio/42/42_1.ogg,,,,,,,,,0,0,0,0,0,1,1,1,0,0,0,0,,,,,,,,,,,,,0,0,0,0,0,0,0,0,,,,,,,,,,,,,,,,,,,,,,,,,,,,,,,,,,,,,,,,,,,,,,,,,,,,,,,,,,,,,,,,,,,,,,,,,,,,,,,,,,,,,,,,,,,,,88.00257954599988,None,1,1.8688510049998968,88.00257954599988,None,39.21732798700009,42.23148468399995,42.23651608900013,50.61893374700003,,,,,011721,0,1,1,3,0,1,2,0,10,2021_Jan_17_1447,listening_fmri,3.2.4,59.60555890261598,
1,parcelated_audio/42/42_2.ogg,,,,,,,,,0,0,0,0,0,1,1,1,0,0,0,0,,,,,,,,,,,,,0,0,0,0,0,1,1,1,,,,,,,,,,,,,,,,,,,,,,,,,,,,,,,,,,,,,,,,,,,,,,,,,,,,,,,,,,,,,,,,,,,,,,,,,,,,,,,,,,,,,,,,,,,,,,,,,,,,,50.61980831999995,63.354939275000106,,,,,011721,0,1,1,3,0,1,2,0,10,2021_Jan_17_1447,listening_fmri,3.2.4,59.60555890261598,
1,parcelated_audio/42/42_3.ogg,,,,,,,,,0,0,0,0,0,1,1,1,0,0,0,0,,,,,,,,,,,,,0,0,0,0,0,2,2,2,,,,,,,,,,,,,,,,,,,,,,,,,,,,,,,,,,,,,,,,,,,,,,,,,,,,,,,,,,,,,,,,,,,,,,,,,,,,,,,,,,,,,,,,,,,,,,,,,,,,,63.3552071040001,73.75272130200005,,,,,011721,0,1,1,3,0,1,2,0,10,2021_Jan_17_1447,listening_fmri,3.2.4,59.60555890261598,
1,parcelated_audio/42/42_4.ogg,,,,,,,,,0,0,0,0,0,1,1,1,0,0,0,0,,,,,,,,,,,,,0,0,0,0,0,3,3,3,,,,,,,,,,,,,,,,,,,,,,,,,,,,,,,,,,,,,,,,,,,,,,,,,,,,,,,,,,,,,,,,,,,,,,,,,,,,,,,,,,,,,,,,,,,,,,,,,,,,,73.7530054020001,87.44801592299996,,,,,011721,0,1,1,3,0,1,2,0,10,2021_Jan_17_1447,listening_fmri,3.2.4,59.60555890261598,
1,parcelated_audio/42/42_5.ogg,,,,,,,,,0,0,0,0,0,1,1,1,0,0,0,0,,,,,,,,,,,,,0,0,0,0,0,4,4,4,,,,,,,,,,,,,,,,,,,,,,,,,,,,,,,,,,,,,,,,,,,,,,,,,,,,,,,,,,,,,,,,,,,,,,,,,,,,,,,,,,,,,,,,,,,,,,,,,,,,,87.4483704700001,98.88845384399997,,,,,011721,0,1,1,3,0,1,2,0,10,2021_Jan_17_1447,listening_fmri,3.2.4,59.60555890261598,
1,parcelated_audio/42/42_6.ogg,,,,,,,,,0,0,0,0,0,1,1,1,0,0,0,0,,,,,,,,,,,,,0,0,0,0,0,5,5,5,,,,,,,,,,,,,,,,,,,,,,,,,,,,,,,,,,,,,,,,,,,,,,,,,,,,,,,,,,,,,,,,,,,,,,,,,,,,,,,,,,,,,,,,,,,,,,,,,,,,,98.88880343799997,105.37792471700004,,,,,011721,0,1,1,3,0,1,2,0,10,2021_Jan_17_1447,listening_fmri,3.2.4,59.60555890261598,
1,parcelated_audio/42/42_7.ogg,,,,,,,,,0,0,0,0,0,1,1,1,0,0,0,0,,,,,,,,,,,,,0,0,0,0,0,6,6,6,,,,,,,,,,,,,,,,,,,,,,,,,,,,,,,,,,,,,,,,,,,,,,,,,,,,,,,,,,,,,,,,,,,,,,,,,,,,,,,,,,,,,,,,,,,,,,,,,,,,,105.38095116099998,110.58720495000011,,,,,011721,0,1,1,3,0,1,2,0,10,2021_Jan_17_1447,listening_fmri,3.2.4,59.60555890261598,
1,parcelated_audio/42/42_8.ogg,,,,,,,,,0,0,0,0,0,1,1,1,0,0,0,0,,,,,,,,,,,,,0,0,0,0,0,7,7,7,,,,,,,,,,,,,,,,,,,,,,,,,,,,,,,,,,,,,,,,,,,,,,,,,,,,,,,,,,,,,,,,,,,,,,,,,,,,,,,,,,,,,,,,,,,,,,,,,,,,,110.58765455000002,113.75250037299998,,,,,011721,0,1,1,3,0,1,2,0,10,2021_Jan_17_1447,listening_fmri,3.2.4,59.60555890261598,
1,parcelated_audio/42/42_9.ogg,,,,,,,,,0,0,0,0,0,1,1,1,0,0,0,0,,,,,,,,,,,,,0,0,0,0,0,8,8,8,,,,,,,,,,,,,,,,,,,,,,,,,,,,,,,,,,,,,,,,,,,,,,,,,,,,,,,,,,,,,,,,,,,,,,,,,,,,,,,,,,,,,,,,,,,,,,,,,,,,,113.75290109800017,122.30369111699997,,,,,011721,0,1,1,3,0,1,2,0,10,2021_Jan_17_1447,listening_fmri,3.2.4,59.60555890261598,
1,parcelated_audio/42/42_10.ogg,,,,,,,,,0,0,0,0,0,1,1,1,0,0,0,0,,,,,,,,,,,,,0,0,0,0,0,9,9,9,,,,,,,,,,,,,,,,,,,,,,,,,,,,,,,,,,,,,,,,,,,,,,,,,,,,,,,,,,,,,,,,,,,,,,,,,,,,,,,,,,,,,,,,,,,,,,,,,,,,,122.30396946500014,126.62256729800015,,,,,011721,0,1,1,3,0,1,2,0,10,2021_Jan_17_1447,listening_fmri,3.2.4,59.60555890261598,
1,parcelated_audio/42/42_11.ogg,,,,,,,,,0,0,0,0,0,1,1,1,0,0,0,0,,,,,,,,,,,,,0,0,0,0,0,10,10,10,,,,,,,,,,,,,,,,,,,,,,,,,,,,,,,,,,,,,,,,,,,,,,,,,,,,,,,,,,,,,,,,,,,,,,,,,,,,,,,,,,,,,,,,,,,,,,,,,,,,,126.62283937100005,131.613714545,,,,,011721,0,1,1,3,0,1,2,0,10,2021_Jan_17_1447,listening_fmri,3.2.4,59.60555890261598,
1,parcelated_audio/42/42_12.ogg,,,,,,,,,0,0,0,0,0,1,1,1,0,0,0,0,,,,,,,,,,,,,0,0,0,0,0,11,11,11,,,,,,,,,,,,,,,,,,,,,,,,,,,,,,,,,,,,,,,,,,,,,,,,,,,,,,,,,,,,,,,,,,,,,,,,,,,,,,,,,,,,,,,,,,,,,,,,,,,,,131.61399826299998,137.580269349,,,,,011721,0,1,1,3,0,1,2,0,10,2021_Jan_17_1447,listening_fmri,3.2.4,59.60555890261598,
1,parcelated_audio/42/42_13.ogg,,,,,,,,,0,0,0,0,0,1,1,1,0,0,0,0,,,,,,,,,,,,,0,0,0,0,0,12,12,12,,,,,,,,,,,,,,,,,,,,,,,,,,,,,,,,,,,,,,,,,,,,,,,,,,,,,,,,,,,,,,,,,,,,,,,,,,,,,,,,,,,,,,,,,,,,,,,,,,,,,137.58077561599998,144.73627399500015,,,,,011721,0,1,1,3,0,1,2,0,10,2021_Jan_17_1447,listening_fmri,3.2.4,59.60555890261598,
1,parcelated_audio/42/42_14.ogg,,,,,,,,,0,0,0,0,0,1,1,1,0,0,0,0,,,,,,,,,,,,,0,0,0,0,0,13,13,13,,,,,,,,,,,,,,,,,,,,,,,,,,,,,,,,,,,,,,,,,,,,,,,,,,,,,,,,,,,,,,,,,,,,,,,,,,,,,,,,,,,,,,,,,,,,,,,,,,,,,144.7365478160002,149.4563522750002,,,,,011721,0,1,1,3,0,1,2,0,10,2021_Jan_17_1447,listening_fmri,3.2.4,59.60555890261598,
1,parcelated_audio/42/42_15.ogg,,,,,,,,,0,0,0,0,0,1,1,1,0,0,0,0,,,,,,,,,,,,,0,0,0,0,0,14,14,14,,,,,,,,,,,,,,,,,,,,,,,,,,,,,,,,,,,,,,,,,,,,,,,,,,,,,,,,,,,,,,,,,,,,,,,,,,,,,,,,,,,,,,,,,,,,,,,,,,,,,149.4566294980002,155.30156913899987,,,,,011721,0,1,1,3,0,1,2,0,10,2021_Jan_17_1447,listening_fmri,3.2.4,59.60555890261598,
1,parcelated_audio/42/42_16.ogg,,,,,,,,,0,0,0,0,0,1,1,1,0,0,0,0,,,,,,,,,,,,,0,0,0,0,0,15,15,15,,,,,,,,,,,,,,,,,,,,,,,,,,,,,,,,,,,,,,,,,,,,,,,,,,,,,,,,,,,,,,,,,,,,,,,,,,,,,,,,,,,,,,,,,,,,,,,,,,,,,155.30185155899994,160.89355289299988,,,,,011721,0,1,1,3,0,1,2,0,10,2021_Jan_17_1447,listening_fmri,3.2.4,59.60555890261598,
1,parcelated_audio/42/42_17.ogg,,,,,,,,,0,0,0,0,0,1,1,1,0,0,0,0,,,,,,,,,,,,,0,0,0,0,0,16,16,16,,,,,,,,,,,,,,,,,,,,,,,,,,,,,,,,,,,,,,,,,,,,,,,,,,,,,,,,,,,,,,,,,,,,,,,,,,,,,,,,,,,,,,,,,,,,,,,,,,,,,160.89384008599995,170.57064149400026,,,,,011721,0,1,1,3,0,1,2,0,10,2021_Jan_17_1447,listening_fmri,3.2.4,59.60555890261598,
1,parcelated_audio/42/42_18.ogg,,,,,,,,,0,0,0,0,0,1,1,1,0,0,0,0,,,,,,,,,,,,,0,0,0,0,0,17,17,17,,,,,,,,,,,,,,,,,,,,,,,,,,,,,,,,,,,,,,,,,,,,,,,,,,,,,,,,,,,,,,,,,,,,,,,,,,,,,,,,,,,,,,,,,,,,,,,,,,,,,170.57092876599995,176.00186106200022,,,,,011721,0,1,1,3,0,1,2,0,10,2021_Jan_17_1447,listening_fmri,3.2.4,59.60555890261598,
1,parcelated_audio/42/42_19.ogg,,,,,,,,,0,0,0,0,0,1,1,1,0,0,0,0,,,,,,,,,,,,,0,0,0,0,0,18,18,18,,,,,,,,,,,,,,,,,,,,,,,,,,,,,,,,,,,,,,,,,,,,,,,,,,,,,,,,,,,,,,,,,,,,,,,,,,,,,,,,,,,,,,,,,,,,,,,,,,,,,176.00213633099997,185.14245775799986,,,,,011721,0,1,1,3,0,1,2,0,10,2021_Jan_17_1447,listening_fmri,3.2.4,59.60555890261598,
1,parcelated_audio/42/42_20.ogg,,,,,,,,,0,0,0,0,0,1,1,1,0,0,0,0,,,,,,,,,,,,,0,0,0,0,0,19,19,19,,,,,,,,,,,,,,,,,,,,,,,,,,,,,,,,,,,,,,,,,,,,,,,,,,,,,,,,,,,,,,,,,,,,,,,,,,,,,,,,,,,,,,,,,,,,,,,,,,,,,185.1427486529999,189.80076504000021,,,,,011721,0,1,1,3,0,1,2,0,10,2021_Jan_17_1447,listening_fmri,3.2.4,59.60555890261598,
1,parcelated_audio/42/42_21.ogg,,,,,,,,,0,0,0,0,0,1,1,1,0,0,0,0,,,,,,,,,,,,,0,0,0,0,0,20,20,20,,,,,,,,,,,,,,,,,,,,,,,,,,,,,,,,,,,,,,,,,,,,,,,,,,,,,,,,,,,,,,,,,,,,,,,,,,,,,,,,,,,,,,,,,,,,,,,,,,,,,189.80136178099997,199.70431061700015,,,,,011721,0,1,1,3,0,1,2,0,10,2021_Jan_17_1447,listening_fmri,3.2.4,59.60555890261598,
1,parcelated_audio/42/42_22.ogg,,,,,,,,,0,0,0,0,0,1,1,1,0,0,0,0,,,,,,,,,,,,,0,0,0,0,0,21,21,21,,,,,,,,,,,,,,,,,,,,,,,,,,,,,,,,,,,,,,,,,,,,,,,,,,,,,,,,,,,,,,,,,,,,,,,,,,,,,,,,,,,,,,,,,,,,,,,,,,,,,199.70469909200006,204.46728543999984,,,,,011721,0,1,1,3,0,1,2,0,10,2021_Jan_17_1447,listening_fmri,3.2.4,59.60555890261598,
1,parcelated_audio/42/42_23.ogg,,,,,,,,,0,0,0,0,0,1,1,1,0,0,0,0,,,,,,,,,,,,,0,0,0,0,0,22,22,22,,,,,,,,,,,,,,,,,,,,,,,,,,,,,,,,,,,,,,,,,,,,,,,,,,,,,,,,,,,,,,,,,,,,,,,,,,,,,,,,,,,,,,,,,,,,,,,,,,,,,204.46763984099994,210.78186852900012,,,,,011721,0,1,1,3,0,1,2,0,10,2021_Jan_17_1447,listening_fmri,3.2.4,59.60555890261598,
1,parcelated_audio/42/42_24.ogg,,,,,,,,,0,0,0,0,0,1,1,1,0,0,0,0,,,,,,,,,,,,,0,0,0,0,0,23,23,23,,,,,,,,,,,,,,,,,,,,,,,,,,,,,,,,,,,,,,,,,,,,,,,,,,,,,,,,,,,,,,,,,,,,,,,,,,,,,,,,,,,,,,,,,,,,,,,,,,,,,210.78222683199988,219.23190442100008,,,,,011721,0,1,1,3,0,1,2,0,10,2021_Jan_17_1447,listening_fmri,3.2.4,59.60555890261598,
1,parcelated_audio/42/42_25.ogg,,,,,,,,,0,0,0,0,0,1,1,1,0,0,0,0,,,,,,,,,,,,,0,0,0,0,0,24,24,24,,,,,,,,,,,,,,,,,,,,,,,,,,,,,,,,,,,,,,,,,,,,,,,,,,,,,,,,,,,,,,,,,,,,,,,,,,,,,,,,,,,,,,,,,,,,,,,,,,,,,219.23237735199996,225.45493092699985,,,,,011721,0,1,1,3,0,1,2,0,10,2021_Jan_17_1447,listening_fmri,3.2.4,59.60555890261598,
1,parcelated_audio/42/42_26.ogg,,,,,,,,,0,0,0,0,0,1,1,1,0,0,0,0,,,,,,,,,,,,,0,0,0,0,0,25,25,25,,,,,,,,,,,,,,,,,,,,,,,,,,,,,,,,,,,,,,,,,,,,,,,,,,,,,,,,,,,,,,,,,,,,,,,,,,,,,,,,,,,,,,,,,,,,,,,,,,,,,225.45528216300022,231.3458665400001,,,,,011721,0,1,1,3,0,1,2,0,10,2021_Jan_17_1447,listening_fmri,3.2.4,59.60555890261598,
1,parcelated_audio/42/42_27.ogg,,,,,,,,,0,0,0,0,0,1,1,1,0,0,0,0,,,,,,,,,,,,,0,0,0,0,0,26,26,26,,,,,,,,,,,,,,,,,,,,,,,,,,,,,,,,,,,,,,,,,,,,,,,,,,,,,,,,,,,,,,,,,,,,,,,,,,,,,,,,,,,,,,,,,,,,,,,,,,,,,231.34651678100022,239.04393653400007,,,,,011721,0,1,1,3,0,1,2,0,10,2021_Jan_17_1447,listening_fmri,3.2.4,59.60555890261598,
1,parcelated_audio/42/42_28.ogg,,,,,,,,,0,0,0,0,0,1,1,1,0,0,0,0,,,,,,,,,,,,,0,0,0,0,0,27,27,27,,,,,,,,,,,,,,,,,,,,,,,,,,,,,,,,,,,,,,,,,,,,,,,,,,,,,,,,,,,,,,,,,,,,,,,,,,,,,,,,,,,,,,,,,,,,,,,,,,,,,239.04428938000024,244.71480838399998,,,,,011721,0,1,1,3,0,1,2,0,10,2021_Jan_17_1447,listening_fmri,3.2.4,59.60555890261598,
1,parcelated_audio/42/42_29.ogg,,,,,,,,,0,0,0,0,0,1,1,1,0,0,0,0,,,,,,,,,,,,,0,0,0,0,0,28,28,28,,,,,,,,,,,,,,,,,,,,,,,,,,,,,,,,,,,,,,,,,,,,,,,,,,,,,,,,,,,,,,,,,,,,,,,,,,,,,,,,,,,,,,,,,,,,,,,,,,,,,244.7151323710002,251.60730737100016,,,,,011721,0,1,1,3,0,1,2,0,10,2021_Jan_17_1447,listening_fmri,3.2.4,59.60555890261598,
1,parcelated_audio/42/42_30.ogg,,,,,,,,,0,0,0,0,0,1,1,1,0,0,0,0,,,,,,,,,,,,,0,0,0,0,0,29,29,29,,,,,,,,,,,,,,,,,,,,,,,,,,,,,,,,,,,,,,,,,,,,,,,,,,,,,,,,,,,,,,,,,,,,,,,,,,,,,,,,,,,,,,,,,,,,,,,,,,,,,251.6075822549999,262.49548984499984,,,,,011721,0,1,1,3,0,1,2,0,10,2021_Jan_17_1447,listening_fmri,3.2.4,59.60555890261598,
1,parcelated_audio/42/42_31.ogg,,,,,,,,,0,0,0,0,0,1,1,1,0,0,0,0,,,,,,,,,,,,,0,0,0,0,0,30,30,30,,,,,,,,,,,,,,,,,,,,,,,,,,,,,,,,,,,,,,,,,,,,,,,,,,,,,,,,,,,,,,,,,,,,,,,,,,,,,,,,,,,,,,,,,,,,,,,,,,,,,262.49576705899995,268.68032989300013,,,,,011721,0,1,1,3,0,1,2,0,10,2021_Jan_17_1447,listening_fmri,3.2.4,59.60555890261598,
1,parcelated_audio/42/42_32.ogg,,,,,,,,,0,0,0,0,0,1,1,1,0,0,0,0,,,,,,,,,,,,,0,0,0,0,0,31,31,31,,,,,,,,,,,,,,,,,,,,,,,,,,,,,,,,,,,,,,,,,,,,,,,,,,,,,,,,,,,,,,,,,,,,,,,,,,,,,,,,,,,,,,,,,,,,,,,,,,,,,268.6807070309999,276.8347781939999,,,,,011721,0,1,1,3,0,1,2,0,10,2021_Jan_17_1447,listening_fmri,3.2.4,59.60555890261598,
1,parcelated_audio/42/42_33.ogg,,,,,,,,,0,0,0,0,0,1,1,1,0,0,0,0,,,,,,,,,,,,,0,0,0,0,0,32,32,32,,,,,,,,,,,,,,,,,,,,,,,,,,,,,,,,,,,,,,,,,,,,,,,,,,,,,,,,,,,,,,,,,,,,,,,,,,,,,,,,,,,,,,,,,,,,,,,,,,,,,276.83507610899983,283.88553666099983,,,,,011721,0,1,1,3,0,1,2,0,10,2021_Jan_17_1447,listening_fmri,3.2.4,59.60555890261598,
1,parcelated_audio/42/42_34.ogg,,,,,,,,,0,0,0,0,0,1,1,1,0,0,0,0,,,,,,,,,,,,,0,0,0,0,0,33,33,33,,,,,,,,,,,,,,,,,,,,,,,,,,,,,,,,,,,,,,,,,,,,,,,,,,,,,,,,,,,,,,,,,,,,,,,,,,,,,,,,,,,,,,,,,,,,,,,,,,,,,283.8858124290002,294.5922341420003,,,,,011721,0,1,1,3,0,1,2,0,10,2021_Jan_17_1447,listening_fmri,3.2.4,59.60555890261598,
1,parcelated_audio/42/42_35.ogg,,,,,,,,,0,0,0,0,0,1,1,1,0,0,0,0,,,,,,,,,,,,,0,0,0,0,0,34,34,34,,,,,,,,,,,,,,,,,,,,,,,,,,,,,,,,,,,,,,,,,,,,,,,,,,,,,,,,,,,,,,,,,,,,,,,,,,,,,,,,,,,,,,,,,,,,,,,,,,,,,294.59250457300027,304.3416808600002,,,,,011721,0,1,1,3,0,1,2,0,10,2021_Jan_17_1447,listening_fmri,3.2.4,59.60555890261598,
