count,behav_recall_instructions.thisRepN,behav_recall_instructions.thisTrialN,behav_recall_instructions.thisN,behav_recall_instructions.thisIndex,trials.thisRepN,trials.thisTrialN,trials.thisN,trials.thisIndex,trials_2.thisRepN,trials_2.thisTrialN,trials_2.thisN,trials_2.thisIndex,trials_20.thisRepN,trials_20.thisTrialN,trials_20.thisN,trials_20.thisIndex,trials_18.thisRepN,trials_18.thisTrialN,trials_18.thisN,trials_18.thisIndex,trials_19.thisRepN,trials_19.thisTrialN,trials_19.thisN,trials_19.thisIndex,story_list_block2,action_list_block2,text_76.started,text_76.stopped,key_resp_30.keys,key_resp_30.rt,key_resp_30.started,key_resp_30.stopped,textTrigger.started,textTrigger.stopped,getTrigger.keys,getTrigger.rt,getTrigger.started,getTrigger.stopped,triggerTime,text_77.started,text_77.stopped,text_78.started,text_78.stopped,waitStart,image_23.started,image_23.stopped,waitEnd,text_41.started,text_41.stopped,key_resp_26.keys,key_resp_26.rt,key_resp_26.started,key_resp_26.stopped,text_42.started,text_42.stopped,text_51.started,text_51.stopped,recall_StartTime,recall_EndTime,image_20.started,image_20.stopped,text_75.started,text_75.stopped,recall_audio_2.filename,recall_audio_2.started,recall_audio_2.stopped,key_resp_27.keys,key_resp_27.rt,key_resp_27.started,key_resp_27.stopped,text_79.started,text_79.stopped,participant,sA,sB,lA,lB,block_struct,block,behavioral,random_seed,date,expName,psychopyVersion,frameRate,
,,,,,,,,,,,,,,,,,,,,,,,,,[14 32 34 43 12 41 21 23],[2 4 2 3 4 1 1 3],12.745149409000078,None,space,0.891812229999914,12.745149409000078,None,,,,,,,,,,,,,,,,,,,,,,,,,,,,,,,,,,,,,,,,,100721,1,3,2,3,1,2,0,60,2021_Oct_07_1225,recall_fmri,3.2.4,60.201084626069836,
0,,,,,,,,,0,0,0,0,0,0,0,0,,,,,0,0,0,0,,,,,,,,,13.66144330200018,None,equal,41.93499056399992,13.66144330200018,None,42.88629127299987,13.66144330200018,None,13.66144330200018,None,0.0004167669999333157,55.62766552400012,None,5.999759126000072,61.645512557000075,None,2,2.2409461019999526,61.645512557000075,None,61.645512557000075,None,61.645512557000075,None,8.283335727000122,158.38302172700014,64.012070472,None,64.012070472,None,/Users/columbiadpml/Documents/GitHub/ebs/fMRI experiment/psychopy code/data/100721_bk2_recall_fmri_wav/recall_audio_2-1633623982.986.wav,0.008901522199948886,None,2,149.97651718499992,64.012070472,None,64.012070472,None,100721,1,3,2,3,1,2,0,60,2021_Oct_07_1225,recall_fmri,3.2.4,60.201084626069836,
﻿count,behav_recall_instructions.thisRepN,behav_recall_instructions.thisTrialN,behav_recall_instructions.thisN,behav_recall_instructions.thisIndex,trials.thisRepN,trials.thisTrialN,trials.thisN,trials.thisIndex,trials_2.thisRepN,trials_2.thisTrialN,trials_2.thisN,trials_2.thisIndex,trials_20.thisRepN,trials_20.thisTrialN,trials_20.thisN,trials_20.thisIndex,trials_18.thisRepN,trials_18.thisTrialN,trials_18.thisN,trials_18.thisIndex,trials_19.thisRepN,trials_19.thisTrialN,trials_19.thisN,trials_19.thisIndex,story_list_block2,action_list_block2,text_76.started,text_76.stopped,key_resp_30.keys,key_resp_30.rt,key_resp_30.started,key_resp_30.stopped,textTrigger.started,textTrigger.stopped,getTrigger.keys,getTrigger.rt,getTrigger.started,getTrigger.stopped,triggerTime,text_77.started,text_77.stopped,text_78.started,text_78.stopped,waitStart,image_23.started,image_23.stopped,waitEnd,text_41.started,text_41.stopped,key_resp_26.keys,key_resp_26.rt,key_resp_26.started,key_resp_26.stopped,text_42.started,text_42.stopped,text_51.started,text_51.stopped,recall_StartTime,recall_EndTime,image_20.started,image_20.stopped,text_75.started,text_75.stopped,recall_audio_2.filename,recall_audio_2.started,recall_audio_2.stopped,key_resp_27.keys,key_resp_27.rt,key_resp_27.started,key_resp_27.stopped,text_79.started,text_79.stopped,participant,sA,sB,lA,lB,block_struct,block,behavioral,random_seed,date,expName,psychopyVersion,frameRate,
,,,,,,,,,,,,,,,,,,,,,,,,,[14 32 34 43 12 41 21 23],[2 4 2 3 4 1 1 3],12.745149409000078,None,space,0.891812229999914,12.745149409000078,None,,,,,,,,,,,,,,,,,,,,,,,,,,,,,,,,,,,,,,,,,100721,1,3,2,3,1,2,0,60,2021_Oct_07_1225,recall_fmri,3.2.4,60.201084626069836,
0,,,,,,,,,0,0,0,0,0,0,0,0,,,,,0,0,0,0,,,,,,,,,13.66144330200018,None,equal,41.93499056399992,13.66144330200018,None,42.88629127299987,13.66144330200018,None,13.66144330200018,None,0.0004167669999333157,55.62766552400012,None,5.999759126000072,61.645512557000075,None,2,2.2409461019999526,61.645512557000075,None,61.645512557000075,None,61.645512557000075,None,8.283335727000122,158.38302172700014,64.012070472,None,64.012070472,None,/Users/columbiadpml/Documents/GitHub/ebs/fMRI experiment/psychopy code/data/100721_bk2_recall_fmri_wav/recall_audio_2-1633623982.986.wav,0.008901522199948886,None,2,149.97651718499992,64.012070472,None,64.012070472,None,100721,1,3,2,3,1,2,0,60,2021_Oct_07_1225,recall_fmri,3.2.4,60.201084626069836,
0,,,,,,,,,0,0,0,0,0,0,0,0,,,,,,,,,,,,,,,,,,,,,,,,,,,,158.38643220300014,214.0114306070002,None,164.38348590100009,,,,,,,,,,,,,,,,,,,,,,,,,,100721,1,3,2,3,1,2,0,60,2021_Oct_07_1225,recall_fmri,3.2.4,60.201084626069836,
1,,,,,,,,,0,0,0,0,0,1,1,1,,,,,0,0,0,0,,,,,,,,,,,,,,,,,,,,,,,,220.01151765100008,None,2,2.198946380999814,220.01151765100008,None,220.01151765100008,None,220.01151765100008,None,166.60039733400004,324.17858260799994,222.24325097200017,None,222.24325097200017,None,/Users/columbiadpml/Documents/GitHub/ebs/fMRI experiment/psychopy code/data/100721_bk2_recall_fmri_wav/recall_audio_2-1633624140.234.wav,0.011450393400082248,None,2,157.53637486699995,222.24325097200017,None,222.24325097200017,None,100721,1,3,2,3,1,2,0,60,2021_Oct_07_1225,recall_fmri,3.2.4,60.201084626069836,
﻿count,behav_recall_instructions.thisRepN,behav_recall_instructions.thisTrialN,behav_recall_instructions.thisN,behav_recall_instructions.thisIndex,trials.thisRepN,trials.thisTrialN,trials.thisN,trials.thisIndex,trials_2.thisRepN,trials_2.thisTrialN,trials_2.thisN,trials_2.thisIndex,trials_20.thisRepN,trials_20.thisTrialN,trials_20.thisN,trials_20.thisIndex,trials_18.thisRepN,trials_18.thisTrialN,trials_18.thisN,trials_18.thisIndex,trials_19.thisRepN,trials_19.thisTrialN,trials_19.thisN,trials_19.thisIndex,story_list_block2,action_list_block2,text_76.started,text_76.stopped,key_resp_30.keys,key_resp_30.rt,key_resp_30.started,key_resp_30.stopped,textTrigger.started,textTrigger.stopped,getTrigger.keys,getTrigger.rt,getTrigger.started,getTrigger.stopped,triggerTime,text_77.started,text_77.stopped,text_78.started,text_78.stopped,waitStart,image_23.started,image_23.stopped,waitEnd,text_41.started,text_41.stopped,key_resp_26.keys,key_resp_26.rt,key_resp_26.started,key_resp_26.stopped,text_42.started,text_42.stopped,text_51.started,text_51.stopped,recall_StartTime,recall_EndTime,image_20.started,image_20.stopped,text_75.started,text_75.stopped,recall_audio_2.filename,recall_audio_2.started,recall_audio_2.stopped,key_resp_27.keys,key_resp_27.rt,key_resp_27.started,key_resp_27.stopped,text_79.started,text_79.stopped,participant,sA,sB,lA,lB,block_struct,block,behavioral,random_seed,date,expName,psychopyVersion,frameRate,
,,,,,,,,,,,,,,,,,,,,,,,,,[14 32 34 43 12 41 21 23],[2 4 2 3 4 1 1 3],12.745149409000078,None,space,0.891812229999914,12.745149409000078,None,,,,,,,,,,,,,,,,,,,,,,,,,,,,,,,,,,,,,,,,,100721,1,3,2,3,1,2,0,60,2021_Oct_07_1225,recall_fmri,3.2.4,60.201084626069836,
0,,,,,,,,,0,0,0,0,0,0,0,0,,,,,0,0,0,0,,,,,,,,,13.66144330200018,None,equal,41.93499056399992,13.66144330200018,None,42.88629127299987,13.66144330200018,None,13.66144330200018,None,0.0004167669999333157,55.62766552400012,None,5.999759126000072,61.645512557000075,None,2,2.2409461019999526,61.645512557000075,None,61.645512557000075,None,61.645512557000075,None,8.283335727000122,158.38302172700014,64.012070472,None,64.012070472,None,/Users/columbiadpml/Documents/GitHub/ebs/fMRI experiment/psychopy code/data/100721_bk2_recall_fmri_wav/recall_audio_2-1633623982.986.wav,0.008901522199948886,None,2,149.97651718499992,64.012070472,None,64.012070472,None,100721,1,3,2,3,1,2,0,60,2021_Oct_07_1225,recall_fmri,3.2.4,60.201084626069836,
0,,,,,,,,,0,0,0,0,0,0,0,0,,,,,,,,,,,,,,,,,,,,,,,,,,,,158.38643220300014,214.0114306070002,None,164.38348590100009,,,,,,,,,,,,,,,,,,,,,,,,,,100721,1,3,2,3,1,2,0,60,2021_Oct_07_1225,recall_fmri,3.2.4,60.201084626069836,
1,,,,,,,,,0,0,0,0,0,1,1,1,,,,,0,0,0,0,,,,,,,,,,,,,,,,,,,,,,,,220.01151765100008,None,2,2.198946380999814,220.01151765100008,None,220.01151765100008,None,220.01151765100008,None,166.60039733400004,324.17858260799994,222.24325097200017,None,222.24325097200017,None,/Users/columbiadpml/Documents/GitHub/ebs/fMRI experiment/psychopy code/data/100721_bk2_recall_fmri_wav/recall_audio_2-1633624140.234.wav,0.011450393400082248,None,2,157.53637486699995,222.24325097200017,None,222.24325097200017,None,100721,1,3,2,3,1,2,0,60,2021_Oct_07_1225,recall_fmri,3.2.4,60.201084626069836,
1,,,,,,,,,0,0,0,0,0,1,1,1,,,,,,,,,,,,,,,,,,,,,,,,,,,,324.1823799860001,379.80821427700016,None,330.18311322399995,,,,,,,,,,,,,,,,,,,,,,,,,,100721,1,3,2,3,1,2,0,60,2021_Oct_07_1225,recall_fmri,3.2.4,60.201084626069836,
2,,,,,,,,,0,0,0,0,0,2,2,2,,,,,0,0,0,0,,,,,,,,,,,,,,,,,,,,,,,,385.81256130500014,None,2,1.5290598450001198,385.81256130500014,None,385.81256130500014,None,385.81256130500014,None,331.73448535500006,471.493502926,387.3791236860002,None,387.3791236860002,None,/Users/columbiadpml/Documents/GitHub/ebs/fMRI experiment/psychopy code/data/100721_bk2_recall_fmri_wav/recall_audio_2-1633624305.369.wav,0.010620935400083908,None,2,139.7223981059999,387.3791236860002,None,387.3791236860002,None,100721,1,3,2,3,1,2,0,60,2021_Oct_07_1225,recall_fmri,3.2.4,60.201084626069836,
﻿count,behav_recall_instructions.thisRepN,behav_recall_instructions.thisTrialN,behav_recall_instructions.thisN,behav_recall_instructions.thisIndex,trials.thisRepN,trials.thisTrialN,trials.thisN,trials.thisIndex,trials_2.thisRepN,trials_2.thisTrialN,trials_2.thisN,trials_2.thisIndex,trials_20.thisRepN,trials_20.thisTrialN,trials_20.thisN,trials_20.thisIndex,trials_18.thisRepN,trials_18.thisTrialN,trials_18.thisN,trials_18.thisIndex,trials_19.thisRepN,trials_19.thisTrialN,trials_19.thisN,trials_19.thisIndex,story_list_block2,action_list_block2,text_76.started,text_76.stopped,key_resp_30.keys,key_resp_30.rt,key_resp_30.started,key_resp_30.stopped,textTrigger.started,textTrigger.stopped,getTrigger.keys,getTrigger.rt,getTrigger.started,getTrigger.stopped,triggerTime,text_77.started,text_77.stopped,text_78.started,text_78.stopped,waitStart,image_23.started,image_23.stopped,waitEnd,text_41.started,text_41.stopped,key_resp_26.keys,key_resp_26.rt,key_resp_26.started,key_resp_26.stopped,text_42.started,text_42.stopped,text_51.started,text_51.stopped,recall_StartTime,recall_EndTime,image_20.started,image_20.stopped,text_75.started,text_75.stopped,recall_audio_2.filename,recall_audio_2.started,recall_audio_2.stopped,key_resp_27.keys,key_resp_27.rt,key_resp_27.started,key_resp_27.stopped,text_79.started,text_79.stopped,participant,sA,sB,lA,lB,block_struct,block,behavioral,random_seed,date,expName,psychopyVersion,frameRate,
,,,,,,,,,,,,,,,,,,,,,,,,,[14 32 34 43 12 41 21 23],[2 4 2 3 4 1 1 3],12.745149409000078,None,space,0.891812229999914,12.745149409000078,None,,,,,,,,,,,,,,,,,,,,,,,,,,,,,,,,,,,,,,,,,100721,1,3,2,3,1,2,0,60,2021_Oct_07_1225,recall_fmri,3.2.4,60.201084626069836,
0,,,,,,,,,0,0,0,0,0,0,0,0,,,,,0,0,0,0,,,,,,,,,13.66144330200018,None,equal,41.93499056399992,13.66144330200018,None,42.88629127299987,13.66144330200018,None,13.66144330200018,None,0.0004167669999333157,55.62766552400012,None,5.999759126000072,61.645512557000075,None,2,2.2409461019999526,61.645512557000075,None,61.645512557000075,None,61.645512557000075,None,8.283335727000122,158.38302172700014,64.012070472,None,64.012070472,None,/Users/columbiadpml/Documents/GitHub/ebs/fMRI experiment/psychopy code/data/100721_bk2_recall_fmri_wav/recall_audio_2-1633623982.986.wav,0.008901522199948886,None,2,149.97651718499992,64.012070472,None,64.012070472,None,100721,1,3,2,3,1,2,0,60,2021_Oct_07_1225,recall_fmri,3.2.4,60.201084626069836,
0,,,,,,,,,0,0,0,0,0,0,0,0,,,,,,,,,,,,,,,,,,,,,,,,,,,,158.38643220300014,214.0114306070002,None,164.38348590100009,,,,,,,,,,,,,,,,,,,,,,,,,,100721,1,3,2,3,1,2,0,60,2021_Oct_07_1225,recall_fmri,3.2.4,60.201084626069836,
1,,,,,,,,,0,0,0,0,0,1,1,1,,,,,0,0,0,0,,,,,,,,,,,,,,,,,,,,,,,,220.01151765100008,None,2,2.198946380999814,220.01151765100008,None,220.01151765100008,None,220.01151765100008,None,166.60039733400004,324.17858260799994,222.24325097200017,None,222.24325097200017,None,/Users/columbiadpml/Documents/GitHub/ebs/fMRI experiment/psychopy code/data/100721_bk2_recall_fmri_wav/recall_audio_2-1633624140.234.wav,0.011450393400082248,None,2,157.53637486699995,222.24325097200017,None,222.24325097200017,None,100721,1,3,2,3,1,2,0,60,2021_Oct_07_1225,recall_fmri,3.2.4,60.201084626069836,
1,,,,,,,,,0,0,0,0,0,1,1,1,,,,,,,,,,,,,,,,,,,,,,,,,,,,324.1823799860001,379.80821427700016,None,330.18311322399995,,,,,,,,,,,,,,,,,,,,,,,,,,100721,1,3,2,3,1,2,0,60,2021_Oct_07_1225,recall_fmri,3.2.4,60.201084626069836,
2,,,,,,,,,0,0,0,0,0,2,2,2,,,,,0,0,0,0,,,,,,,,,,,,,,,,,,,,,,,,385.81256130500014,None,2,1.5290598450001198,385.81256130500014,None,385.81256130500014,None,385.81256130500014,None,331.73448535500006,471.493502926,387.3791236860002,None,387.3791236860002,None,/Users/columbiadpml/Documents/GitHub/ebs/fMRI experiment/psychopy code/data/100721_bk2_recall_fmri_wav/recall_audio_2-1633624305.369.wav,0.010620935400083908,None,2,139.7223981059999,387.3791236860002,None,387.3791236860002,None,100721,1,3,2,3,1,2,0,60,2021_Oct_07_1225,recall_fmri,3.2.4,60.201084626069836,
2,,,,,,,,,0,0,0,0,0,2,2,2,,,,,,,,,,,,,,,,,,,,,,,,,,,,471.49724683399995,527.1224603190001,None,477.509974264,,,,,,,,,,,,,,,,,,,,,,,,,,100721,1,3,2,3,1,2,0,60,2021_Oct_07_1225,recall_fmri,3.2.4,60.201084626069836,
﻿count,behav_recall_instructions.thisRepN,behav_recall_instructions.thisTrialN,behav_recall_instructions.thisN,behav_recall_instructions.thisIndex,trials.thisRepN,trials.thisTrialN,trials.thisN,trials.thisIndex,trials_2.thisRepN,trials_2.thisTrialN,trials_2.thisN,trials_2.thisIndex,trials_20.thisRepN,trials_20.thisTrialN,trials_20.thisN,trials_20.thisIndex,trials_18.thisRepN,trials_18.thisTrialN,trials_18.thisN,trials_18.thisIndex,trials_19.thisRepN,trials_19.thisTrialN,trials_19.thisN,trials_19.thisIndex,story_list_block2,action_list_block2,text_76.started,text_76.stopped,key_resp_30.keys,key_resp_30.rt,key_resp_30.started,key_resp_30.stopped,textTrigger.started,textTrigger.stopped,getTrigger.keys,getTrigger.rt,getTrigger.started,getTrigger.stopped,triggerTime,text_77.started,text_77.stopped,text_78.started,text_78.stopped,waitStart,image_23.started,image_23.stopped,waitEnd,text_41.started,text_41.stopped,key_resp_26.keys,key_resp_26.rt,key_resp_26.started,key_resp_26.stopped,text_42.started,text_42.stopped,text_51.started,text_51.stopped,recall_StartTime,recall_EndTime,image_20.started,image_20.stopped,text_75.started,text_75.stopped,recall_audio_2.filename,recall_audio_2.started,recall_audio_2.stopped,key_resp_27.keys,key_resp_27.rt,key_resp_27.started,key_resp_27.stopped,text_79.started,text_79.stopped,participant,sA,sB,lA,lB,block_struct,block,behavioral,random_seed,date,expName,psychopyVersion,frameRate,
,,,,,,,,,,,,,,,,,,,,,,,,,[14 32 34 43 12 41 21 23],[2 4 2 3 4 1 1 3],12.745149409000078,None,space,0.891812229999914,12.745149409000078,None,,,,,,,,,,,,,,,,,,,,,,,,,,,,,,,,,,,,,,,,,100721,1,3,2,3,1,2,0,60,2021_Oct_07_1225,recall_fmri,3.2.4,60.201084626069836,
0,,,,,,,,,0,0,0,0,0,0,0,0,,,,,0,0,0,0,,,,,,,,,13.66144330200018,None,equal,41.93499056399992,13.66144330200018,None,42.88629127299987,13.66144330200018,None,13.66144330200018,None,0.0004167669999333157,55.62766552400012,None,5.999759126000072,61.645512557000075,None,2,2.2409461019999526,61.645512557000075,None,61.645512557000075,None,61.645512557000075,None,8.283335727000122,158.38302172700014,64.012070472,None,64.012070472,None,/Users/columbiadpml/Documents/GitHub/ebs/fMRI experiment/psychopy code/data/100721_bk2_recall_fmri_wav/recall_audio_2-1633623982.986.wav,0.008901522199948886,None,2,149.97651718499992,64.012070472,None,64.012070472,None,100721,1,3,2,3,1,2,0,60,2021_Oct_07_1225,recall_fmri,3.2.4,60.201084626069836,
0,,,,,,,,,0,0,0,0,0,0,0,0,,,,,,,,,,,,,,,,,,,,,,,,,,,,158.38643220300014,214.0114306070002,None,164.38348590100009,,,,,,,,,,,,,,,,,,,,,,,,,,100721,1,3,2,3,1,2,0,60,2021_Oct_07_1225,recall_fmri,3.2.4,60.201084626069836,
1,,,,,,,,,0,0,0,0,0,1,1,1,,,,,0,0,0,0,,,,,,,,,,,,,,,,,,,,,,,,220.01151765100008,None,2,2.198946380999814,220.01151765100008,None,220.01151765100008,None,220.01151765100008,None,166.60039733400004,324.17858260799994,222.24325097200017,None,222.24325097200017,None,/Users/columbiadpml/Documents/GitHub/ebs/fMRI experiment/psychopy code/data/100721_bk2_recall_fmri_wav/recall_audio_2-1633624140.234.wav,0.011450393400082248,None,2,157.53637486699995,222.24325097200017,None,222.24325097200017,None,100721,1,3,2,3,1,2,0,60,2021_Oct_07_1225,recall_fmri,3.2.4,60.201084626069836,
1,,,,,,,,,0,0,0,0,0,1,1,1,,,,,,,,,,,,,,,,,,,,,,,,,,,,324.1823799860001,379.80821427700016,None,330.18311322399995,,,,,,,,,,,,,,,,,,,,,,,,,,100721,1,3,2,3,1,2,0,60,2021_Oct_07_1225,recall_fmri,3.2.4,60.201084626069836,
2,,,,,,,,,0,0,0,0,0,2,2,2,,,,,0,0,0,0,,,,,,,,,,,,,,,,,,,,,,,,385.81256130500014,None,2,1.5290598450001198,385.81256130500014,None,385.81256130500014,None,385.81256130500014,None,331.73448535500006,471.493502926,387.3791236860002,None,387.3791236860002,None,/Users/columbiadpml/Documents/GitHub/ebs/fMRI experiment/psychopy code/data/100721_bk2_recall_fmri_wav/recall_audio_2-1633624305.369.wav,0.010620935400083908,None,2,139.7223981059999,387.3791236860002,None,387.3791236860002,None,100721,1,3,2,3,1,2,0,60,2021_Oct_07_1225,recall_fmri,3.2.4,60.201084626069836,
2,,,,,,,,,0,0,0,0,0,2,2,2,,,,,,,,,,,,,,,,,,,,,,,,,,,,471.49724683399995,527.1224603190001,None,477.509974264,,,,,,,,,,,,,,,,,,,,,,,,,,100721,1,3,2,3,1,2,0,60,2021_Oct_07_1225,recall_fmri,3.2.4,60.201084626069836,
3,,,,,,,,,0,0,0,0,0,3,3,3,,,,,,,,,,,,,,,,,,,,,,,,,,,,477.5130278450001,533.1390577980001,None,483.51654130400016,,,,,,,,,,,,,,,,,,,,,,,,,,100721,1,3,2,3,1,2,0,60,2021_Oct_07_1225,recall_fmri,3.2.4,60.201084626069836,
4,,,,,,,,,0,0,0,0,0,4,4,4,,,,,0,0,0,0,,,,,,,,,,,,,,,,,,,,,,,,539.1462554670002,None,2,1.4403553399999964,539.1462554670002,None,539.1462554670002,None,539.1462554670002,None,484.98449295399996,576.925733365,540.6286073470001,None,540.6286073470001,None,/Users/columbiadpml/Documents/GitHub/ebs/fMRI experiment/psychopy code/data/100721_bk2_recall_fmri_wav/recall_audio_2-1633624458.621.wav,0.008381025400012732,None,2,91.89997745100004,540.6286073470001,None,540.6286073470001,None,100721,1,3,2,3,1,2,0,60,2021_Oct_07_1225,recall_fmri,3.2.4,60.201084626069836,
﻿count,behav_recall_instructions.thisRepN,behav_recall_instructions.thisTrialN,behav_recall_instructions.thisN,behav_recall_instructions.thisIndex,trials.thisRepN,trials.thisTrialN,trials.thisN,trials.thisIndex,trials_2.thisRepN,trials_2.thisTrialN,trials_2.thisN,trials_2.thisIndex,trials_20.thisRepN,trials_20.thisTrialN,trials_20.thisN,trials_20.thisIndex,trials_18.thisRepN,trials_18.thisTrialN,trials_18.thisN,trials_18.thisIndex,trials_19.thisRepN,trials_19.thisTrialN,trials_19.thisN,trials_19.thisIndex,story_list_block2,action_list_block2,text_76.started,text_76.stopped,key_resp_30.keys,key_resp_30.rt,key_resp_30.started,key_resp_30.stopped,textTrigger.started,textTrigger.stopped,getTrigger.keys,getTrigger.rt,getTrigger.started,getTrigger.stopped,triggerTime,text_77.started,text_77.stopped,text_78.started,text_78.stopped,waitStart,image_23.started,image_23.stopped,waitEnd,text_41.started,text_41.stopped,key_resp_26.keys,key_resp_26.rt,key_resp_26.started,key_resp_26.stopped,text_42.started,text_42.stopped,text_51.started,text_51.stopped,recall_StartTime,recall_EndTime,image_20.started,image_20.stopped,text_75.started,text_75.stopped,recall_audio_2.filename,recall_audio_2.started,recall_audio_2.stopped,key_resp_27.keys,key_resp_27.rt,key_resp_27.started,key_resp_27.stopped,text_79.started,text_79.stopped,participant,sA,sB,lA,lB,block_struct,block,behavioral,random_seed,date,expName,psychopyVersion,frameRate,
,,,,,,,,,,,,,,,,,,,,,,,,,[14 32 34 43 12 41 21 23],[2 4 2 3 4 1 1 3],12.745149409000078,None,space,0.891812229999914,12.745149409000078,None,,,,,,,,,,,,,,,,,,,,,,,,,,,,,,,,,,,,,,,,,100721,1,3,2,3,1,2,0,60,2021_Oct_07_1225,recall_fmri,3.2.4,60.201084626069836,
0,,,,,,,,,0,0,0,0,0,0,0,0,,,,,0,0,0,0,,,,,,,,,13.66144330200018,None,equal,41.93499056399992,13.66144330200018,None,42.88629127299987,13.66144330200018,None,13.66144330200018,None,0.0004167669999333157,55.62766552400012,None,5.999759126000072,61.645512557000075,None,2,2.2409461019999526,61.645512557000075,None,61.645512557000075,None,61.645512557000075,None,8.283335727000122,158.38302172700014,64.012070472,None,64.012070472,None,/Users/columbiadpml/Documents/GitHub/ebs/fMRI experiment/psychopy code/data/100721_bk2_recall_fmri_wav/recall_audio_2-1633623982.986.wav,0.008901522199948886,None,2,149.97651718499992,64.012070472,None,64.012070472,None,100721,1,3,2,3,1,2,0,60,2021_Oct_07_1225,recall_fmri,3.2.4,60.201084626069836,
0,,,,,,,,,0,0,0,0,0,0,0,0,,,,,,,,,,,,,,,,,,,,,,,,,,,,158.38643220300014,214.0114306070002,None,164.38348590100009,,,,,,,,,,,,,,,,,,,,,,,,,,100721,1,3,2,3,1,2,0,60,2021_Oct_07_1225,recall_fmri,3.2.4,60.201084626069836,
1,,,,,,,,,0,0,0,0,0,1,1,1,,,,,0,0,0,0,,,,,,,,,,,,,,,,,,,,,,,,220.01151765100008,None,2,2.198946380999814,220.01151765100008,None,220.01151765100008,None,220.01151765100008,None,166.60039733400004,324.17858260799994,222.24325097200017,None,222.24325097200017,None,/Users/columbiadpml/Documents/GitHub/ebs/fMRI experiment/psychopy code/data/100721_bk2_recall_fmri_wav/recall_audio_2-1633624140.234.wav,0.011450393400082248,None,2,157.53637486699995,222.24325097200017,None,222.24325097200017,None,100721,1,3,2,3,1,2,0,60,2021_Oct_07_1225,recall_fmri,3.2.4,60.201084626069836,
1,,,,,,,,,0,0,0,0,0,1,1,1,,,,,,,,,,,,,,,,,,,,,,,,,,,,324.1823799860001,379.80821427700016,None,330.18311322399995,,,,,,,,,,,,,,,,,,,,,,,,,,100721,1,3,2,3,1,2,0,60,2021_Oct_07_1225,recall_fmri,3.2.4,60.201084626069836,
2,,,,,,,,,0,0,0,0,0,2,2,2,,,,,0,0,0,0,,,,,,,,,,,,,,,,,,,,,,,,385.81256130500014,None,2,1.5290598450001198,385.81256130500014,None,385.81256130500014,None,385.81256130500014,None,331.73448535500006,471.493502926,387.3791236860002,None,387.3791236860002,None,/Users/columbiadpml/Documents/GitHub/ebs/fMRI experiment/psychopy code/data/100721_bk2_recall_fmri_wav/recall_audio_2-1633624305.369.wav,0.010620935400083908,None,2,139.7223981059999,387.3791236860002,None,387.3791236860002,None,100721,1,3,2,3,1,2,0,60,2021_Oct_07_1225,recall_fmri,3.2.4,60.201084626069836,
2,,,,,,,,,0,0,0,0,0,2,2,2,,,,,,,,,,,,,,,,,,,,,,,,,,,,471.49724683399995,527.1224603190001,None,477.509974264,,,,,,,,,,,,,,,,,,,,,,,,,,100721,1,3,2,3,1,2,0,60,2021_Oct_07_1225,recall_fmri,3.2.4,60.201084626069836,
3,,,,,,,,,0,0,0,0,0,3,3,3,,,,,,,,,,,,,,,,,,,,,,,,,,,,477.5130278450001,533.1390577980001,None,483.51654130400016,,,,,,,,,,,,,,,,,,,,,,,,,,100721,1,3,2,3,1,2,0,60,2021_Oct_07_1225,recall_fmri,3.2.4,60.201084626069836,
4,,,,,,,,,0,0,0,0,0,4,4,4,,,,,0,0,0,0,,,,,,,,,,,,,,,,,,,,,,,,539.1462554670002,None,2,1.4403553399999964,539.1462554670002,None,539.1462554670002,None,539.1462554670002,None,484.98449295399996,576.925733365,540.6286073470001,None,540.6286073470001,None,/Users/columbiadpml/Documents/GitHub/ebs/fMRI experiment/psychopy code/data/100721_bk2_recall_fmri_wav/recall_audio_2-1633624458.621.wav,0.008381025400012732,None,2,91.89997745100004,540.6286073470001,None,540.6286073470001,None,100721,1,3,2,3,1,2,0,60,2021_Oct_07_1225,recall_fmri,3.2.4,60.201084626069836,
4,,,,,,,,,0,0,0,0,0,4,4,4,,,,,,,,,,,,,,,,,,,,,,,,,,,,576.929327395,632.554344806,None,582.941943903,,,,,,,,,,,,,,,,,,,,,,,,,,100721,1,3,2,3,1,2,0,60,2021_Oct_07_1225,recall_fmri,3.2.4,60.201084626069836,
5,,,,,,,,,0,0,0,0,0,5,5,5,,,,,0,0,0,0,,,,,,,,,,,,,,,,,,,,,,,,638.5710802400001,None,2,1.4184535119998145,638.5710802400001,None,638.5710802400001,None,638.5710802400001,None,584.384703745,707.473590567,640.0287755000002,None,640.0287755000002,None,/Users/columbiadpml/Documents/GitHub/ebs/fMRI experiment/psychopy code/data/100721_bk2_recall_fmri_wav/recall_audio_2-1633624558.018.wav,0.011474457399799576,None,2,123.03469159999986,640.0287755000002,None,640.0287755000002,None,100721,1,3,2,3,1,2,0,60,2021_Oct_07_1225,recall_fmri,3.2.4,60.201084626069836,
﻿count,behav_recall_instructions.thisRepN,behav_recall_instructions.thisTrialN,behav_recall_instructions.thisN,behav_recall_instructions.thisIndex,trials.thisRepN,trials.thisTrialN,trials.thisN,trials.thisIndex,trials_2.thisRepN,trials_2.thisTrialN,trials_2.thisN,trials_2.thisIndex,trials_20.thisRepN,trials_20.thisTrialN,trials_20.thisN,trials_20.thisIndex,trials_18.thisRepN,trials_18.thisTrialN,trials_18.thisN,trials_18.thisIndex,trials_19.thisRepN,trials_19.thisTrialN,trials_19.thisN,trials_19.thisIndex,story_list_block2,action_list_block2,text_76.started,text_76.stopped,key_resp_30.keys,key_resp_30.rt,key_resp_30.started,key_resp_30.stopped,textTrigger.started,textTrigger.stopped,getTrigger.keys,getTrigger.rt,getTrigger.started,getTrigger.stopped,triggerTime,text_77.started,text_77.stopped,text_78.started,text_78.stopped,waitStart,image_23.started,image_23.stopped,waitEnd,text_41.started,text_41.stopped,key_resp_26.keys,key_resp_26.rt,key_resp_26.started,key_resp_26.stopped,text_42.started,text_42.stopped,text_51.started,text_51.stopped,recall_StartTime,recall_EndTime,image_20.started,image_20.stopped,text_75.started,text_75.stopped,recall_audio_2.filename,recall_audio_2.started,recall_audio_2.stopped,key_resp_27.keys,key_resp_27.rt,key_resp_27.started,key_resp_27.stopped,text_79.started,text_79.stopped,participant,sA,sB,lA,lB,block_struct,block,behavioral,random_seed,date,expName,psychopyVersion,frameRate,
,,,,,,,,,,,,,,,,,,,,,,,,,[14 32 34 43 12 41 21 23],[2 4 2 3 4 1 1 3],12.745149409000078,None,space,0.891812229999914,12.745149409000078,None,,,,,,,,,,,,,,,,,,,,,,,,,,,,,,,,,,,,,,,,,100721,1,3,2,3,1,2,0,60,2021_Oct_07_1225,recall_fmri,3.2.4,60.201084626069836,
0,,,,,,,,,0,0,0,0,0,0,0,0,,,,,0,0,0,0,,,,,,,,,13.66144330200018,None,equal,41.93499056399992,13.66144330200018,None,42.88629127299987,13.66144330200018,None,13.66144330200018,None,0.0004167669999333157,55.62766552400012,None,5.999759126000072,61.645512557000075,None,2,2.2409461019999526,61.645512557000075,None,61.645512557000075,None,61.645512557000075,None,8.283335727000122,158.38302172700014,64.012070472,None,64.012070472,None,/Users/columbiadpml/Documents/GitHub/ebs/fMRI experiment/psychopy code/data/100721_bk2_recall_fmri_wav/recall_audio_2-1633623982.986.wav,0.008901522199948886,None,2,149.97651718499992,64.012070472,None,64.012070472,None,100721,1,3,2,3,1,2,0,60,2021_Oct_07_1225,recall_fmri,3.2.4,60.201084626069836,
0,,,,,,,,,0,0,0,0,0,0,0,0,,,,,,,,,,,,,,,,,,,,,,,,,,,,158.38643220300014,214.0114306070002,None,164.38348590100009,,,,,,,,,,,,,,,,,,,,,,,,,,100721,1,3,2,3,1,2,0,60,2021_Oct_07_1225,recall_fmri,3.2.4,60.201084626069836,
1,,,,,,,,,0,0,0,0,0,1,1,1,,,,,0,0,0,0,,,,,,,,,,,,,,,,,,,,,,,,220.01151765100008,None,2,2.198946380999814,220.01151765100008,None,220.01151765100008,None,220.01151765100008,None,166.60039733400004,324.17858260799994,222.24325097200017,None,222.24325097200017,None,/Users/columbiadpml/Documents/GitHub/ebs/fMRI experiment/psychopy code/data/100721_bk2_recall_fmri_wav/recall_audio_2-1633624140.234.wav,0.011450393400082248,None,2,157.53637486699995,222.24325097200017,None,222.24325097200017,None,100721,1,3,2,3,1,2,0,60,2021_Oct_07_1225,recall_fmri,3.2.4,60.201084626069836,
1,,,,,,,,,0,0,0,0,0,1,1,1,,,,,,,,,,,,,,,,,,,,,,,,,,,,324.1823799860001,379.80821427700016,None,330.18311322399995,,,,,,,,,,,,,,,,,,,,,,,,,,100721,1,3,2,3,1,2,0,60,2021_Oct_07_1225,recall_fmri,3.2.4,60.201084626069836,
2,,,,,,,,,0,0,0,0,0,2,2,2,,,,,0,0,0,0,,,,,,,,,,,,,,,,,,,,,,,,385.81256130500014,None,2,1.5290598450001198,385.81256130500014,None,385.81256130500014,None,385.81256130500014,None,331.73448535500006,471.493502926,387.3791236860002,None,387.3791236860002,None,/Users/columbiadpml/Documents/GitHub/ebs/fMRI experiment/psychopy code/data/100721_bk2_recall_fmri_wav/recall_audio_2-1633624305.369.wav,0.010620935400083908,None,2,139.7223981059999,387.3791236860002,None,387.3791236860002,None,100721,1,3,2,3,1,2,0,60,2021_Oct_07_1225,recall_fmri,3.2.4,60.201084626069836,
2,,,,,,,,,0,0,0,0,0,2,2,2,,,,,,,,,,,,,,,,,,,,,,,,,,,,471.49724683399995,527.1224603190001,None,477.509974264,,,,,,,,,,,,,,,,,,,,,,,,,,100721,1,3,2,3,1,2,0,60,2021_Oct_07_1225,recall_fmri,3.2.4,60.201084626069836,
3,,,,,,,,,0,0,0,0,0,3,3,3,,,,,,,,,,,,,,,,,,,,,,,,,,,,477.5130278450001,533.1390577980001,None,483.51654130400016,,,,,,,,,,,,,,,,,,,,,,,,,,100721,1,3,2,3,1,2,0,60,2021_Oct_07_1225,recall_fmri,3.2.4,60.201084626069836,
4,,,,,,,,,0,0,0,0,0,4,4,4,,,,,0,0,0,0,,,,,,,,,,,,,,,,,,,,,,,,539.1462554670002,None,2,1.4403553399999964,539.1462554670002,None,539.1462554670002,None,539.1462554670002,None,484.98449295399996,576.925733365,540.6286073470001,None,540.6286073470001,None,/Users/columbiadpml/Documents/GitHub/ebs/fMRI experiment/psychopy code/data/100721_bk2_recall_fmri_wav/recall_audio_2-1633624458.621.wav,0.008381025400012732,None,2,91.89997745100004,540.6286073470001,None,540.6286073470001,None,100721,1,3,2,3,1,2,0,60,2021_Oct_07_1225,recall_fmri,3.2.4,60.201084626069836,
4,,,,,,,,,0,0,0,0,0,4,4,4,,,,,,,,,,,,,,,,,,,,,,,,,,,,576.929327395,632.554344806,None,582.941943903,,,,,,,,,,,,,,,,,,,,,,,,,,100721,1,3,2,3,1,2,0,60,2021_Oct_07_1225,recall_fmri,3.2.4,60.201084626069836,
5,,,,,,,,,0,0,0,0,0,5,5,5,,,,,0,0,0,0,,,,,,,,,,,,,,,,,,,,,,,,638.5710802400001,None,2,1.4184535119998145,638.5710802400001,None,638.5710802400001,None,638.5710802400001,None,584.384703745,707.473590567,640.0287755000002,None,640.0287755000002,None,/Users/columbiadpml/Documents/GitHub/ebs/fMRI experiment/psychopy code/data/100721_bk2_recall_fmri_wav/recall_audio_2-1633624558.018.wav,0.011474457399799576,None,2,123.03469159999986,640.0287755000002,None,640.0287755000002,None,100721,1,3,2,3,1,2,0,60,2021_Oct_07_1225,recall_fmri,3.2.4,60.201084626069836,
5,,,,,,,,,0,0,0,0,0,5,5,5,,,,,,,,,,,,,,,,,,,,,,,,,,,,707.477709797,763.095469372,None,713.467370196,,,,,,,,,,,,,,,,,,,,,,,,,,100721,1,3,2,3,1,2,0,60,2021_Oct_07_1225,recall_fmri,3.2.4,60.201084626069836,
6,,,,,,,,,0,0,0,0,0,6,6,6,,,,,0,0,0,0,,,,,,,,,,,,,,,,,,,,,,,,769.095956572,None,2,1.0896517269998185,769.095956572,None,769.095956572,None,769.095956572,None,714.5847695520001,812.6333861210001,770.229741782,None,770.229741782,None,/Users/columbiadpml/Documents/GitHub/ebs/fMRI experiment/psychopy code/data/100721_bk2_recall_fmri_wav/recall_audio_2-1633624688.218.wav,0.011521779400027299,None,2,98.00669278400005,770.229741782,None,770.229741782,None,100721,1,3,2,3,1,2,0,60,2021_Oct_07_1225,recall_fmri,3.2.4,60.201084626069836,
﻿count,behav_recall_instructions.thisRepN,behav_recall_instructions.thisTrialN,behav_recall_instructions.thisN,behav_recall_instructions.thisIndex,trials.thisRepN,trials.thisTrialN,trials.thisN,trials.thisIndex,trials_2.thisRepN,trials_2.thisTrialN,trials_2.thisN,trials_2.thisIndex,trials_20.thisRepN,trials_20.thisTrialN,trials_20.thisN,trials_20.thisIndex,trials_18.thisRepN,trials_18.thisTrialN,trials_18.thisN,trials_18.thisIndex,trials_19.thisRepN,trials_19.thisTrialN,trials_19.thisN,trials_19.thisIndex,story_list_block2,action_list_block2,text_76.started,text_76.stopped,key_resp_30.keys,key_resp_30.rt,key_resp_30.started,key_resp_30.stopped,textTrigger.started,textTrigger.stopped,getTrigger.keys,getTrigger.rt,getTrigger.started,getTrigger.stopped,triggerTime,text_77.started,text_77.stopped,text_78.started,text_78.stopped,waitStart,image_23.started,image_23.stopped,waitEnd,text_41.started,text_41.stopped,key_resp_26.keys,key_resp_26.rt,key_resp_26.started,key_resp_26.stopped,text_42.started,text_42.stopped,text_51.started,text_51.stopped,recall_StartTime,recall_EndTime,image_20.started,image_20.stopped,text_75.started,text_75.stopped,recall_audio_2.filename,recall_audio_2.started,recall_audio_2.stopped,key_resp_27.keys,key_resp_27.rt,key_resp_27.started,key_resp_27.stopped,text_79.started,text_79.stopped,participant,sA,sB,lA,lB,block_struct,block,behavioral,random_seed,date,expName,psychopyVersion,frameRate,
,,,,,,,,,,,,,,,,,,,,,,,,,[14 32 34 43 12 41 21 23],[2 4 2 3 4 1 1 3],12.745149409000078,None,space,0.891812229999914,12.745149409000078,None,,,,,,,,,,,,,,,,,,,,,,,,,,,,,,,,,,,,,,,,,100721,1,3,2,3,1,2,0,60,2021_Oct_07_1225,recall_fmri,3.2.4,60.201084626069836,
0,,,,,,,,,0,0,0,0,0,0,0,0,,,,,0,0,0,0,,,,,,,,,13.66144330200018,None,equal,41.93499056399992,13.66144330200018,None,42.88629127299987,13.66144330200018,None,13.66144330200018,None,0.0004167669999333157,55.62766552400012,None,5.999759126000072,61.645512557000075,None,2,2.2409461019999526,61.645512557000075,None,61.645512557000075,None,61.645512557000075,None,8.283335727000122,158.38302172700014,64.012070472,None,64.012070472,None,/Users/columbiadpml/Documents/GitHub/ebs/fMRI experiment/psychopy code/data/100721_bk2_recall_fmri_wav/recall_audio_2-1633623982.986.wav,0.008901522199948886,None,2,149.97651718499992,64.012070472,None,64.012070472,None,100721,1,3,2,3,1,2,0,60,2021_Oct_07_1225,recall_fmri,3.2.4,60.201084626069836,
0,,,,,,,,,0,0,0,0,0,0,0,0,,,,,,,,,,,,,,,,,,,,,,,,,,,,158.38643220300014,214.0114306070002,None,164.38348590100009,,,,,,,,,,,,,,,,,,,,,,,,,,100721,1,3,2,3,1,2,0,60,2021_Oct_07_1225,recall_fmri,3.2.4,60.201084626069836,
1,,,,,,,,,0,0,0,0,0,1,1,1,,,,,0,0,0,0,,,,,,,,,,,,,,,,,,,,,,,,220.01151765100008,None,2,2.198946380999814,220.01151765100008,None,220.01151765100008,None,220.01151765100008,None,166.60039733400004,324.17858260799994,222.24325097200017,None,222.24325097200017,None,/Users/columbiadpml/Documents/GitHub/ebs/fMRI experiment/psychopy code/data/100721_bk2_recall_fmri_wav/recall_audio_2-1633624140.234.wav,0.011450393400082248,None,2,157.53637486699995,222.24325097200017,None,222.24325097200017,None,100721,1,3,2,3,1,2,0,60,2021_Oct_07_1225,recall_fmri,3.2.4,60.201084626069836,
1,,,,,,,,,0,0,0,0,0,1,1,1,,,,,,,,,,,,,,,,,,,,,,,,,,,,324.1823799860001,379.80821427700016,None,330.18311322399995,,,,,,,,,,,,,,,,,,,,,,,,,,100721,1,3,2,3,1,2,0,60,2021_Oct_07_1225,recall_fmri,3.2.4,60.201084626069836,
2,,,,,,,,,0,0,0,0,0,2,2,2,,,,,0,0,0,0,,,,,,,,,,,,,,,,,,,,,,,,385.81256130500014,None,2,1.5290598450001198,385.81256130500014,None,385.81256130500014,None,385.81256130500014,None,331.73448535500006,471.493502926,387.3791236860002,None,387.3791236860002,None,/Users/columbiadpml/Documents/GitHub/ebs/fMRI experiment/psychopy code/data/100721_bk2_recall_fmri_wav/recall_audio_2-1633624305.369.wav,0.010620935400083908,None,2,139.7223981059999,387.3791236860002,None,387.3791236860002,None,100721,1,3,2,3,1,2,0,60,2021_Oct_07_1225,recall_fmri,3.2.4,60.201084626069836,
2,,,,,,,,,0,0,0,0,0,2,2,2,,,,,,,,,,,,,,,,,,,,,,,,,,,,471.49724683399995,527.1224603190001,None,477.509974264,,,,,,,,,,,,,,,,,,,,,,,,,,100721,1,3,2,3,1,2,0,60,2021_Oct_07_1225,recall_fmri,3.2.4,60.201084626069836,
3,,,,,,,,,0,0,0,0,0,3,3,3,,,,,,,,,,,,,,,,,,,,,,,,,,,,477.5130278450001,533.1390577980001,None,483.51654130400016,,,,,,,,,,,,,,,,,,,,,,,,,,100721,1,3,2,3,1,2,0,60,2021_Oct_07_1225,recall_fmri,3.2.4,60.201084626069836,
4,,,,,,,,,0,0,0,0,0,4,4,4,,,,,0,0,0,0,,,,,,,,,,,,,,,,,,,,,,,,539.1462554670002,None,2,1.4403553399999964,539.1462554670002,None,539.1462554670002,None,539.1462554670002,None,484.98449295399996,576.925733365,540.6286073470001,None,540.6286073470001,None,/Users/columbiadpml/Documents/GitHub/ebs/fMRI experiment/psychopy code/data/100721_bk2_recall_fmri_wav/recall_audio_2-1633624458.621.wav,0.008381025400012732,None,2,91.89997745100004,540.6286073470001,None,540.6286073470001,None,100721,1,3,2,3,1,2,0,60,2021_Oct_07_1225,recall_fmri,3.2.4,60.201084626069836,
4,,,,,,,,,0,0,0,0,0,4,4,4,,,,,,,,,,,,,,,,,,,,,,,,,,,,576.929327395,632.554344806,None,582.941943903,,,,,,,,,,,,,,,,,,,,,,,,,,100721,1,3,2,3,1,2,0,60,2021_Oct_07_1225,recall_fmri,3.2.4,60.201084626069836,
5,,,,,,,,,0,0,0,0,0,5,5,5,,,,,0,0,0,0,,,,,,,,,,,,,,,,,,,,,,,,638.5710802400001,None,2,1.4184535119998145,638.5710802400001,None,638.5710802400001,None,638.5710802400001,None,584.384703745,707.473590567,640.0287755000002,None,640.0287755000002,None,/Users/columbiadpml/Documents/GitHub/ebs/fMRI experiment/psychopy code/data/100721_bk2_recall_fmri_wav/recall_audio_2-1633624558.018.wav,0.011474457399799576,None,2,123.03469159999986,640.0287755000002,None,640.0287755000002,None,100721,1,3,2,3,1,2,0,60,2021_Oct_07_1225,recall_fmri,3.2.4,60.201084626069836,
5,,,,,,,,,0,0,0,0,0,5,5,5,,,,,,,,,,,,,,,,,,,,,,,,,,,,707.477709797,763.095469372,None,713.467370196,,,,,,,,,,,,,,,,,,,,,,,,,,100721,1,3,2,3,1,2,0,60,2021_Oct_07_1225,recall_fmri,3.2.4,60.201084626069836,
6,,,,,,,,,0,0,0,0,0,6,6,6,,,,,0,0,0,0,,,,,,,,,,,,,,,,,,,,,,,,769.095956572,None,2,1.0896517269998185,769.095956572,None,769.095956572,None,769.095956572,None,714.5847695520001,812.6333861210001,770.229741782,None,770.229741782,None,/Users/columbiadpml/Documents/GitHub/ebs/fMRI experiment/psychopy code/data/100721_bk2_recall_fmri_wav/recall_audio_2-1633624688.218.wav,0.011521779400027299,None,2,98.00669278400005,770.229741782,None,770.229741782,None,100721,1,3,2,3,1,2,0,60,2021_Oct_07_1225,recall_fmri,3.2.4,60.201084626069836,
6,,,,,,,,,0,0,0,0,0,6,6,6,,,,,,,,,,,,,,,,,,,,,,,,,,,,812.63796462,868.2630745040001,None,818.63382686,,,,,,,,,,,,,,,,,,,,,,,,,,100721,1,3,2,3,1,2,0,60,2021_Oct_07_1225,recall_fmri,3.2.4,60.201084626069836,
