count,audio,trials_14.thisRepN,trials_14.thisTrialN,trials_14.thisN,trials_14.thisIndex,trials_3.thisRepN,trials_3.thisTrialN,trials_3.thisN,trials_3.thisIndex,trials_4.thisRepN,trials_4.thisTrialN,trials_4.thisN,trials_4.thisIndex,trials_6.thisRepN,trials_6.thisTrialN,trials_6.thisN,trials_6.thisIndex,trials_9.thisRepN,trials_9.thisTrialN,trials_9.thisN,trials_9.thisIndex,trials_10.thisRepN,trials_10.thisTrialN,trials_10.thisN,trials_10.thisIndex,trials_11.thisRepN,trials_11.thisTrialN,trials_11.thisN,trials_11.thisIndex,trials_12.thisRepN,trials_12.thisTrialN,trials_12.thisN,trials_12.thisIndex,trials_25.thisRepN,trials_25.thisTrialN,trials_25.thisN,trials_25.thisIndex,trials_15.thisRepN,trials_15.thisTrialN,trials_15.thisN,trials_15.thisIndex,trials_26.thisRepN,trials_26.thisTrialN,trials_26.thisN,trials_26.thisIndex,trials_8.thisRepN,trials_8.thisTrialN,trials_8.thisN,trials_8.thisIndex,story_list_block2,action_list_block2,textTrigger.started,textTrigger.stopped,getTrigger.keys,getTrigger.rt,getTrigger.started,getTrigger.stopped,triggerTime,text_76.started,text_76.stopped,text_77.started,text_77.stopped,startWait,endWait,image_23.started,image_23.stopped,text_55.started,text_55.stopped,text_56.started,text_56.stopped,key_resp_2.keys,key_resp_2.rt,key_resp_2.started,key_resp_2.stopped,text_82.started,text_82.stopped,text_57.started,text_57.stopped,key_resp_17.keys,key_resp_17.rt,key_resp_17.started,key_resp_17.stopped,text_83.started,text_83.stopped,text_60.started,text_60.stopped,image_2.started,image_2.stopped,text_58.started,text_58.stopped,key_resp_23.keys,key_resp_23.rt,key_resp_23.started,key_resp_23.stopped,text_62.started,text_62.stopped,key_resp_18.keys,key_resp_18.rt,key_resp_18.started,key_resp_18.stopped,text_84.started,text_84.stopped,question1_2.started,question1_2.stopped,question2_2.started,question2_2.stopped,question3_2.started,question3_2.stopped,question4_2.started,question4_2.stopped,question5_2.started,question5_2.stopped,question6_2.started,question6_2.stopped,image_15.started,image_15.stopped,key_resp.keys,key_resp.started,key_resp.stopped,text_59.started,text_59.stopped,key_resp_19.keys,key_resp_19.rt,key_resp_19.started,key_resp_19.stopped,text_85.started,text_85.stopped,text_61.started,text_61.stopped,image_17.started,image_17.stopped,text_63.started,text_63.stopped,key_resp_24.keys,key_resp_24.rt,key_resp_24.started,key_resp_24.stopped,text_64.started,text_64.stopped,key_resp_20.keys,key_resp_20.rt,key_resp_20.started,key_resp_20.stopped,storyImage_StartTime,storyImage_EndTime,clip_StartTime,clip_EndTime,text_67.started,text_67.stopped,text_68.started,text_68.stopped,text_36.started,text_36.stopped,participant,sA,sB,lA,lB,block_struct,play_stories,block,behavioral,random_seed,date,expName,psychopyVersion,frameRate,
0,,,,,,,,,,0,0,0,0,0,0,0,0,0,0,0,0,0,0,0,0,0,0,0,0,,,,,,,,,,,,,,,,,,,,,[14 32 34 43 12 41 21 23],[2 4 2 3 4 1 1 3],18.145149079000475,None,equal,33.80200669599981,18.145149079000475,None,33.8428726559996,18.145149079000475,None,18.145149079000475,None,0.0004062329999214853,5.994614473000183,51.978388361000725,None,57.98250859900054,None,57.98250859900054,None,2,1.7375925639998968,57.98250859900054,None,57.98250859900054,None,59.74925186300061,None,2,1.1987888890007525,59.74925186300061,None,59.74925186300061,None,60.994526507000046,None,60.994526507000046,None,60.994526507000046,None,2,3.055699666999317,60.994526507000046,None,64.0783826500001,None,2,1.5118238699997164,64.0783826500001,None,64.0783826500001,None,65.69519679099994,None,65.69519679099994,None,65.69519679099994,None,65.69519679099994,None,65.69519679099994,None,65.69519679099994,None,65.69519679099994,None,None,65.69519679099994,None,,,,,,,,,,,,,,,,,,,,,,,,,,,,,,,,,,,100721,1,3,2,3,1,1,2,0,60,2021_Oct_07_1139,listening_fmri,3.2.4,60.24855226936472,
0,,,,,,,,,,0,0,0,0,0,0,0,0,0,0,0,0,0,0,0,0,,,,,,,,,,,,,,,,,,,,,,,,,,,,,,,,,,,,,,,,,,,,,,,,,,,,,,,,,,,,,,,,,,,,,,,,,,,,,,,,,,,,,,,,,,,,,,,84.71563987399986,None,2,1.7314716060000137,84.71563987399986,None,84.71563987399986,None,86.49431048000042,None,86.49431048000042,None,86.49431048000042,None,2,1.6817299919994184,86.49431048000042,None,,,,,,,,,,,,,,,,,100721,1,3,2,3,1,1,2,0,60,2021_Oct_07_1139,listening_fmri,3.2.4,60.24855226936472,
0,parcelated_audio/14/14_1.ogg,,,,,,,,,0,0,0,0,0,0,0,0,0,0,0,0,,,,,,,,,,,,,0,0,0,0,0,0,0,0,,,,,,,,,,,,,,,,,,,,,,,,,,,,,,,,,,,,,,,,,,,,,,,,,,,,,,,,,,,,,,,,,,,,,,,,,,,,,,,,,,,,,,,,,,,,,,,,,88.1953582340002,None,2,2.5288739999996324,88.1953582340002,None,38.768966302999615,41.78150792500037,41.78992468300021,48.66694016299971,,,,,,,100721,1,3,2,3,1,1,2,0,60,2021_Oct_07_1139,listening_fmri,3.2.4,60.24855226936472,
0,parcelated_audio/14/14_2.ogg,,,,,,,,,0,0,0,0,0,0,0,0,0,0,0,0,,,,,,,,,,,,,0,0,0,0,0,1,1,1,,,,,,,,,,,,,,,,,,,,,,,,,,,,,,,,,,,,,,,,,,,,,,,,,,,,,,,,,,,,,,,,,,,,,,,,,,,,,,,,,,,,,,,,,,,,,,,,,,,,,,,,,48.667226511999615,55.22040397500041,,,,,,,100721,1,3,2,3,1,1,2,0,60,2021_Oct_07_1139,listening_fmri,3.2.4,60.24855226936472,
0,parcelated_audio/14/14_3.ogg,,,,,,,,,0,0,0,0,0,0,0,0,0,0,0,0,,,,,,,,,,,,,0,0,0,0,0,2,2,2,,,,,,,,,,,,,,,,,,,,,,,,,,,,,,,,,,,,,,,,,,,,,,,,,,,,,,,,,,,,,,,,,,,,,,,,,,,,,,,,,,,,,,,,,,,,,,,,,,,,,,,,,55.22129720399971,58.92225283500011,,,,,,,100721,1,3,2,3,1,1,2,0,60,2021_Oct_07_1139,listening_fmri,3.2.4,60.24855226936472,
0,parcelated_audio/14/14_4.ogg,,,,,,,,,0,0,0,0,0,0,0,0,0,0,0,0,,,,,,,,,,,,,0,0,0,0,0,3,3,3,,,,,,,,,,,,,,,,,,,,,,,,,,,,,,,,,,,,,,,,,,,,,,,,,,,,,,,,,,,,,,,,,,,,,,,,,,,,,,,,,,,,,,,,,,,,,,,,,,,,,,,,,58.922660623999946,66.88342457500039,,,,,,,100721,1,3,2,3,1,1,2,0,60,2021_Oct_07_1139,listening_fmri,3.2.4,60.24855226936472,
0,parcelated_audio/14/14_5.ogg,,,,,,,,,0,0,0,0,0,0,0,0,0,0,0,0,,,,,,,,,,,,,0,0,0,0,0,4,4,4,,,,,,,,,,,,,,,,,,,,,,,,,,,,,,,,,,,,,,,,,,,,,,,,,,,,,,,,,,,,,,,,,,,,,,,,,,,,,,,,,,,,,,,,,,,,,,,,,,,,,,,,,66.88370199200017,71.74709944999995,,,,,,,100721,1,3,2,3,1,1,2,0,60,2021_Oct_07_1139,listening_fmri,3.2.4,60.24855226936472,
0,parcelated_audio/14/14_6.ogg,,,,,,,,,0,0,0,0,0,0,0,0,0,0,0,0,,,,,,,,,,,,,0,0,0,0,0,5,5,5,,,,,,,,,,,,,,,,,,,,,,,,,,,,,,,,,,,,,,,,,,,,,,,,,,,,,,,,,,,,,,,,,,,,,,,,,,,,,,,,,,,,,,,,,,,,,,,,,,,,,,,,,71.74743309899986,77.6111679200003,,,,,,,100721,1,3,2,3,1,1,2,0,60,2021_Oct_07_1139,listening_fmri,3.2.4,60.24855226936472,
0,parcelated_audio/14/14_7.ogg,,,,,,,,,0,0,0,0,0,0,0,0,0,0,0,0,,,,,,,,,,,,,0,0,0,0,0,6,6,6,,,,,,,,,,,,,,,,,,,,,,,,,,,,,,,,,,,,,,,,,,,,,,,,,,,,,,,,,,,,,,,,,,,,,,,,,,,,,,,,,,,,,,,,,,,,,,,,,,,,,,,,,77.61147039299976,87.24574858100004,,,,,,,100721,1,3,2,3,1,1,2,0,60,2021_Oct_07_1139,listening_fmri,3.2.4,60.24855226936472,
0,parcelated_audio/14/14_8.ogg,,,,,,,,,0,0,0,0,0,0,0,0,0,0,0,0,,,,,,,,,,,,,0,0,0,0,0,7,7,7,,,,,,,,,,,,,,,,,,,,,,,,,,,,,,,,,,,,,,,,,,,,,,,,,,,,,,,,,,,,,,,,,,,,,,,,,,,,,,,,,,,,,,,,,,,,,,,,,,,,,,,,,87.24602935599978,92.4484660070002,,,,,,,100721,1,3,2,3,1,1,2,0,60,2021_Oct_07_1139,listening_fmri,3.2.4,60.24855226936472,
0,parcelated_audio/14/14_9.ogg,,,,,,,,,0,0,0,0,0,0,0,0,0,0,0,0,,,,,,,,,,,,,0,0,0,0,0,8,8,8,,,,,,,,,,,,,,,,,,,,,,,,,,,,,,,,,,,,,,,,,,,,,,,,,,,,,,,,,,,,,,,,,,,,,,,,,,,,,,,,,,,,,,,,,,,,,,,,,,,,,,,,,92.44876428800035,96.20321867199982,,,,,,,100721,1,3,2,3,1,1,2,0,60,2021_Oct_07_1139,listening_fmri,3.2.4,60.24855226936472,
0,parcelated_audio/14/14_10.ogg,,,,,,,,,0,0,0,0,0,0,0,0,0,0,0,0,,,,,,,,,,,,,0,0,0,0,0,9,9,9,,,,,,,,,,,,,,,,,,,,,,,,,,,,,,,,,,,,,,,,,,,,,,,,,,,,,,,,,,,,,,,,,,,,,,,,,,,,,,,,,,,,,,,,,,,,,,,,,,,,,,,,,96.20352808900043,107.4483682,,,,,,,100721,1,3,2,3,1,1,2,0,60,2021_Oct_07_1139,listening_fmri,3.2.4,60.24855226936472,
0,parcelated_audio/14/14_11.ogg,,,,,,,,,0,0,0,0,0,0,0,0,0,0,0,0,,,,,,,,,,,,,0,0,0,0,0,10,10,10,,,,,,,,,,,,,,,,,,,,,,,,,,,,,,,,,,,,,,,,,,,,,,,,,,,,,,,,,,,,,,,,,,,,,,,,,,,,,,,,,,,,,,,,,,,,,,,,,,,,,,,,,107.44864138600042,114.65962844899968,,,,,,,100721,1,3,2,3,1,1,2,0,60,2021_Oct_07_1139,listening_fmri,3.2.4,60.24855226936472,
0,parcelated_audio/14/14_12.ogg,,,,,,,,,0,0,0,0,0,0,0,0,0,0,0,0,,,,,,,,,,,,,0,0,0,0,0,11,11,11,,,,,,,,,,,,,,,,,,,,,,,,,,,,,,,,,,,,,,,,,,,,,,,,,,,,,,,,,,,,,,,,,,,,,,,,,,,,,,,,,,,,,,,,,,,,,,,,,,,,,,,,,114.66012902700004,122.67369477200009,,,,,,,100721,1,3,2,3,1,1,2,0,60,2021_Oct_07_1139,listening_fmri,3.2.4,60.24855226936472,
0,parcelated_audio/14/14_13.ogg,,,,,,,,,0,0,0,0,0,0,0,0,0,0,0,0,,,,,,,,,,,,,0,0,0,0,0,12,12,12,,,,,,,,,,,,,,,,,,,,,,,,,,,,,,,,,,,,,,,,,,,,,,,,,,,,,,,,,,,,,,,,,,,,,,,,,,,,,,,,,,,,,,,,,,,,,,,,,,,,,,,,,122.67407948500022,128.79286013599994,,,,,,,100721,1,3,2,3,1,1,2,0,60,2021_Oct_07_1139,listening_fmri,3.2.4,60.24855226936472,
0,parcelated_audio/14/14_14.ogg,,,,,,,,,0,0,0,0,0,0,0,0,0,0,0,0,,,,,,,,,,,,,0,0,0,0,0,13,13,13,,,,,,,,,,,,,,,,,,,,,,,,,,,,,,,,,,,,,,,,,,,,,,,,,,,,,,,,,,,,,,,,,,,,,,,,,,,,,,,,,,,,,,,,,,,,,,,,,,,,,,,,,128.79337854099958,135.35266350500024,,,,,,,100721,1,3,2,3,1,1,2,0,60,2021_Oct_07_1139,listening_fmri,3.2.4,60.24855226936472,
0,parcelated_audio/14/14_15.ogg,,,,,,,,,0,0,0,0,0,0,0,0,0,0,0,0,,,,,,,,,,,,,0,0,0,0,0,14,14,14,,,,,,,,,,,,,,,,,,,,,,,,,,,,,,,,,,,,,,,,,,,,,,,,,,,,,,,,,,,,,,,,,,,,,,,,,,,,,,,,,,,,,,,,,,,,,,,,,,,,,,,,,135.35301776899996,142.45773092299987,,,,,,,100721,1,3,2,3,1,1,2,0,60,2021_Oct_07_1139,listening_fmri,3.2.4,60.24855226936472,
0,parcelated_audio/14/14_16.ogg,,,,,,,,,0,0,0,0,0,0,0,0,0,0,0,0,,,,,,,,,,,,,0,0,0,0,0,15,15,15,,,,,,,,,,,,,,,,,,,,,,,,,,,,,,,,,,,,,,,,,,,,,,,,,,,,,,,,,,,,,,,,,,,,,,,,,,,,,,,,,,,,,,,,,,,,,,,,,,,,,,,,,142.45818146500005,147.8747911290002,,,,,,,100721,1,3,2,3,1,1,2,0,60,2021_Oct_07_1139,listening_fmri,3.2.4,60.24855226936472,
0,parcelated_audio/14/14_17.ogg,,,,,,,,,0,0,0,0,0,0,0,0,0,0,0,0,,,,,,,,,,,,,0,0,0,0,0,16,16,16,,,,,,,,,,,,,,,,,,,,,,,,,,,,,,,,,,,,,,,,,,,,,,,,,,,,,,,,,,,,,,,,,,,,,,,,,,,,,,,,,,,,,,,,,,,,,,,,,,,,,,,,,147.8752945870001,157.57262731900028,,,,,,,100721,1,3,2,3,1,1,2,0,60,2021_Oct_07_1139,listening_fmri,3.2.4,60.24855226936472,
0,parcelated_audio/14/14_18.ogg,,,,,,,,,0,0,0,0,0,0,0,0,0,0,0,0,,,,,,,,,,,,,0,0,0,0,0,17,17,17,,,,,,,,,,,,,,,,,,,,,,,,,,,,,,,,,,,,,,,,,,,,,,,,,,,,,,,,,,,,,,,,,,,,,,,,,,,,,,,,,,,,,,,,,,,,,,,,,,,,,,,,,157.57308244500018,165.16524959399976,,,,,,,100721,1,3,2,3,1,1,2,0,60,2021_Oct_07_1139,listening_fmri,3.2.4,60.24855226936472,
0,parcelated_audio/14/14_19.ogg,,,,,,,,,0,0,0,0,0,0,0,0,0,0,0,0,,,,,,,,,,,,,0,0,0,0,0,18,18,18,,,,,,,,,,,,,,,,,,,,,,,,,,,,,,,,,,,,,,,,,,,,,,,,,,,,,,,,,,,,,,,,,,,,,,,,,,,,,,,,,,,,,,,,,,,,,,,,,,,,,,,,,165.16555062600037,168.02444239899978,,,,,,,100721,1,3,2,3,1,1,2,0,60,2021_Oct_07_1139,listening_fmri,3.2.4,60.24855226936472,
0,parcelated_audio/14/14_20.ogg,,,,,,,,,0,0,0,0,0,0,0,0,0,0,0,0,,,,,,,,,,,,,0,0,0,0,0,19,19,19,,,,,,,,,,,,,,,,,,,,,,,,,,,,,,,,,,,,,,,,,,,,,,,,,,,,,,,,,,,,,,,,,,,,,,,,,,,,,,,,,,,,,,,,,,,,,,,,,,,,,,,,,168.02483622700038,170.16752409699984,,,,,,,100721,1,3,2,3,1,1,2,0,60,2021_Oct_07_1139,listening_fmri,3.2.4,60.24855226936472,
0,parcelated_audio/14/14_21.ogg,,,,,,,,,0,0,0,0,0,0,0,0,0,0,0,0,,,,,,,,,,,,,0,0,0,0,0,20,20,20,,,,,,,,,,,,,,,,,,,,,,,,,,,,,,,,,,,,,,,,,,,,,,,,,,,,,,,,,,,,,,,,,,,,,,,,,,,,,,,,,,,,,,,,,,,,,,,,,,,,,,,,,170.16788547099986,179.7355014779996,,,,,,,100721,1,3,2,3,1,1,2,0,60,2021_Oct_07_1139,listening_fmri,3.2.4,60.24855226936472,
0,parcelated_audio/14/14_22.ogg,,,,,,,,,0,0,0,0,0,0,0,0,0,0,0,0,,,,,,,,,,,,,0,0,0,0,0,21,21,21,,,,,,,,,,,,,,,,,,,,,,,,,,,,,,,,,,,,,,,,,,,,,,,,,,,,,,,,,,,,,,,,,,,,,,,,,,,,,,,,,,,,,,,,,,,,,,,,,,,,,,,,,179.73616163299994,186.08461773,,,,,,,100721,1,3,2,3,1,1,2,0,60,2021_Oct_07_1139,listening_fmri,3.2.4,60.24855226936472,
0,parcelated_audio/14/14_23.ogg,,,,,,,,,0,0,0,0,0,0,0,0,0,0,0,0,,,,,,,,,,,,,0,0,0,0,0,22,22,22,,,,,,,,,,,,,,,,,,,,,,,,,,,,,,,,,,,,,,,,,,,,,,,,,,,,,,,,,,,,,,,,,,,,,,,,,,,,,,,,,,,,,,,,,,,,,,,,,,,,,,,,,186.08489192100024,191.14445385599993,,,,,,,100721,1,3,2,3,1,1,2,0,60,2021_Oct_07_1139,listening_fmri,3.2.4,60.24855226936472,
0,parcelated_audio/14/14_24.ogg,,,,,,,,,0,0,0,0,0,0,0,0,0,0,0,0,,,,,,,,,,,,,0,0,0,0,0,23,23,23,,,,,,,,,,,,,,,,,,,,,,,,,,,,,,,,,,,,,,,,,,,,,,,,,,,,,,,,,,,,,,,,,,,,,,,,,,,,,,,,,,,,,,,,,,,,,,,,,,,,,,,,,191.144741393,202.05909134000012,,,,,,,100721,1,3,2,3,1,1,2,0,60,2021_Oct_07_1139,listening_fmri,3.2.4,60.24855226936472,
0,parcelated_audio/14/14_25.ogg,,,,,,,,,0,0,0,0,0,0,0,0,0,0,0,0,,,,,,,,,,,,,0,0,0,0,0,24,24,24,,,,,,,,,,,,,,,,,,,,,,,,,,,,,,,,,,,,,,,,,,,,,,,,,,,,,,,,,,,,,,,,,,,,,,,,,,,,,,,,,,,,,,,,,,,,,,,,,,,,,,,,,202.05937261300005,208.7098221209999,,,,,,,100721,1,3,2,3,1,1,2,0,60,2021_Oct_07_1139,listening_fmri,3.2.4,60.24855226936472,
0,parcelated_audio/14/14_26.ogg,,,,,,,,,0,0,0,0,0,0,0,0,0,0,0,0,,,,,,,,,,,,,0,0,0,0,0,25,25,25,,,,,,,,,,,,,,,,,,,,,,,,,,,,,,,,,,,,,,,,,,,,,,,,,,,,,,,,,,,,,,,,,,,,,,,,,,,,,,,,,,,,,,,,,,,,,,,,,,,,,,,,,208.7101828140003,210.88616845199977,,,,,,,100721,1,3,2,3,1,1,2,0,60,2021_Oct_07_1139,listening_fmri,3.2.4,60.24855226936472,
0,parcelated_audio/14/14_27.ogg,,,,,,,,,0,0,0,0,0,0,0,0,0,0,0,0,,,,,,,,,,,,,0,0,0,0,0,26,26,26,,,,,,,,,,,,,,,,,,,,,,,,,,,,,,,,,,,,,,,,,,,,,,,,,,,,,,,,,,,,,,,,,,,,,,,,,,,,,,,,,,,,,,,,,,,,,,,,,,,,,,,,,210.88719820000006,216.90978294199977,,,,,,,100721,1,3,2,3,1,1,2,0,60,2021_Oct_07_1139,listening_fmri,3.2.4,60.24855226936472,
0,parcelated_audio/14/14_28.ogg,,,,,,,,,0,0,0,0,0,0,0,0,0,0,0,0,,,,,,,,,,,,,0,0,0,0,0,27,27,27,,,,,,,,,,,,,,,,,,,,,,,,,,,,,,,,,,,,,,,,,,,,,,,,,,,,,,,,,,,,,,,,,,,,,,,,,,,,,,,,,,,,,,,,,,,,,,,,,,,,,,,,,216.91013136000038,219.8791327959998,,,,,,,100721,1,3,2,3,1,1,2,0,60,2021_Oct_07_1139,listening_fmri,3.2.4,60.24855226936472,
0,parcelated_audio/14/14_29.ogg,,,,,,,,,0,0,0,0,0,0,0,0,0,0,0,0,,,,,,,,,,,,,0,0,0,0,0,28,28,28,,,,,,,,,,,,,,,,,,,,,,,,,,,,,,,,,,,,,,,,,,,,,,,,,,,,,,,,,,,,,,,,,,,,,,,,,,,,,,,,,,,,,,,,,,,,,,,,,,,,,,,,,219.87948683800005,222.24725321200003,,,,,,,100721,1,3,2,3,1,1,2,0,60,2021_Oct_07_1139,listening_fmri,3.2.4,60.24855226936472,
0,parcelated_audio/14/14_30.ogg,,,,,,,,,0,0,0,0,0,0,0,0,0,0,0,0,,,,,,,,,,,,,0,0,0,0,0,29,29,29,,,,,,,,,,,,,,,,,,,,,,,,,,,,,,,,,,,,,,,,,,,,,,,,,,,,,,,,,,,,,,,,,,,,,,,,,,,,,,,,,,,,,,,,,,,,,,,,,,,,,,,,,222.24766196099972,226.4965385510004,,,,,,,100721,1,3,2,3,1,1,2,0,60,2021_Oct_07_1139,listening_fmri,3.2.4,60.24855226936472,
0,parcelated_audio/14/14_31.ogg,,,,,,,,,0,0,0,0,0,0,0,0,0,0,0,0,,,,,,,,,,,,,0,0,0,0,0,30,30,30,,,,,,,,,,,,,,,,,,,,,,,,,,,,,,,,,,,,,,,,,,,,,,,,,,,,,,,,,,,,,,,,,,,,,,,,,,,,,,,,,,,,,,,,,,,,,,,,,,,,,,,,,226.49687225100024,233.75664824100022,,,,,,,100721,1,3,2,3,1,1,2,0,60,2021_Oct_07_1139,listening_fmri,3.2.4,60.24855226936472,
0,parcelated_audio/14/14_32.ogg,,,,,,,,,0,0,0,0,0,0,0,0,0,0,0,0,,,,,,,,,,,,,0,0,0,0,0,31,31,31,,,,,,,,,,,,,,,,,,,,,,,,,,,,,,,,,,,,,,,,,,,,,,,,,,,,,,,,,,,,,,,,,,,,,,,,,,,,,,,,,,,,,,,,,,,,,,,,,,,,,,,,,233.75700105299984,240.89919052499954,,,,,,,100721,1,3,2,3,1,1,2,0,60,2021_Oct_07_1139,listening_fmri,3.2.4,60.24855226936472,
0,parcelated_audio/14/14_33.ogg,,,,,,,,,0,0,0,0,0,0,0,0,0,0,0,0,,,,,,,,,,,,,0,0,0,0,0,32,32,32,,,,,,,,,,,,,,,,,,,,,,,,,,,,,,,,,,,,,,,,,,,,,,,,,,,,,,,,,,,,,,,,,,,,,,,,,,,,,,,,,,,,,,,,,,,,,,,,,,,,,,,,,240.90027110400024,247.45343417799995,,,,,,,100721,1,3,2,3,1,1,2,0,60,2021_Oct_07_1139,listening_fmri,3.2.4,60.24855226936472,
0,,,,,,,,,,0,0,0,0,0,0,0,0,0,0,0,0,,,,,,,,,,,,,0,0,0,0,,,,,,,,,,,,,,,,,,,,,,,,,,,,,,,,,,,,,,,,,,,,,,,,,,,,,,,,,,,,,,,,,,,,,,,,,,,,,,,,,,,,,,,,,,,,,,,,,,,,,,,,,,,,,,,,,,,,,100721,1,3,2,3,1,1,2,0,60,2021_Oct_07_1139,listening_fmri,3.2.4,60.24855226936472,
0,,,,,,,,,,0,0,0,0,0,0,0,0,0,0,0,0,,,,,,,,,,,,,,,,,,,,,,,,,,,,,,,,,,,,,,,,,,247.4538621290003,253.4464122950003,299.4289137550004,None,,,,,,,,,,,,,,,,,,,,,,,,,,,,,,,,,,,,,,,,,,,,,,,,,,,,,,,,,,,,,,,,,,,,,,,,,,,,,,,,,,305.4288641809999,None,305.4288641809999,None,,,100721,1,3,2,3,1,1,2,0,60,2021_Oct_07_1139,listening_fmri,3.2.4,60.24855226936472,
0,,,,,,,,,,0,0,0,0,0,0,0,0,,,,,,,,,,,,,,,,,,,,,,,,,,,,,,,,,,,,,,,,,,,,,,,,,,,,,,,,,,,,,,,,,,,,,,,,,,,,,,,,,,,,,,,,,,,,,,,,,,,,,,,,,,,,,,,,,,,,,,,,,,,,,,,,,,,,,,,,,100721,1,3,2,3,1,1,2,0,60,2021_Oct_07_1139,listening_fmri,3.2.4,60.24855226936472,
1,parcelated_audio/32/32_1.ogg,,,,,,,,,0,0,0,0,0,1,1,1,0,0,0,0,,,,,,,,,,,,,0,0,0,0,0,0,0,0,,,,,,,,,,,,,,,,,,,,,,,,,,306.42881716600004,None,306.42881716600004,None,2,1.841254518999449,306.42881716600004,None,306.42881716600004,None,,,,,,,,,,,,,,,,,,,,,,,,,,,,,,,,,,,,,,,,,,,,,,,,,,,,,,,,,,,,,,308.29576246800025,None,2,1.4034371910001937,308.29576246800025,None,257.75370217099953,260.7627588920004,260.7692404879999,272.11553080199974,,,,,,,100721,1,3,2,3,1,1,2,0,60,2021_Oct_07_1139,listening_fmri,3.2.4,60.24855226936472,
1,parcelated_audio/32/32_2.ogg,,,,,,,,,0,0,0,0,0,1,1,1,0,0,0,0,,,,,,,,,,,,,0,0,0,0,0,1,1,1,,,,,,,,,,,,,,,,,,,,,,,,,,,,,,,,,,,,,,,,,,,,,,,,,,,,,,,,,,,,,,,,,,,,,,,,,,,,,,,,,,,,,,,,,,,,,,,,,,,,,,,,,272.11588019600003,280.42986877099975,,,,,,,100721,1,3,2,3,1,1,2,0,60,2021_Oct_07_1139,listening_fmri,3.2.4,60.24855226936472,
1,parcelated_audio/32/32_3.ogg,,,,,,,,,0,0,0,0,0,1,1,1,0,0,0,0,,,,,,,,,,,,,0,0,0,0,0,2,2,2,,,,,,,,,,,,,,,,,,,,,,,,,,,,,,,,,,,,,,,,,,,,,,,,,,,,,,,,,,,,,,,,,,,,,,,,,,,,,,,,,,,,,,,,,,,,,,,,,,,,,,,,,280.43031641699963,286.01132270200014,,,,,,,100721,1,3,2,3,1,1,2,0,60,2021_Oct_07_1139,listening_fmri,3.2.4,60.24855226936472,
1,parcelated_audio/32/32_4.ogg,,,,,,,,,0,0,0,0,0,1,1,1,0,0,0,0,,,,,,,,,,,,,0,0,0,0,0,3,3,3,,,,,,,,,,,,,,,,,,,,,,,,,,,,,,,,,,,,,,,,,,,,,,,,,,,,,,,,,,,,,,,,,,,,,,,,,,,,,,,,,,,,,,,,,,,,,,,,,,,,,,,,,286.01173821700013,292.69937069000025,,,,,,,100721,1,3,2,3,1,1,2,0,60,2021_Oct_07_1139,listening_fmri,3.2.4,60.24855226936472,
1,parcelated_audio/32/32_5.ogg,,,,,,,,,0,0,0,0,0,1,1,1,0,0,0,0,,,,,,,,,,,,,0,0,0,0,0,4,4,4,,,,,,,,,,,,,,,,,,,,,,,,,,,,,,,,,,,,,,,,,,,,,,,,,,,,,,,,,,,,,,,,,,,,,,,,,,,,,,,,,,,,,,,,,,,,,,,,,,,,,,,,,292.6998024679997,304.3837489810003,,,,,,,100721,1,3,2,3,1,1,2,0,60,2021_Oct_07_1139,listening_fmri,3.2.4,60.24855226936472,
1,parcelated_audio/32/32_6.ogg,,,,,,,,,0,0,0,0,0,1,1,1,0,0,0,0,,,,,,,,,,,,,0,0,0,0,0,5,5,5,,,,,,,,,,,,,,,,,,,,,,,,,,,,,,,,,,,,,,,,,,,,,,,,,,,,,,,,,,,,,,,,,,,,,,,,,,,,,,,,,,,,,,,,,,,,,,,,,,,,,,,,,304.38410133599973,312.86684833900017,,,,,,,100721,1,3,2,3,1,1,2,0,60,2021_Oct_07_1139,listening_fmri,3.2.4,60.24855226936472,
1,parcelated_audio/32/32_7.ogg,,,,,,,,,0,0,0,0,0,1,1,1,0,0,0,0,,,,,,,,,,,,,0,0,0,0,0,6,6,6,,,,,,,,,,,,,,,,,,,,,,,,,,,,,,,,,,,,,,,,,,,,,,,,,,,,,,,,,,,,,,,,,,,,,,,,,,,,,,,,,,,,,,,,,,,,,,,,,,,,,,,,,312.86719943200023,316.3457363010002,,,,,,,100721,1,3,2,3,1,1,2,0,60,2021_Oct_07_1139,listening_fmri,3.2.4,60.24855226936472,
1,parcelated_audio/32/32_8.ogg,,,,,,,,,0,0,0,0,0,1,1,1,0,0,0,0,,,,,,,,,,,,,0,0,0,0,0,7,7,7,,,,,,,,,,,,,,,,,,,,,,,,,,,,,,,,,,,,,,,,,,,,,,,,,,,,,,,,,,,,,,,,,,,,,,,,,,,,,,,,,,,,,,,,,,,,,,,,,,,,,,,,,316.3460799880004,320.8113546710001,,,,,,,100721,1,3,2,3,1,1,2,0,60,2021_Oct_07_1139,listening_fmri,3.2.4,60.24855226936472,
1,parcelated_audio/32/32_9.ogg,,,,,,,,,0,0,0,0,0,1,1,1,0,0,0,0,,,,,,,,,,,,,0,0,0,0,0,8,8,8,,,,,,,,,,,,,,,,,,,,,,,,,,,,,,,,,,,,,,,,,,,,,,,,,,,,,,,,,,,,,,,,,,,,,,,,,,,,,,,,,,,,,,,,,,,,,,,,,,,,,,,,,320.8117207690002,329.4914552700002,,,,,,,100721,1,3,2,3,1,1,2,0,60,2021_Oct_07_1139,listening_fmri,3.2.4,60.24855226936472,
1,parcelated_audio/32/32_10.ogg,,,,,,,,,0,0,0,0,0,1,1,1,0,0,0,0,,,,,,,,,,,,,0,0,0,0,0,9,9,9,,,,,,,,,,,,,,,,,,,,,,,,,,,,,,,,,,,,,,,,,,,,,,,,,,,,,,,,,,,,,,,,,,,,,,,,,,,,,,,,,,,,,,,,,,,,,,,,,,,,,,,,,329.4917094350003,334.16581232299995,,,,,,,100721,1,3,2,3,1,1,2,0,60,2021_Oct_07_1139,listening_fmri,3.2.4,60.24855226936472,
1,parcelated_audio/32/32_11.ogg,,,,,,,,,0,0,0,0,0,1,1,1,0,0,0,0,,,,,,,,,,,,,0,0,0,0,0,10,10,10,,,,,,,,,,,,,,,,,,,,,,,,,,,,,,,,,,,,,,,,,,,,,,,,,,,,,,,,,,,,,,,,,,,,,,,,,,,,,,,,,,,,,,,,,,,,,,,,,,,,,,,,,334.16608825599997,340.24207640999975,,,,,,,100721,1,3,2,3,1,1,2,0,60,2021_Oct_07_1139,listening_fmri,3.2.4,60.24855226936472,
1,parcelated_audio/32/32_12.ogg,,,,,,,,,0,0,0,0,0,1,1,1,0,0,0,0,,,,,,,,,,,,,0,0,0,0,0,11,11,11,,,,,,,,,,,,,,,,,,,,,,,,,,,,,,,,,,,,,,,,,,,,,,,,,,,,,,,,,,,,,,,,,,,,,,,,,,,,,,,,,,,,,,,,,,,,,,,,,,,,,,,,,340.2424417100001,349.6831031270003,,,,,,,100721,1,3,2,3,1,1,2,0,60,2021_Oct_07_1139,listening_fmri,3.2.4,60.24855226936472,
1,parcelated_audio/32/32_13.ogg,,,,,,,,,0,0,0,0,0,1,1,1,0,0,0,0,,,,,,,,,,,,,0,0,0,0,0,12,12,12,,,,,,,,,,,,,,,,,,,,,,,,,,,,,,,,,,,,,,,,,,,,,,,,,,,,,,,,,,,,,,,,,,,,,,,,,,,,,,,,,,,,,,,,,,,,,,,,,,,,,,,,,349.6834686579996,359.28840625199973,,,,,,,100721,1,3,2,3,1,1,2,0,60,2021_Oct_07_1139,listening_fmri,3.2.4,60.24855226936472,
1,parcelated_audio/32/32_14.ogg,,,,,,,,,0,0,0,0,0,1,1,1,0,0,0,0,,,,,,,,,,,,,0,0,0,0,0,13,13,13,,,,,,,,,,,,,,,,,,,,,,,,,,,,,,,,,,,,,,,,,,,,,,,,,,,,,,,,,,,,,,,,,,,,,,,,,,,,,,,,,,,,,,,,,,,,,,,,,,,,,,,,,359.2886659220003,367.3633344339996,,,,,,,100721,1,3,2,3,1,1,2,0,60,2021_Oct_07_1139,listening_fmri,3.2.4,60.24855226936472,
1,parcelated_audio/32/32_15.ogg,,,,,,,,,0,0,0,0,0,1,1,1,0,0,0,0,,,,,,,,,,,,,0,0,0,0,0,14,14,14,,,,,,,,,,,,,,,,,,,,,,,,,,,,,,,,,,,,,,,,,,,,,,,,,,,,,,,,,,,,,,,,,,,,,,,,,,,,,,,,,,,,,,,,,,,,,,,,,,,,,,,,,367.36359622300006,374.2505443600003,,,,,,,100721,1,3,2,3,1,1,2,0,60,2021_Oct_07_1139,listening_fmri,3.2.4,60.24855226936472,
1,parcelated_audio/32/32_16.ogg,,,,,,,,,0,0,0,0,0,1,1,1,0,0,0,0,,,,,,,,,,,,,0,0,0,0,0,15,15,15,,,,,,,,,,,,,,,,,,,,,,,,,,,,,,,,,,,,,,,,,,,,,,,,,,,,,,,,,,,,,,,,,,,,,,,,,,,,,,,,,,,,,,,,,,,,,,,,,,,,,,,,,374.25085404499987,381.8589656240001,,,,,,,100721,1,3,2,3,1,1,2,0,60,2021_Oct_07_1139,listening_fmri,3.2.4,60.24855226936472,
1,parcelated_audio/32/32_17.ogg,,,,,,,,,0,0,0,0,0,1,1,1,0,0,0,0,,,,,,,,,,,,,0,0,0,0,0,16,16,16,,,,,,,,,,,,,,,,,,,,,,,,,,,,,,,,,,,,,,,,,,,,,,,,,,,,,,,,,,,,,,,,,,,,,,,,,,,,,,,,,,,,,,,,,,,,,,,,,,,,,,,,,381.8593468959998,390.16641324600005,,,,,,,100721,1,3,2,3,1,1,2,0,60,2021_Oct_07_1139,listening_fmri,3.2.4,60.24855226936472,
1,parcelated_audio/32/32_18.ogg,,,,,,,,,0,0,0,0,0,1,1,1,0,0,0,0,,,,,,,,,,,,,0,0,0,0,0,17,17,17,,,,,,,,,,,,,,,,,,,,,,,,,,,,,,,,,,,,,,,,,,,,,,,,,,,,,,,,,,,,,,,,,,,,,,,,,,,,,,,,,,,,,,,,,,,,,,,,,,,,,,,,,390.16685136399974,394.47542022000016,,,,,,,100721,1,3,2,3,1,1,2,0,60,2021_Oct_07_1139,listening_fmri,3.2.4,60.24855226936472,
1,parcelated_audio/32/32_19.ogg,,,,,,,,,0,0,0,0,0,1,1,1,0,0,0,0,,,,,,,,,,,,,0,0,0,0,0,18,18,18,,,,,,,,,,,,,,,,,,,,,,,,,,,,,,,,,,,,,,,,,,,,,,,,,,,,,,,,,,,,,,,,,,,,,,,,,,,,,,,,,,,,,,,,,,,,,,,,,,,,,,,,,394.47577846900003,402.52468374599994,,,,,,,100721,1,3,2,3,1,1,2,0,60,2021_Oct_07_1139,listening_fmri,3.2.4,60.24855226936472,
1,parcelated_audio/32/32_20.ogg,,,,,,,,,0,0,0,0,0,1,1,1,0,0,0,0,,,,,,,,,,,,,0,0,0,0,0,19,19,19,,,,,,,,,,,,,,,,,,,,,,,,,,,,,,,,,,,,,,,,,,,,,,,,,,,,,,,,,,,,,,,,,,,,,,,,,,,,,,,,,,,,,,,,,,,,,,,,,,,,,,,,,402.5250410560002,413.51002674200026,,,,,,,100721,1,3,2,3,1,1,2,0,60,2021_Oct_07_1139,listening_fmri,3.2.4,60.24855226936472,
1,parcelated_audio/32/32_21.ogg,,,,,,,,,0,0,0,0,0,1,1,1,0,0,0,0,,,,,,,,,,,,,0,0,0,0,0,20,20,20,,,,,,,,,,,,,,,,,,,,,,,,,,,,,,,,,,,,,,,,,,,,,,,,,,,,,,,,,,,,,,,,,,,,,,,,,,,,,,,,,,,,,,,,,,,,,,,,,,,,,,,,,413.51048823400015,422.3647450850003,,,,,,,100721,1,3,2,3,1,1,2,0,60,2021_Oct_07_1139,listening_fmri,3.2.4,60.24855226936472,
1,parcelated_audio/32/32_22.ogg,,,,,,,,,0,0,0,0,0,1,1,1,0,0,0,0,,,,,,,,,,,,,0,0,0,0,0,21,21,21,,,,,,,,,,,,,,,,,,,,,,,,,,,,,,,,,,,,,,,,,,,,,,,,,,,,,,,,,,,,,,,,,,,,,,,,,,,,,,,,,,,,,,,,,,,,,,,,,,,,,,,,,422.36509367799954,436.3998313350003,,,,,,,100721,1,3,2,3,1,1,2,0,60,2021_Oct_07_1139,listening_fmri,3.2.4,60.24855226936472,
1,parcelated_audio/32/32_23.ogg,,,,,,,,,0,0,0,0,0,1,1,1,0,0,0,0,,,,,,,,,,,,,0,0,0,0,0,22,22,22,,,,,,,,,,,,,,,,,,,,,,,,,,,,,,,,,,,,,,,,,,,,,,,,,,,,,,,,,,,,,,,,,,,,,,,,,,,,,,,,,,,,,,,,,,,,,,,,,,,,,,,,,436.40017975699993,445.4306627240003,,,,,,,100721,1,3,2,3,1,1,2,0,60,2021_Oct_07_1139,listening_fmri,3.2.4,60.24855226936472,
1,parcelated_audio/32/32_24.ogg,,,,,,,,,0,0,0,0,0,1,1,1,0,0,0,0,,,,,,,,,,,,,0,0,0,0,0,23,23,23,,,,,,,,,,,,,,,,,,,,,,,,,,,,,,,,,,,,,,,,,,,,,,,,,,,,,,,,,,,,,,,,,,,,,,,,,,,,,,,,,,,,,,,,,,,,,,,,,,,,,,,,,445.4309394640004,456.7244087019999,,,,,,,100721,1,3,2,3,1,1,2,0,60,2021_Oct_07_1139,listening_fmri,3.2.4,60.24855226936472,
1,parcelated_audio/32/32_25.ogg,,,,,,,,,0,0,0,0,0,1,1,1,0,0,0,0,,,,,,,,,,,,,0,0,0,0,0,24,24,24,,,,,,,,,,,,,,,,,,,,,,,,,,,,,,,,,,,,,,,,,,,,,,,,,,,,,,,,,,,,,,,,,,,,,,,,,,,,,,,,,,,,,,,,,,,,,,,,,,,,,,,,,456.7246993079998,462.79386106400034,,,,,,,100721,1,3,2,3,1,1,2,0,60,2021_Oct_07_1139,listening_fmri,3.2.4,60.24855226936472,
1,parcelated_audio/32/32_26.ogg,,,,,,,,,0,0,0,0,0,1,1,1,0,0,0,0,,,,,,,,,,,,,0,0,0,0,0,25,25,25,,,,,,,,,,,,,,,,,,,,,,,,,,,,,,,,,,,,,,,,,,,,,,,,,,,,,,,,,,,,,,,,,,,,,,,,,,,,,,,,,,,,,,,,,,,,,,,,,,,,,,,,,462.7941102329996,476.14719145100025,,,,,,,100721,1,3,2,3,1,1,2,0,60,2021_Oct_07_1139,listening_fmri,3.2.4,60.24855226936472,
1,parcelated_audio/32/32_27.ogg,,,,,,,,,0,0,0,0,0,1,1,1,0,0,0,0,,,,,,,,,,,,,0,0,0,0,0,26,26,26,,,,,,,,,,,,,,,,,,,,,,,,,,,,,,,,,,,,,,,,,,,,,,,,,,,,,,,,,,,,,,,,,,,,,,,,,,,,,,,,,,,,,,,,,,,,,,,,,,,,,,,,,476.14815020700007,483.1068753059999,,,,,,,100721,1,3,2,3,1,1,2,0,60,2021_Oct_07_1139,listening_fmri,3.2.4,60.24855226936472,
1,parcelated_audio/32/32_28.ogg,,,,,,,,,0,0,0,0,0,1,1,1,0,0,0,0,,,,,,,,,,,,,0,0,0,0,0,27,27,27,,,,,,,,,,,,,,,,,,,,,,,,,,,,,,,,,,,,,,,,,,,,,,,,,,,,,,,,,,,,,,,,,,,,,,,,,,,,,,,,,,,,,,,,,,,,,,,,,,,,,,,,,483.10728027799996,489.79778275900026,,,,,,,100721,1,3,2,3,1,1,2,0,60,2021_Oct_07_1139,listening_fmri,3.2.4,60.24855226936472,
1,parcelated_audio/32/32_29.ogg,,,,,,,,,0,0,0,0,0,1,1,1,0,0,0,0,,,,,,,,,,,,,0,0,0,0,0,28,28,28,,,,,,,,,,,,,,,,,,,,,,,,,,,,,,,,,,,,,,,,,,,,,,,,,,,,,,,,,,,,,,,,,,,,,,,,,,,,,,,,,,,,,,,,,,,,,,,,,,,,,,,,,489.8007233879998,492.45911358800004,,,,,,,100721,1,3,2,3,1,1,2,0,60,2021_Oct_07_1139,listening_fmri,3.2.4,60.24855226936472,
1,parcelated_audio/32/32_30.ogg,,,,,,,,,0,0,0,0,0,1,1,1,0,0,0,0,,,,,,,,,,,,,0,0,0,0,0,29,29,29,,,,,,,,,,,,,,,,,,,,,,,,,,,,,,,,,,,,,,,,,,,,,,,,,,,,,,,,,,,,,,,,,,,,,,,,,,,,,,,,,,,,,,,,,,,,,,,,,,,,,,,,,492.45946596500016,499.51244567699996,,,,,,,100721,1,3,2,3,1,1,2,0,60,2021_Oct_07_1139,listening_fmri,3.2.4,60.24855226936472,
1,parcelated_audio/32/32_31.ogg,,,,,,,,,0,0,0,0,0,1,1,1,0,0,0,0,,,,,,,,,,,,,0,0,0,0,0,30,30,30,,,,,,,,,,,,,,,,,,,,,,,,,,,,,,,,,,,,,,,,,,,,,,,,,,,,,,,,,,,,,,,,,,,,,,,,,,,,,,,,,,,,,,,,,,,,,,,,,,,,,,,,,499.5127638470003,505.84247813799993,,,,,,,100721,1,3,2,3,1,1,2,0,60,2021_Oct_07_1139,listening_fmri,3.2.4,60.24855226936472,
1,parcelated_audio/32/32_32.ogg,,,,,,,,,0,0,0,0,0,1,1,1,0,0,0,0,,,,,,,,,,,,,0,0,0,0,0,31,31,31,,,,,,,,,,,,,,,,,,,,,,,,,,,,,,,,,,,,,,,,,,,,,,,,,,,,,,,,,,,,,,,,,,,,,,,,,,,,,,,,,,,,,,,,,,,,,,,,,,,,,,,,,505.8428278190004,515.549790045,,,,,,,100721,1,3,2,3,1,1,2,0,60,2021_Oct_07_1139,listening_fmri,3.2.4,60.24855226936472,
1,parcelated_audio/32/32_33.ogg,,,,,,,,,0,0,0,0,0,1,1,1,0,0,0,0,,,,,,,,,,,,,0,0,0,0,0,32,32,32,,,,,,,,,,,,,,,,,,,,,,,,,,,,,,,,,,,,,,,,,,,,,,,,,,,,,,,,,,,,,,,,,,,,,,,,,,,,,,,,,,,,,,,,,,,,,,,,,,,,,,,,,515.5502028689998,521.309836167,,,,,,,100721,1,3,2,3,1,1,2,0,60,2021_Oct_07_1139,listening_fmri,3.2.4,60.24855226936472,
1,,,,,,,,,,0,0,0,0,0,1,1,1,0,0,0,0,,,,,,,,,,,,,0,0,0,0,,,,,,,,,,,,,,,,,,,,,,,,,,,,,,,,,,,,,,,,,,,,,,,,,,,,,,,,,,,,,,,,,,,,,,,,,,,,,,,,,,,,,,,,,,,,,,,,,,,,,,,,,,,,,,,,,,,,,100721,1,3,2,3,1,1,2,0,60,2021_Oct_07_1139,listening_fmri,3.2.4,60.24855226936472,
1,,,,,,,,,,0,0,0,0,0,1,1,1,0,0,0,0,,,,,,,,,,,,,,,,,,,,,,,,,,,,,,,,,,,,,,,,,,521.31032228,527.3128502760001,573.2922011250002,None,,,,,,,,,,,,,,,,,,,,,,,,,,,,,,,,,,,,,,,,,,,,,,,,,,,,,,,,,,,,,,,,,,,,,,,,,,,,,,,,,,579.2954162300002,None,579.2954162300002,None,,,100721,1,3,2,3,1,1,2,0,60,2021_Oct_07_1139,listening_fmri,3.2.4,60.24855226936472,
1,,,,,,,,,,0,0,0,0,0,1,1,1,,,,,,,,,,,,,,,,,,,,,,,,,,,,,,,,,,,,,,,,,,,,,,,,,,,,,,,,,,,,,,,,,,,,,,,,,,,,,,,,,,,,,,,,,,,,,,,,,,,,,,,,,,,,,,,,,,,,,,,,,,,,,,,,,,,,,,,,,100721,1,3,2,3,1,1,2,0,60,2021_Oct_07_1139,listening_fmri,3.2.4,60.24855226936472,
2,,,,,,,,,,0,0,0,0,0,2,2,2,0,0,0,0,0,0,0,0,0,0,0,0,,,,,,,,,,,,,,,,,,,,,,,,,,,,,,,,,,,,,,580.3086372400003,None,580.3086372400003,None,2,1.3975727509996432,580.3086372400003,None,580.3086372400003,None,581.7286336300003,None,2,1.3984558929996638,581.7286336300003,None,581.7286336300003,None,583.1586294610006,None,583.1586294610006,None,583.1586294610006,None,2,2.0445921460004683,583.1586294610006,None,585.2286456259999,None,2,2.4315541349997147,585.2286456259999,None,585.2286456259999,None,587.7424809700005,None,587.7424809700005,None,587.7424809700005,None,587.7424809700005,None,587.7424809700005,None,587.7424809700005,None,587.7424809700005,None,None,587.7424809700005,None,,,,,,,,,,,,,,,,,,,,,,,,,,,,,,,,,,,100721,1,3,2,3,1,1,2,0,60,2021_Oct_07_1139,listening_fmri,3.2.4,60.24855226936472,
2,,,,,,,,,,0,0,0,0,0,2,2,2,0,0,0,0,0,0,0,0,1,0,1,0,,,,,,,,,,,,,,,,,,,,,,,,,,,,,,,,,,,,,,,,,,,,,,,,,,,,,,,,598.1418342200004,None,598.1418342200004,None,598.1418342200004,None,1,1.6683863700000074,598.1418342200004,None,599.8289231640001,None,1,1.143349751999267,599.8289231640001,None,599.8289231640001,None,601.0919874540004,None,601.0919874540004,None,601.0919874540004,None,601.0919874540004,None,601.0919874540004,None,601.0919874540004,None,601.0919874540004,None,None,601.0919874540004,None,,,,,,,,,,,,,,,,,,,,,,,,,,,,,,,,,,,100721,1,3,2,3,1,1,2,0,60,2021_Oct_07_1139,listening_fmri,3.2.4,60.24855226936472,
2,,,,,,,,,,0,0,0,0,0,2,2,2,0,0,0,0,0,0,0,0,2,0,2,0,,,,,,,,,,,,,,,,,,,,,,,,,,,,,,,,,,,,,,,,,,,,,,,,,,,,,,,,620.5746728330005,None,620.5746728330005,None,620.5746728330005,None,1,1.4155902889997378,620.5746728330005,None,622.0121157600006,None,1,0.9921539650003979,622.0121157600006,None,622.0121157600006,None,623.1093901479999,None,623.1093901479999,None,623.1093901479999,None,623.1093901479999,None,623.1093901479999,None,623.1093901479999,None,623.1093901479999,None,None,623.1093901479999,None,,,,,,,,,,,,,,,,,,,,,,,,,,,,,,,,,,,100721,1,3,2,3,1,1,2,0,60,2021_Oct_07_1139,listening_fmri,3.2.4,60.24855226936472,
2,,,,,,,,,,0,0,0,0,0,2,2,2,0,0,0,0,0,0,0,0,,,,,,,,,,,,,,,,,,,,,,,,,,,,,,,,,,,,,,,,,,,,,,,,,,,,,,,,,,,,,,,,,,,,,,,,,,,,,,,,,,,,,,,,,,,,,,,648.9579598070004,None,1,4.057251381999777,648.9579598070004,None,648.9579598070004,None,653.0584217300002,None,653.0584217300002,None,653.0584217300002,None,1,1.14671393899971,653.0584217300002,None,,,,,,,,,,,,,,,,,100721,1,3,2,3,1,1,2,0,60,2021_Oct_07_1139,listening_fmri,3.2.4,60.24855226936472,
2,parcelated_audio/34/34_1.ogg,,,,,,,,,0,0,0,0,0,2,2,2,0,0,0,0,,,,,,,,,,,,,0,0,0,0,0,0,0,0,,,,,,,,,,,,,,,,,,,,,,,,,,,,,,,,,,,,,,,,,,,,,,,,,,,,,,,,,,,,,,,,,,,,,,,,,,,,,,,,,,,,,,,,,,,,,,,,,654.2416716030002,None,1,2.6194190920004985,654.2416716030002,None,604.903680206,607.9123831899997,607.9315789499997,616.630582967,,,,,,,100721,1,3,2,3,1,1,2,0,60,2021_Oct_07_1139,listening_fmri,3.2.4,60.24855226936472,
2,parcelated_audio/34/34_2.ogg,,,,,,,,,0,0,0,0,0,2,2,2,0,0,0,0,,,,,,,,,,,,,0,0,0,0,0,1,1,1,,,,,,,,,,,,,,,,,,,,,,,,,,,,,,,,,,,,,,,,,,,,,,,,,,,,,,,,,,,,,,,,,,,,,,,,,,,,,,,,,,,,,,,,,,,,,,,,,,,,,,,,,616.6314476959997,621.1898659959998,,,,,,,100721,1,3,2,3,1,1,2,0,60,2021_Oct_07_1139,listening_fmri,3.2.4,60.24855226936472,
2,parcelated_audio/34/34_3.ogg,,,,,,,,,0,0,0,0,0,2,2,2,0,0,0,0,,,,,,,,,,,,,0,0,0,0,0,2,2,2,,,,,,,,,,,,,,,,,,,,,,,,,,,,,,,,,,,,,,,,,,,,,,,,,,,,,,,,,,,,,,,,,,,,,,,,,,,,,,,,,,,,,,,,,,,,,,,,,,,,,,,,,621.1902316100004,625.8394413529995,,,,,,,100721,1,3,2,3,1,1,2,0,60,2021_Oct_07_1139,listening_fmri,3.2.4,60.24855226936472,
2,parcelated_audio/34/34_4.ogg,,,,,,,,,0,0,0,0,0,2,2,2,0,0,0,0,,,,,,,,,,,,,0,0,0,0,0,3,3,3,,,,,,,,,,,,,,,,,,,,,,,,,,,,,,,,,,,,,,,,,,,,,,,,,,,,,,,,,,,,,,,,,,,,,,,,,,,,,,,,,,,,,,,,,,,,,,,,,,,,,,,,,625.8398003820002,635.4514925359999,,,,,,,100721,1,3,2,3,1,1,2,0,60,2021_Oct_07_1139,listening_fmri,3.2.4,60.24855226936472,
2,parcelated_audio/34/34_5.ogg,,,,,,,,,0,0,0,0,0,2,2,2,0,0,0,0,,,,,,,,,,,,,0,0,0,0,0,4,4,4,,,,,,,,,,,,,,,,,,,,,,,,,,,,,,,,,,,,,,,,,,,,,,,,,,,,,,,,,,,,,,,,,,,,,,,,,,,,,,,,,,,,,,,,,,,,,,,,,,,,,,,,,635.4518459760002,645.8745600310003,,,,,,,100721,1,3,2,3,1,1,2,0,60,2021_Oct_07_1139,listening_fmri,3.2.4,60.24855226936472,
2,parcelated_audio/34/34_6.ogg,,,,,,,,,0,0,0,0,0,2,2,2,0,0,0,0,,,,,,,,,,,,,0,0,0,0,0,5,5,5,,,,,,,,,,,,,,,,,,,,,,,,,,,,,,,,,,,,,,,,,,,,,,,,,,,,,,,,,,,,,,,,,,,,,,,,,,,,,,,,,,,,,,,,,,,,,,,,,,,,,,,,,645.8749246819998,654.584543295,,,,,,,100721,1,3,2,3,1,1,2,0,60,2021_Oct_07_1139,listening_fmri,3.2.4,60.24855226936472,
2,parcelated_audio/34/34_7.ogg,,,,,,,,,0,0,0,0,0,2,2,2,0,0,0,0,,,,,,,,,,,,,0,0,0,0,0,6,6,6,,,,,,,,,,,,,,,,,,,,,,,,,,,,,,,,,,,,,,,,,,,,,,,,,,,,,,,,,,,,,,,,,,,,,,,,,,,,,,,,,,,,,,,,,,,,,,,,,,,,,,,,,654.5848937520004,660.5766986839999,,,,,,,100721,1,3,2,3,1,1,2,0,60,2021_Oct_07_1139,listening_fmri,3.2.4,60.24855226936472,
2,parcelated_audio/34/34_8.ogg,,,,,,,,,0,0,0,0,0,2,2,2,0,0,0,0,,,,,,,,,,,,,0,0,0,0,0,7,7,7,,,,,,,,,,,,,,,,,,,,,,,,,,,,,,,,,,,,,,,,,,,,,,,,,,,,,,,,,,,,,,,,,,,,,,,,,,,,,,,,,,,,,,,,,,,,,,,,,,,,,,,,,660.5770448000003,668.5455901570003,,,,,,,100721,1,3,2,3,1,1,2,0,60,2021_Oct_07_1139,listening_fmri,3.2.4,60.24855226936472,
2,parcelated_audio/34/34_9.ogg,,,,,,,,,0,0,0,0,0,2,2,2,0,0,0,0,,,,,,,,,,,,,0,0,0,0,0,8,8,8,,,,,,,,,,,,,,,,,,,,,,,,,,,,,,,,,,,,,,,,,,,,,,,,,,,,,,,,,,,,,,,,,,,,,,,,,,,,,,,,,,,,,,,,,,,,,,,,,,,,,,,,,668.5459664609998,673.3414284090004,,,,,,,100721,1,3,2,3,1,1,2,0,60,2021_Oct_07_1139,listening_fmri,3.2.4,60.24855226936472,
2,parcelated_audio/34/34_10.ogg,,,,,,,,,0,0,0,0,0,2,2,2,0,0,0,0,,,,,,,,,,,,,0,0,0,0,0,9,9,9,,,,,,,,,,,,,,,,,,,,,,,,,,,,,,,,,,,,,,,,,,,,,,,,,,,,,,,,,,,,,,,,,,,,,,,,,,,,,,,,,,,,,,,,,,,,,,,,,,,,,,,,,673.3418831979998,680.4538235729997,,,,,,,100721,1,3,2,3,1,1,2,0,60,2021_Oct_07_1139,listening_fmri,3.2.4,60.24855226936472,
2,parcelated_audio/34/34_11.ogg,,,,,,,,,0,0,0,0,0,2,2,2,0,0,0,0,,,,,,,,,,,,,0,0,0,0,0,10,10,10,,,,,,,,,,,,,,,,,,,,,,,,,,,,,,,,,,,,,,,,,,,,,,,,,,,,,,,,,,,,,,,,,,,,,,,,,,,,,,,,,,,,,,,,,,,,,,,,,,,,,,,,,680.4541754210004,683.8925942180003,,,,,,,100721,1,3,2,3,1,1,2,0,60,2021_Oct_07_1139,listening_fmri,3.2.4,60.24855226936472,
2,parcelated_audio/34/34_12.ogg,,,,,,,,,0,0,0,0,0,2,2,2,0,0,0,0,,,,,,,,,,,,,0,0,0,0,0,11,11,11,,,,,,,,,,,,,,,,,,,,,,,,,,,,,,,,,,,,,,,,,,,,,,,,,,,,,,,,,,,,,,,,,,,,,,,,,,,,,,,,,,,,,,,,,,,,,,,,,,,,,,,,,683.892945826,692.064451149,,,,,,,100721,1,3,2,3,1,1,2,0,60,2021_Oct_07_1139,listening_fmri,3.2.4,60.24855226936472,
2,parcelated_audio/34/34_13.ogg,,,,,,,,,0,0,0,0,0,2,2,2,0,0,0,0,,,,,,,,,,,,,0,0,0,0,0,12,12,12,,,,,,,,,,,,,,,,,,,,,,,,,,,,,,,,,,,,,,,,,,,,,,,,,,,,,,,,,,,,,,,,,,,,,,,,,,,,,,,,,,,,,,,,,,,,,,,,,,,,,,,,,692.0648638149996,695.9552144629997,,,,,,,100721,1,3,2,3,1,1,2,0,60,2021_Oct_07_1139,listening_fmri,3.2.4,60.24855226936472,
2,parcelated_audio/34/34_14.ogg,,,,,,,,,0,0,0,0,0,2,2,2,0,0,0,0,,,,,,,,,,,,,0,0,0,0,0,13,13,13,,,,,,,,,,,,,,,,,,,,,,,,,,,,,,,,,,,,,,,,,,,,,,,,,,,,,,,,,,,,,,,,,,,,,,,,,,,,,,,,,,,,,,,,,,,,,,,,,,,,,,,,,695.955835666,700.6015699469999,,,,,,,100721,1,3,2,3,1,1,2,0,60,2021_Oct_07_1139,listening_fmri,3.2.4,60.24855226936472,
2,parcelated_audio/34/34_15.ogg,,,,,,,,,0,0,0,0,0,2,2,2,0,0,0,0,,,,,,,,,,,,,0,0,0,0,0,14,14,14,,,,,,,,,,,,,,,,,,,,,,,,,,,,,,,,,,,,,,,,,,,,,,,,,,,,,,,,,,,,,,,,,,,,,,,,,,,,,,,,,,,,,,,,,,,,,,,,,,,,,,,,,700.6018798180003,704.7940901069996,,,,,,,100721,1,3,2,3,1,1,2,0,60,2021_Oct_07_1139,listening_fmri,3.2.4,60.24855226936472,
2,parcelated_audio/34/34_16.ogg,,,,,,,,,0,0,0,0,0,2,2,2,0,0,0,0,,,,,,,,,,,,,0,0,0,0,0,15,15,15,,,,,,,,,,,,,,,,,,,,,,,,,,,,,,,,,,,,,,,,,,,,,,,,,,,,,,,,,,,,,,,,,,,,,,,,,,,,,,,,,,,,,,,,,,,,,,,,,,,,,,,,,704.7949794639999,717.7952116449997,,,,,,,100721,1,3,2,3,1,1,2,0,60,2021_Oct_07_1139,listening_fmri,3.2.4,60.24855226936472,
2,parcelated_audio/34/34_17.ogg,,,,,,,,,0,0,0,0,0,2,2,2,0,0,0,0,,,,,,,,,,,,,0,0,0,0,0,16,16,16,,,,,,,,,,,,,,,,,,,,,,,,,,,,,,,,,,,,,,,,,,,,,,,,,,,,,,,,,,,,,,,,,,,,,,,,,,,,,,,,,,,,,,,,,,,,,,,,,,,,,,,,,717.7954856160004,726.7285367309996,,,,,,,100721,1,3,2,3,1,1,2,0,60,2021_Oct_07_1139,listening_fmri,3.2.4,60.24855226936472,
2,parcelated_audio/34/34_18.ogg,,,,,,,,,0,0,0,0,0,2,2,2,0,0,0,0,,,,,,,,,,,,,0,0,0,0,0,17,17,17,,,,,,,,,,,,,,,,,,,,,,,,,,,,,,,,,,,,,,,,,,,,,,,,,,,,,,,,,,,,,,,,,,,,,,,,,,,,,,,,,,,,,,,,,,,,,,,,,,,,,,,,,726.7289448490001,732.6072334520004,,,,,,,100721,1,3,2,3,1,1,2,0,60,2021_Oct_07_1139,listening_fmri,3.2.4,60.24855226936472,
2,parcelated_audio/34/34_19.ogg,,,,,,,,,0,0,0,0,0,2,2,2,0,0,0,0,,,,,,,,,,,,,0,0,0,0,0,18,18,18,,,,,,,,,,,,,,,,,,,,,,,,,,,,,,,,,,,,,,,,,,,,,,,,,,,,,,,,,,,,,,,,,,,,,,,,,,,,,,,,,,,,,,,,,,,,,,,,,,,,,,,,,732.6077474410004,738.8162710039996,,,,,,,100721,1,3,2,3,1,1,2,0,60,2021_Oct_07_1139,listening_fmri,3.2.4,60.24855226936472,
2,parcelated_audio/34/34_20.ogg,,,,,,,,,0,0,0,0,0,2,2,2,0,0,0,0,,,,,,,,,,,,,0,0,0,0,0,19,19,19,,,,,,,,,,,,,,,,,,,,,,,,,,,,,,,,,,,,,,,,,,,,,,,,,,,,,,,,,,,,,,,,,,,,,,,,,,,,,,,,,,,,,,,,,,,,,,,,,,,,,,,,,738.8165436680001,747.2723661600003,,,,,,,100721,1,3,2,3,1,1,2,0,60,2021_Oct_07_1139,listening_fmri,3.2.4,60.24855226936472,
2,parcelated_audio/34/34_21.ogg,,,,,,,,,0,0,0,0,0,2,2,2,0,0,0,0,,,,,,,,,,,,,0,0,0,0,0,20,20,20,,,,,,,,,,,,,,,,,,,,,,,,,,,,,,,,,,,,,,,,,,,,,,,,,,,,,,,,,,,,,,,,,,,,,,,,,,,,,,,,,,,,,,,,,,,,,,,,,,,,,,,,,747.2726902109998,753.6322397519998,,,,,,,100721,1,3,2,3,1,1,2,0,60,2021_Oct_07_1139,listening_fmri,3.2.4,60.24855226936472,
2,parcelated_audio/34/34_22.ogg,,,,,,,,,0,0,0,0,0,2,2,2,0,0,0,0,,,,,,,,,,,,,0,0,0,0,0,21,21,21,,,,,,,,,,,,,,,,,,,,,,,,,,,,,,,,,,,,,,,,,,,,,,,,,,,,,,,,,,,,,,,,,,,,,,,,,,,,,,,,,,,,,,,,,,,,,,,,,,,,,,,,,753.6325871640001,758.7656267969996,,,,,,,100721,1,3,2,3,1,1,2,0,60,2021_Oct_07_1139,listening_fmri,3.2.4,60.24855226936472,
2,parcelated_audio/34/34_23.ogg,,,,,,,,,0,0,0,0,0,2,2,2,0,0,0,0,,,,,,,,,,,,,0,0,0,0,0,22,22,22,,,,,,,,,,,,,,,,,,,,,,,,,,,,,,,,,,,,,,,,,,,,,,,,,,,,,,,,,,,,,,,,,,,,,,,,,,,,,,,,,,,,,,,,,,,,,,,,,,,,,,,,,758.7659568939998,766.552404475,,,,,,,100721,1,3,2,3,1,1,2,0,60,2021_Oct_07_1139,listening_fmri,3.2.4,60.24855226936472,
2,parcelated_audio/34/34_24.ogg,,,,,,,,,0,0,0,0,0,2,2,2,0,0,0,0,,,,,,,,,,,,,0,0,0,0,0,23,23,23,,,,,,,,,,,,,,,,,,,,,,,,,,,,,,,,,,,,,,,,,,,,,,,,,,,,,,,,,,,,,,,,,,,,,,,,,,,,,,,,,,,,,,,,,,,,,,,,,,,,,,,,,766.5527526579999,772.3449248919997,,,,,,,100721,1,3,2,3,1,1,2,0,60,2021_Oct_07_1139,listening_fmri,3.2.4,60.24855226936472,
2,parcelated_audio/34/34_25.ogg,,,,,,,,,0,0,0,0,0,2,2,2,0,0,0,0,,,,,,,,,,,,,0,0,0,0,0,24,24,24,,,,,,,,,,,,,,,,,,,,,,,,,,,,,,,,,,,,,,,,,,,,,,,,,,,,,,,,,,,,,,,,,,,,,,,,,,,,,,,,,,,,,,,,,,,,,,,,,,,,,,,,,772.3454246889996,778.9116409110002,,,,,,,100721,1,3,2,3,1,1,2,0,60,2021_Oct_07_1139,listening_fmri,3.2.4,60.24855226936472,
2,parcelated_audio/34/34_26.ogg,,,,,,,,,0,0,0,0,0,2,2,2,0,0,0,0,,,,,,,,,,,,,0,0,0,0,0,25,25,25,,,,,,,,,,,,,,,,,,,,,,,,,,,,,,,,,,,,,,,,,,,,,,,,,,,,,,,,,,,,,,,,,,,,,,,,,,,,,,,,,,,,,,,,,,,,,,,,,,,,,,,,,778.912000288,788.5697925300001,,,,,,,100721,1,3,2,3,1,1,2,0,60,2021_Oct_07_1139,listening_fmri,3.2.4,60.24855226936472,
2,parcelated_audio/34/34_27.ogg,,,,,,,,,0,0,0,0,0,2,2,2,0,0,0,0,,,,,,,,,,,,,0,0,0,0,0,26,26,26,,,,,,,,,,,,,,,,,,,,,,,,,,,,,,,,,,,,,,,,,,,,,,,,,,,,,,,,,,,,,,,,,,,,,,,,,,,,,,,,,,,,,,,,,,,,,,,,,,,,,,,,,788.5702120380001,796.0672695829999,,,,,,,100721,1,3,2,3,1,1,2,0,60,2021_Oct_07_1139,listening_fmri,3.2.4,60.24855226936472,
2,,,,,,,,,,0,0,0,0,0,2,2,2,0,0,0,0,,,,,,,,,,,,,0,0,0,0,,,,,,,,,,,,,,,,,,,,,,,,,,,,,,,,,,,,,,,,,,,,,,,,,,,,,,,,,,,,,,,,,,,,,,,,,,,,,,,,,,,,,,,,,,,,,,,,,,,,,,,,,,,,,,,,,,,,,100721,1,3,2,3,1,1,2,0,60,2021_Oct_07_1139,listening_fmri,3.2.4,60.24855226936472,
2,,,,,,,,,,0,0,0,0,0,2,2,2,0,0,0,0,,,,,,,,,,,,,,,,,,,,,,,,,,,,,,,,,,,,,,,,,,796.067755694,802.0558912659999,848.0380644810002,None,,,,,,,,,,,,,,,,,,,,,,,,,,,,,,,,,,,,,,,,,,,,,,,,,,,,,,,,,,,,,,,,,,,,,,,,,,,,,,,,,,854.0393693870001,None,854.0393693870001,None,,,100721,1,3,2,3,1,1,2,0,60,2021_Oct_07_1139,listening_fmri,3.2.4,60.24855226936472,
2,,,,,,,,,,0,0,0,0,0,2,2,2,,,,,,,,,,,,,,,,,,,,,,,,,,,,,,,,,,,,,,,,,,,,,,,,,,,,,,,,,,,,,,,,,,,,,,,,,,,,,,,,,,,,,,,,,,,,,,,,,,,,,,,,,,,,,,,,,,,,,,,,,,,,,,,,,,,,,,,,,100721,1,3,2,3,1,1,2,0,60,2021_Oct_07_1139,listening_fmri,3.2.4,60.24855226936472,
3,,,,,,,,,,0,0,0,0,0,3,3,3,,,,,,,,,,,,,,,,,,,,,,,,,,,,,,,,,,,,,,,,,,,,,,,,,,,,,,,,,,,,,,,,,,,,,,,,,,,,,,,,,,,,,,,,,,,,,,,,,,,,,,,,,,,,,,,,,,,,,,,,,,,,,,,,,,,,,,,,,100721,1,3,2,3,1,1,2,0,60,2021_Oct_07_1139,listening_fmri,3.2.4,60.24855226936472,
4,parcelated_audio/12/12_1.ogg,,,,,,,,,0,0,0,0,0,4,4,4,0,0,0,0,,,,,,,,,,,,,0,0,0,0,0,0,0,0,,,,,,,,,,,,,,,,,,,,,,,,,,855.062556379,None,855.062556379,None,2,1.6136450590001914,855.062556379,None,855.062556379,None,,,,,,,,,,,,,,,,,,,,,,,,,,,,,,,,,,,,,,,,,,,,,,,,,,,,,,,,,,,,,,856.6966297200006,None,2,1.6695813110000017,856.6966297200006,None,806.4203005150002,809.430056741,809.4354315419996,819.2904696149999,,,,,,,100721,1,3,2,3,1,1,2,0,60,2021_Oct_07_1139,listening_fmri,3.2.4,60.24855226936472,
4,parcelated_audio/12/12_2.ogg,,,,,,,,,0,0,0,0,0,4,4,4,0,0,0,0,,,,,,,,,,,,,0,0,0,0,0,1,1,1,,,,,,,,,,,,,,,,,,,,,,,,,,,,,,,,,,,,,,,,,,,,,,,,,,,,,,,,,,,,,,,,,,,,,,,,,,,,,,,,,,,,,,,,,,,,,,,,,,,,,,,,,819.2911009070003,827.034960426,,,,,,,100721,1,3,2,3,1,1,2,0,60,2021_Oct_07_1139,listening_fmri,3.2.4,60.24855226936472,
4,parcelated_audio/12/12_3.ogg,,,,,,,,,0,0,0,0,0,4,4,4,0,0,0,0,,,,,,,,,,,,,0,0,0,0,0,2,2,2,,,,,,,,,,,,,,,,,,,,,,,,,,,,,,,,,,,,,,,,,,,,,,,,,,,,,,,,,,,,,,,,,,,,,,,,,,,,,,,,,,,,,,,,,,,,,,,,,,,,,,,,,827.0363882390002,834.3904086860002,,,,,,,100721,1,3,2,3,1,1,2,0,60,2021_Oct_07_1139,listening_fmri,3.2.4,60.24855226936472,
4,parcelated_audio/12/12_4.ogg,,,,,,,,,0,0,0,0,0,4,4,4,0,0,0,0,,,,,,,,,,,,,0,0,0,0,0,3,3,3,,,,,,,,,,,,,,,,,,,,,,,,,,,,,,,,,,,,,,,,,,,,,,,,,,,,,,,,,,,,,,,,,,,,,,,,,,,,,,,,,,,,,,,,,,,,,,,,,,,,,,,,,834.3907103210004,840.958841609,,,,,,,100721,1,3,2,3,1,1,2,0,60,2021_Oct_07_1139,listening_fmri,3.2.4,60.24855226936472,
4,parcelated_audio/12/12_5.ogg,,,,,,,,,0,0,0,0,0,4,4,4,0,0,0,0,,,,,,,,,,,,,0,0,0,0,0,4,4,4,,,,,,,,,,,,,,,,,,,,,,,,,,,,,,,,,,,,,,,,,,,,,,,,,,,,,,,,,,,,,,,,,,,,,,,,,,,,,,,,,,,,,,,,,,,,,,,,,,,,,,,,,840.9591137649995,848.9111799430002,,,,,,,100721,1,3,2,3,1,1,2,0,60,2021_Oct_07_1139,listening_fmri,3.2.4,60.24855226936472,
4,parcelated_audio/12/12_6.ogg,,,,,,,,,0,0,0,0,0,4,4,4,0,0,0,0,,,,,,,,,,,,,0,0,0,0,0,5,5,5,,,,,,,,,,,,,,,,,,,,,,,,,,,,,,,,,,,,,,,,,,,,,,,,,,,,,,,,,,,,,,,,,,,,,,,,,,,,,,,,,,,,,,,,,,,,,,,,,,,,,,,,,848.9115139899995,852.5234115900003,,,,,,,100721,1,3,2,3,1,1,2,0,60,2021_Oct_07_1139,listening_fmri,3.2.4,60.24855226936472,
4,parcelated_audio/12/12_7.ogg,,,,,,,,,0,0,0,0,0,4,4,4,0,0,0,0,,,,,,,,,,,,,0,0,0,0,0,6,6,6,,,,,,,,,,,,,,,,,,,,,,,,,,,,,,,,,,,,,,,,,,,,,,,,,,,,,,,,,,,,,,,,,,,,,,,,,,,,,,,,,,,,,,,,,,,,,,,,,,,,,,,,,852.5237161960004,862.8543789590003,,,,,,,100721,1,3,2,3,1,1,2,0,60,2021_Oct_07_1139,listening_fmri,3.2.4,60.24855226936472,
4,parcelated_audio/12/12_8.ogg,,,,,,,,,0,0,0,0,0,4,4,4,0,0,0,0,,,,,,,,,,,,,0,0,0,0,0,7,7,7,,,,,,,,,,,,,,,,,,,,,,,,,,,,,,,,,,,,,,,,,,,,,,,,,,,,,,,,,,,,,,,,,,,,,,,,,,,,,,,,,,,,,,,,,,,,,,,,,,,,,,,,,862.8547543479999,871.6352271790001,,,,,,,100721,1,3,2,3,1,1,2,0,60,2021_Oct_07_1139,listening_fmri,3.2.4,60.24855226936472,
4,parcelated_audio/12/12_9.ogg,,,,,,,,,0,0,0,0,0,4,4,4,0,0,0,0,,,,,,,,,,,,,0,0,0,0,0,8,8,8,,,,,,,,,,,,,,,,,,,,,,,,,,,,,,,,,,,,,,,,,,,,,,,,,,,,,,,,,,,,,,,,,,,,,,,,,,,,,,,,,,,,,,,,,,,,,,,,,,,,,,,,,871.6354831429999,875.4854251639999,,,,,,,100721,1,3,2,3,1,1,2,0,60,2021_Oct_07_1139,listening_fmri,3.2.4,60.24855226936472,
4,parcelated_audio/12/12_10.ogg,,,,,,,,,0,0,0,0,0,4,4,4,0,0,0,0,,,,,,,,,,,,,0,0,0,0,0,9,9,9,,,,,,,,,,,,,,,,,,,,,,,,,,,,,,,,,,,,,,,,,,,,,,,,,,,,,,,,,,,,,,,,,,,,,,,,,,,,,,,,,,,,,,,,,,,,,,,,,,,,,,,,,875.4856985180004,880.2831907139998,,,,,,,100721,1,3,2,3,1,1,2,0,60,2021_Oct_07_1139,listening_fmri,3.2.4,60.24855226936472,
4,parcelated_audio/12/12_11.ogg,,,,,,,,,0,0,0,0,0,4,4,4,0,0,0,0,,,,,,,,,,,,,0,0,0,0,0,10,10,10,,,,,,,,,,,,,,,,,,,,,,,,,,,,,,,,,,,,,,,,,,,,,,,,,,,,,,,,,,,,,,,,,,,,,,,,,,,,,,,,,,,,,,,,,,,,,,,,,,,,,,,,,880.2834670250004,883.1524291349997,,,,,,,100721,1,3,2,3,1,1,2,0,60,2021_Oct_07_1139,listening_fmri,3.2.4,60.24855226936472,
4,parcelated_audio/12/12_12.ogg,,,,,,,,,0,0,0,0,0,4,4,4,0,0,0,0,,,,,,,,,,,,,0,0,0,0,0,11,11,11,,,,,,,,,,,,,,,,,,,,,,,,,,,,,,,,,,,,,,,,,,,,,,,,,,,,,,,,,,,,,,,,,,,,,,,,,,,,,,,,,,,,,,,,,,,,,,,,,,,,,,,,,883.1527329529999,891.9999789809999,,,,,,,100721,1,3,2,3,1,1,2,0,60,2021_Oct_07_1139,listening_fmri,3.2.4,60.24855226936472,
4,parcelated_audio/12/12_13.ogg,,,,,,,,,0,0,0,0,0,4,4,4,0,0,0,0,,,,,,,,,,,,,0,0,0,0,0,12,12,12,,,,,,,,,,,,,,,,,,,,,,,,,,,,,,,,,,,,,,,,,,,,,,,,,,,,,,,,,,,,,,,,,,,,,,,,,,,,,,,,,,,,,,,,,,,,,,,,,,,,,,,,,892.0003475229996,897.2593330030004,,,,,,,100721,1,3,2,3,1,1,2,0,60,2021_Oct_07_1139,listening_fmri,3.2.4,60.24855226936472,
4,parcelated_audio/12/12_14.ogg,,,,,,,,,0,0,0,0,0,4,4,4,0,0,0,0,,,,,,,,,,,,,0,0,0,0,0,13,13,13,,,,,,,,,,,,,,,,,,,,,,,,,,,,,,,,,,,,,,,,,,,,,,,,,,,,,,,,,,,,,,,,,,,,,,,,,,,,,,,,,,,,,,,,,,,,,,,,,,,,,,,,,897.259679193,902.1903133180003,,,,,,,100721,1,3,2,3,1,1,2,0,60,2021_Oct_07_1139,listening_fmri,3.2.4,60.24855226936472,
4,parcelated_audio/12/12_15.ogg,,,,,,,,,0,0,0,0,0,4,4,4,0,0,0,0,,,,,,,,,,,,,0,0,0,0,0,14,14,14,,,,,,,,,,,,,,,,,,,,,,,,,,,,,,,,,,,,,,,,,,,,,,,,,,,,,,,,,,,,,,,,,,,,,,,,,,,,,,,,,,,,,,,,,,,,,,,,,,,,,,,,,902.1906630269996,908.1711063700004,,,,,,,100721,1,3,2,3,1,1,2,0,60,2021_Oct_07_1139,listening_fmri,3.2.4,60.24855226936472,
4,parcelated_audio/12/12_16.ogg,,,,,,,,,0,0,0,0,0,4,4,4,0,0,0,0,,,,,,,,,,,,,0,0,0,0,0,15,15,15,,,,,,,,,,,,,,,,,,,,,,,,,,,,,,,,,,,,,,,,,,,,,,,,,,,,,,,,,,,,,,,,,,,,,,,,,,,,,,,,,,,,,,,,,,,,,,,,,,,,,,,,,908.1715531680002,912.3807177879999,,,,,,,100721,1,3,2,3,1,1,2,0,60,2021_Oct_07_1139,listening_fmri,3.2.4,60.24855226936472,
4,parcelated_audio/12/12_17.ogg,,,,,,,,,0,0,0,0,0,4,4,4,0,0,0,0,,,,,,,,,,,,,0,0,0,0,0,16,16,16,,,,,,,,,,,,,,,,,,,,,,,,,,,,,,,,,,,,,,,,,,,,,,,,,,,,,,,,,,,,,,,,,,,,,,,,,,,,,,,,,,,,,,,,,,,,,,,,,,,,,,,,,912.3810742329997,917.3597186469997,,,,,,,100721,1,3,2,3,1,1,2,0,60,2021_Oct_07_1139,listening_fmri,3.2.4,60.24855226936472,
4,parcelated_audio/12/12_18.ogg,,,,,,,,,0,0,0,0,0,4,4,4,0,0,0,0,,,,,,,,,,,,,0,0,0,0,0,17,17,17,,,,,,,,,,,,,,,,,,,,,,,,,,,,,,,,,,,,,,,,,,,,,,,,,,,,,,,,,,,,,,,,,,,,,,,,,,,,,,,,,,,,,,,,,,,,,,,,,,,,,,,,,917.360072079,926.56591974,,,,,,,100721,1,3,2,3,1,1,2,0,60,2021_Oct_07_1139,listening_fmri,3.2.4,60.24855226936472,
4,parcelated_audio/12/12_19.ogg,,,,,,,,,0,0,0,0,0,4,4,4,0,0,0,0,,,,,,,,,,,,,0,0,0,0,0,18,18,18,,,,,,,,,,,,,,,,,,,,,,,,,,,,,,,,,,,,,,,,,,,,,,,,,,,,,,,,,,,,,,,,,,,,,,,,,,,,,,,,,,,,,,,,,,,,,,,,,,,,,,,,,926.5669120740004,936.5843582340003,,,,,,,100721,1,3,2,3,1,1,2,0,60,2021_Oct_07_1139,listening_fmri,3.2.4,60.24855226936472,
4,parcelated_audio/12/12_20.ogg,,,,,,,,,0,0,0,0,0,4,4,4,0,0,0,0,,,,,,,,,,,,,0,0,0,0,0,19,19,19,,,,,,,,,,,,,,,,,,,,,,,,,,,,,,,,,,,,,,,,,,,,,,,,,,,,,,,,,,,,,,,,,,,,,,,,,,,,,,,,,,,,,,,,,,,,,,,,,,,,,,,,,936.5847060980004,944.4017644639998,,,,,,,100721,1,3,2,3,1,1,2,0,60,2021_Oct_07_1139,listening_fmri,3.2.4,60.24855226936472,
4,parcelated_audio/12/12_21.ogg,,,,,,,,,0,0,0,0,0,4,4,4,0,0,0,0,,,,,,,,,,,,,0,0,0,0,0,20,20,20,,,,,,,,,,,,,,,,,,,,,,,,,,,,,,,,,,,,,,,,,,,,,,,,,,,,,,,,,,,,,,,,,,,,,,,,,,,,,,,,,,,,,,,,,,,,,,,,,,,,,,,,,944.402086174,949.8931321079999,,,,,,,100721,1,3,2,3,1,1,2,0,60,2021_Oct_07_1139,listening_fmri,3.2.4,60.24855226936472,
4,parcelated_audio/12/12_22.ogg,,,,,,,,,0,0,0,0,0,4,4,4,0,0,0,0,,,,,,,,,,,,,0,0,0,0,0,21,21,21,,,,,,,,,,,,,,,,,,,,,,,,,,,,,,,,,,,,,,,,,,,,,,,,,,,,,,,,,,,,,,,,,,,,,,,,,,,,,,,,,,,,,,,,,,,,,,,,,,,,,,,,,949.8936380449995,953.7484193480004,,,,,,,100721,1,3,2,3,1,1,2,0,60,2021_Oct_07_1139,listening_fmri,3.2.4,60.24855226936472,
4,parcelated_audio/12/12_23.ogg,,,,,,,,,0,0,0,0,0,4,4,4,0,0,0,0,,,,,,,,,,,,,0,0,0,0,0,22,22,22,,,,,,,,,,,,,,,,,,,,,,,,,,,,,,,,,,,,,,,,,,,,,,,,,,,,,,,,,,,,,,,,,,,,,,,,,,,,,,,,,,,,,,,,,,,,,,,,,,,,,,,,,953.7488520710003,960.5938140139997,,,,,,,100721,1,3,2,3,1,1,2,0,60,2021_Oct_07_1139,listening_fmri,3.2.4,60.24855226936472,
4,parcelated_audio/12/12_24.ogg,,,,,,,,,0,0,0,0,0,4,4,4,0,0,0,0,,,,,,,,,,,,,0,0,0,0,0,23,23,23,,,,,,,,,,,,,,,,,,,,,,,,,,,,,,,,,,,,,,,,,,,,,,,,,,,,,,,,,,,,,,,,,,,,,,,,,,,,,,,,,,,,,,,,,,,,,,,,,,,,,,,,,960.5941608269995,964.7396814940003,,,,,,,100721,1,3,2,3,1,1,2,0,60,2021_Oct_07_1139,listening_fmri,3.2.4,60.24855226936472,
4,parcelated_audio/12/12_25.ogg,,,,,,,,,0,0,0,0,0,4,4,4,0,0,0,0,,,,,,,,,,,,,0,0,0,0,0,24,24,24,,,,,,,,,,,,,,,,,,,,,,,,,,,,,,,,,,,,,,,,,,,,,,,,,,,,,,,,,,,,,,,,,,,,,,,,,,,,,,,,,,,,,,,,,,,,,,,,,,,,,,,,,964.7399357029999,975.0834735549997,,,,,,,100721,1,3,2,3,1,1,2,0,60,2021_Oct_07_1139,listening_fmri,3.2.4,60.24855226936472,
4,parcelated_audio/12/12_26.ogg,,,,,,,,,0,0,0,0,0,4,4,4,0,0,0,0,,,,,,,,,,,,,0,0,0,0,0,25,25,25,,,,,,,,,,,,,,,,,,,,,,,,,,,,,,,,,,,,,,,,,,,,,,,,,,,,,,,,,,,,,,,,,,,,,,,,,,,,,,,,,,,,,,,,,,,,,,,,,,,,,,,,,975.0838535610001,980.3264730330002,,,,,,,100721,1,3,2,3,1,1,2,0,60,2021_Oct_07_1139,listening_fmri,3.2.4,60.24855226936472,
4,parcelated_audio/12/12_27.ogg,,,,,,,,,0,0,0,0,0,4,4,4,0,0,0,0,,,,,,,,,,,,,0,0,0,0,0,26,26,26,,,,,,,,,,,,,,,,,,,,,,,,,,,,,,,,,,,,,,,,,,,,,,,,,,,,,,,,,,,,,,,,,,,,,,,,,,,,,,,,,,,,,,,,,,,,,,,,,,,,,,,,,980.3267534360002,988.0012625059999,,,,,,,100721,1,3,2,3,1,1,2,0,60,2021_Oct_07_1139,listening_fmri,3.2.4,60.24855226936472,
4,parcelated_audio/12/12_28.ogg,,,,,,,,,0,0,0,0,0,4,4,4,0,0,0,0,,,,,,,,,,,,,0,0,0,0,0,27,27,27,,,,,,,,,,,,,,,,,,,,,,,,,,,,,,,,,,,,,,,,,,,,,,,,,,,,,,,,,,,,,,,,,,,,,,,,,,,,,,,,,,,,,,,,,,,,,,,,,,,,,,,,,988.0017540440003,998.9866457730004,,,,,,,100721,1,3,2,3,1,1,2,0,60,2021_Oct_07_1139,listening_fmri,3.2.4,60.24855226936472,
4,parcelated_audio/12/12_29.ogg,,,,,,,,,0,0,0,0,0,4,4,4,0,0,0,0,,,,,,,,,,,,,0,0,0,0,0,28,28,28,,,,,,,,,,,,,,,,,,,,,,,,,,,,,,,,,,,,,,,,,,,,,,,,,,,,,,,,,,,,,,,,,,,,,,,,,,,,,,,,,,,,,,,,,,,,,,,,,,,,,,,,,998.9869258500003,1005.0750337629997,,,,,,,100721,1,3,2,3,1,1,2,0,60,2021_Oct_07_1139,listening_fmri,3.2.4,60.24855226936472,
4,parcelated_audio/12/12_30.ogg,,,,,,,,,0,0,0,0,0,4,4,4,0,0,0,0,,,,,,,,,,,,,0,0,0,0,0,29,29,29,,,,,,,,,,,,,,,,,,,,,,,,,,,,,,,,,,,,,,,,,,,,,,,,,,,,,,,,,,,,,,,,,,,,,,,,,,,,,,,,,,,,,,,,,,,,,,,,,,,,,,,,,1005.0761442499997,1012.0265710829999,,,,,,,100721,1,3,2,3,1,1,2,0,60,2021_Oct_07_1139,listening_fmri,3.2.4,60.24855226936472,
4,parcelated_audio/12/12_31.ogg,,,,,,,,,0,0,0,0,0,4,4,4,0,0,0,0,,,,,,,,,,,,,0,0,0,0,0,30,30,30,,,,,,,,,,,,,,,,,,,,,,,,,,,,,,,,,,,,,,,,,,,,,,,,,,,,,,,,,,,,,,,,,,,,,,,,,,,,,,,,,,,,,,,,,,,,,,,,,,,,,,,,,1012.0268473839997,1019.1656646129995,,,,,,,100721,1,3,2,3,1,1,2,0,60,2021_Oct_07_1139,listening_fmri,3.2.4,60.24855226936472,
4,,,,,,,,,,0,0,0,0,0,4,4,4,0,0,0,0,,,,,,,,,,,,,0,0,0,0,,,,,,,,,,,,,,,,,,,,,,,,,,,,,,,,,,,,,,,,,,,,,,,,,,,,,,,,,,,,,,,,,,,,,,,,,,,,,,,,,,,,,,,,,,,,,,,,,,,,,,,,,,,,,,,,,,,,,100721,1,3,2,3,1,1,2,0,60,2021_Oct_07_1139,listening_fmri,3.2.4,60.24855226936472,
4,,,,,,,,,,0,0,0,0,0,4,4,4,0,0,0,0,,,,,,,,,,,,,,,,,,,,,,,,,,,,,,,,,,,,,,,,,,1019.1660935070004,1025.16312183,1071.134957669,None,,,,,,,,,,,,,,,,,,,,,,,,,,,,,,,,,,,,,,,,,,,,,,,,,,,,,,,,,,,,,,,,,,,,,,,,,,,,,,,,,,1077.1469353230004,None,1077.1469353230004,None,,,100721,1,3,2,3,1,1,2,0,60,2021_Oct_07_1139,listening_fmri,3.2.4,60.24855226936472,
4,,,,,,,,,,0,0,0,0,0,4,4,4,,,,,,,,,,,,,,,,,,,,,,,,,,,,,,,,,,,,,,,,,,,,,,,,,,,,,,,,,,,,,,,,,,,,,,,,,,,,,,,,,,,,,,,,,,,,,,,,,,,,,,,,,,,,,,,,,,,,,,,,,,,,,,,,,,,,,,,,,100721,1,3,2,3,1,1,2,0,60,2021_Oct_07_1139,listening_fmri,3.2.4,60.24855226936472,
5,,,,,,,,,,0,0,0,0,0,5,5,5,0,0,0,0,0,0,0,0,0,0,0,0,,,,,,,,,,,,,,,,,,,,,,,,,,,,,,,,,,,,,,1078.1700073390002,None,1078.1700073390002,None,2,3.4612023409999892,1078.1700073390002,None,1078.1700073390002,None,1081.6526757850006,None,2,1.7794341610006086,1081.6526757850006,None,1081.6526757850006,None,1083.479588755,None,1083.479588755,None,1083.479588755,None,2,1.657617511999888,1083.479588755,None,1085.1636214670007,None,2,2.128534405999744,1085.1636214670007,None,1085.1636214670007,None,1087.3962055339998,None,1087.3962055339998,None,1087.3962055339998,None,1087.3962055339998,None,1087.3962055339998,None,1087.3962055339998,None,1087.3962055339998,None,None,1087.3962055339998,None,,,,,,,,,,,,,,,,,,,,,,,,,,,,,,,,,,,100721,1,3,2,3,1,1,2,0,60,2021_Oct_07_1139,listening_fmri,3.2.4,60.24855226936472,
5,,,,,,,,,,0,0,0,0,0,5,5,5,0,0,0,0,0,0,0,0,,,,,,,,,,,,,,,,,,,,,,,,,,,,,,,,,,,,,,,,,,,,,,,,,,,,,,,,,,,,,,,,,,,,,,,,,,,,,,,,,,,,,,,,,,,,,,,1120.3127011220004,None,2,2.1955654490002416,1120.3127011220004,None,1120.3127011220004,None,1122.5464005630001,None,1122.5464005630001,None,1122.5464005630001,None,2,1.6287984740001775,1122.5464005630001,None,,,,,,,,,,,,,,,,,100721,1,3,2,3,1,1,2,0,60,2021_Oct_07_1139,listening_fmri,3.2.4,60.24855226936472,
5,parcelated_audio/41/41_1.ogg,,,,,,,,,0,0,0,0,0,5,5,5,0,0,0,0,,,,,,,,,,,,,0,0,0,0,0,0,0,0,,,,,,,,,,,,,,,,,,,,,,,,,,,,,,,,,,,,,,,,,,,,,,,,,,,,,,,,,,,,,,,,,,,,,,,,,,,,,,,,,,,,,,,,,,,,,,,,,1124.1968122590006,None,2,1.6982641009999497,1124.1968122590006,None,1073.937675745,1076.9472302490003,1076.957344931,1086.0672324400002,,,,,,,100721,1,3,2,3,1,1,2,0,60,2021_Oct_07_1139,listening_fmri,3.2.4,60.24855226936472,
5,parcelated_audio/41/41_2.ogg,,,,,,,,,0,0,0,0,0,5,5,5,0,0,0,0,,,,,,,,,,,,,0,0,0,0,0,1,1,1,,,,,,,,,,,,,,,,,,,,,,,,,,,,,,,,,,,,,,,,,,,,,,,,,,,,,,,,,,,,,,,,,,,,,,,,,,,,,,,,,,,,,,,,,,,,,,,,,,,,,,,,,1086.067537584,1093.308050959,,,,,,,100721,1,3,2,3,1,1,2,0,60,2021_Oct_07_1139,listening_fmri,3.2.4,60.24855226936472,
5,parcelated_audio/41/41_3.ogg,,,,,,,,,0,0,0,0,0,5,5,5,0,0,0,0,,,,,,,,,,,,,0,0,0,0,0,2,2,2,,,,,,,,,,,,,,,,,,,,,,,,,,,,,,,,,,,,,,,,,,,,,,,,,,,,,,,,,,,,,,,,,,,,,,,,,,,,,,,,,,,,,,,,,,,,,,,,,,,,,,,,,1093.308402136,1097.6134496960003,,,,,,,100721,1,3,2,3,1,1,2,0,60,2021_Oct_07_1139,listening_fmri,3.2.4,60.24855226936472,
5,parcelated_audio/41/41_4.ogg,,,,,,,,,0,0,0,0,0,5,5,5,0,0,0,0,,,,,,,,,,,,,0,0,0,0,0,3,3,3,,,,,,,,,,,,,,,,,,,,,,,,,,,,,,,,,,,,,,,,,,,,,,,,,,,,,,,,,,,,,,,,,,,,,,,,,,,,,,,,,,,,,,,,,,,,,,,,,,,,,,,,,1097.6137990650004,1101.5737079970004,,,,,,,100721,1,3,2,3,1,1,2,0,60,2021_Oct_07_1139,listening_fmri,3.2.4,60.24855226936472,
5,parcelated_audio/41/41_5.ogg,,,,,,,,,0,0,0,0,0,5,5,5,0,0,0,0,,,,,,,,,,,,,0,0,0,0,0,4,4,4,,,,,,,,,,,,,,,,,,,,,,,,,,,,,,,,,,,,,,,,,,,,,,,,,,,,,,,,,,,,,,,,,,,,,,,,,,,,,,,,,,,,,,,,,,,,,,,,,,,,,,,,,1101.5739816200003,1107.6939212440002,,,,,,,100721,1,3,2,3,1,1,2,0,60,2021_Oct_07_1139,listening_fmri,3.2.4,60.24855226936472,
5,parcelated_audio/41/41_6.ogg,,,,,,,,,0,0,0,0,0,5,5,5,0,0,0,0,,,,,,,,,,,,,0,0,0,0,0,5,5,5,,,,,,,,,,,,,,,,,,,,,,,,,,,,,,,,,,,,,,,,,,,,,,,,,,,,,,,,,,,,,,,,,,,,,,,,,,,,,,,,,,,,,,,,,,,,,,,,,,,,,,,,,1107.6951603090001,1117.6468840329999,,,,,,,100721,1,3,2,3,1,1,2,0,60,2021_Oct_07_1139,listening_fmri,3.2.4,60.24855226936472,
5,parcelated_audio/41/41_7.ogg,,,,,,,,,0,0,0,0,0,5,5,5,0,0,0,0,,,,,,,,,,,,,0,0,0,0,0,6,6,6,,,,,,,,,,,,,,,,,,,,,,,,,,,,,,,,,,,,,,,,,,,,,,,,,,,,,,,,,,,,,,,,,,,,,,,,,,,,,,,,,,,,,,,,,,,,,,,,,,,,,,,,,1117.647240229,1125.3716148980002,,,,,,,100721,1,3,2,3,1,1,2,0,60,2021_Oct_07_1139,listening_fmri,3.2.4,60.24855226936472,
5,parcelated_audio/41/41_8.ogg,,,,,,,,,0,0,0,0,0,5,5,5,0,0,0,0,,,,,,,,,,,,,0,0,0,0,0,7,7,7,,,,,,,,,,,,,,,,,,,,,,,,,,,,,,,,,,,,,,,,,,,,,,,,,,,,,,,,,,,,,,,,,,,,,,,,,,,,,,,,,,,,,,,,,,,,,,,,,,,,,,,,,1125.3719659429999,1129.6128688649997,,,,,,,100721,1,3,2,3,1,1,2,0,60,2021_Oct_07_1139,listening_fmri,3.2.4,60.24855226936472,
5,parcelated_audio/41/41_9.ogg,,,,,,,,,0,0,0,0,0,5,5,5,0,0,0,0,,,,,,,,,,,,,0,0,0,0,0,8,8,8,,,,,,,,,,,,,,,,,,,,,,,,,,,,,,,,,,,,,,,,,,,,,,,,,,,,,,,,,,,,,,,,,,,,,,,,,,,,,,,,,,,,,,,,,,,,,,,,,,,,,,,,,1129.613288613,1139.2636451469998,,,,,,,100721,1,3,2,3,1,1,2,0,60,2021_Oct_07_1139,listening_fmri,3.2.4,60.24855226936472,
5,parcelated_audio/41/41_10.ogg,,,,,,,,,0,0,0,0,0,5,5,5,0,0,0,0,,,,,,,,,,,,,0,0,0,0,0,9,9,9,,,,,,,,,,,,,,,,,,,,,,,,,,,,,,,,,,,,,,,,,,,,,,,,,,,,,,,,,,,,,,,,,,,,,,,,,,,,,,,,,,,,,,,,,,,,,,,,,,,,,,,,,1139.2639978440002,1145.7806607470002,,,,,,,100721,1,3,2,3,1,1,2,0,60,2021_Oct_07_1139,listening_fmri,3.2.4,60.24855226936472,
5,parcelated_audio/41/41_11.ogg,,,,,,,,,0,0,0,0,0,5,5,5,0,0,0,0,,,,,,,,,,,,,0,0,0,0,0,10,10,10,,,,,,,,,,,,,,,,,,,,,,,,,,,,,,,,,,,,,,,,,,,,,,,,,,,,,,,,,,,,,,,,,,,,,,,,,,,,,,,,,,,,,,,,,,,,,,,,,,,,,,,,,1145.7810756279996,1149.55553357,,,,,,,100721,1,3,2,3,1,1,2,0,60,2021_Oct_07_1139,listening_fmri,3.2.4,60.24855226936472,
5,parcelated_audio/41/41_12.ogg,,,,,,,,,0,0,0,0,0,5,5,5,0,0,0,0,,,,,,,,,,,,,0,0,0,0,0,11,11,11,,,,,,,,,,,,,,,,,,,,,,,,,,,,,,,,,,,,,,,,,,,,,,,,,,,,,,,,,,,,,,,,,,,,,,,,,,,,,,,,,,,,,,,,,,,,,,,,,,,,,,,,,1149.5558792029997,1159.3006646659996,,,,,,,100721,1,3,2,3,1,1,2,0,60,2021_Oct_07_1139,listening_fmri,3.2.4,60.24855226936472,
5,parcelated_audio/41/41_13.ogg,,,,,,,,,0,0,0,0,0,5,5,5,0,0,0,0,,,,,,,,,,,,,0,0,0,0,0,12,12,12,,,,,,,,,,,,,,,,,,,,,,,,,,,,,,,,,,,,,,,,,,,,,,,,,,,,,,,,,,,,,,,,,,,,,,,,,,,,,,,,,,,,,,,,,,,,,,,,,,,,,,,,,1159.3011246810001,1165.123071043,,,,,,,100721,1,3,2,3,1,1,2,0,60,2021_Oct_07_1139,listening_fmri,3.2.4,60.24855226936472,
5,parcelated_audio/41/41_14.ogg,,,,,,,,,0,0,0,0,0,5,5,5,0,0,0,0,,,,,,,,,,,,,0,0,0,0,0,13,13,13,,,,,,,,,,,,,,,,,,,,,,,,,,,,,,,,,,,,,,,,,,,,,,,,,,,,,,,,,,,,,,,,,,,,,,,,,,,,,,,,,,,,,,,,,,,,,,,,,,,,,,,,,1165.1234280729996,1172.3457545640003,,,,,,,100721,1,3,2,3,1,1,2,0,60,2021_Oct_07_1139,listening_fmri,3.2.4,60.24855226936472,
5,parcelated_audio/41/41_15.ogg,,,,,,,,,0,0,0,0,0,5,5,5,0,0,0,0,,,,,,,,,,,,,0,0,0,0,0,14,14,14,,,,,,,,,,,,,,,,,,,,,,,,,,,,,,,,,,,,,,,,,,,,,,,,,,,,,,,,,,,,,,,,,,,,,,,,,,,,,,,,,,,,,,,,,,,,,,,,,,,,,,,,,1172.346211993,1175.77964608,,,,,,,100721,1,3,2,3,1,1,2,0,60,2021_Oct_07_1139,listening_fmri,3.2.4,60.24855226936472,
5,parcelated_audio/41/41_16.ogg,,,,,,,,,0,0,0,0,0,5,5,5,0,0,0,0,,,,,,,,,,,,,0,0,0,0,0,15,15,15,,,,,,,,,,,,,,,,,,,,,,,,,,,,,,,,,,,,,,,,,,,,,,,,,,,,,,,,,,,,,,,,,,,,,,,,,,,,,,,,,,,,,,,,,,,,,,,,,,,,,,,,,1175.7799643890003,1180.647052454,,,,,,,100721,1,3,2,3,1,1,2,0,60,2021_Oct_07_1139,listening_fmri,3.2.4,60.24855226936472,
5,parcelated_audio/41/41_17.ogg,,,,,,,,,0,0,0,0,0,5,5,5,0,0,0,0,,,,,,,,,,,,,0,0,0,0,0,16,16,16,,,,,,,,,,,,,,,,,,,,,,,,,,,,,,,,,,,,,,,,,,,,,,,,,,,,,,,,,,,,,,,,,,,,,,,,,,,,,,,,,,,,,,,,,,,,,,,,,,,,,,,,,1180.6473331179996,1184.8175239250004,,,,,,,100721,1,3,2,3,1,1,2,0,60,2021_Oct_07_1139,listening_fmri,3.2.4,60.24855226936472,
5,parcelated_audio/41/41_18.ogg,,,,,,,,,0,0,0,0,0,5,5,5,0,0,0,0,,,,,,,,,,,,,0,0,0,0,0,17,17,17,,,,,,,,,,,,,,,,,,,,,,,,,,,,,,,,,,,,,,,,,,,,,,,,,,,,,,,,,,,,,,,,,,,,,,,,,,,,,,,,,,,,,,,,,,,,,,,,,,,,,,,,,1184.81794051,1187.3509868,,,,,,,100721,1,3,2,3,1,1,2,0,60,2021_Oct_07_1139,listening_fmri,3.2.4,60.24855226936472,
5,parcelated_audio/41/41_19.ogg,,,,,,,,,0,0,0,0,0,5,5,5,0,0,0,0,,,,,,,,,,,,,0,0,0,0,0,18,18,18,,,,,,,,,,,,,,,,,,,,,,,,,,,,,,,,,,,,,,,,,,,,,,,,,,,,,,,,,,,,,,,,,,,,,,,,,,,,,,,,,,,,,,,,,,,,,,,,,,,,,,,,,1187.3512929010003,1194.236502525,,,,,,,100721,1,3,2,3,1,1,2,0,60,2021_Oct_07_1139,listening_fmri,3.2.4,60.24855226936472,
5,parcelated_audio/41/41_20.ogg,,,,,,,,,0,0,0,0,0,5,5,5,0,0,0,0,,,,,,,,,,,,,0,0,0,0,0,19,19,19,,,,,,,,,,,,,,,,,,,,,,,,,,,,,,,,,,,,,,,,,,,,,,,,,,,,,,,,,,,,,,,,,,,,,,,,,,,,,,,,,,,,,,,,,,,,,,,,,,,,,,,,,1194.2368738289997,1199.1781896619996,,,,,,,100721,1,3,2,3,1,1,2,0,60,2021_Oct_07_1139,listening_fmri,3.2.4,60.24855226936472,
5,parcelated_audio/41/41_21.ogg,,,,,,,,,0,0,0,0,0,5,5,5,0,0,0,0,,,,,,,,,,,,,0,0,0,0,0,20,20,20,,,,,,,,,,,,,,,,,,,,,,,,,,,,,,,,,,,,,,,,,,,,,,,,,,,,,,,,,,,,,,,,,,,,,,,,,,,,,,,,,,,,,,,,,,,,,,,,,,,,,,,,,1199.1784967610001,1206.9847970230003,,,,,,,100721,1,3,2,3,1,1,2,0,60,2021_Oct_07_1139,listening_fmri,3.2.4,60.24855226936472,
5,parcelated_audio/41/41_22.ogg,,,,,,,,,0,0,0,0,0,5,5,5,0,0,0,0,,,,,,,,,,,,,0,0,0,0,0,21,21,21,,,,,,,,,,,,,,,,,,,,,,,,,,,,,,,,,,,,,,,,,,,,,,,,,,,,,,,,,,,,,,,,,,,,,,,,,,,,,,,,,,,,,,,,,,,,,,,,,,,,,,,,,1206.9851961860004,1222.7814540520003,,,,,,,100721,1,3,2,3,1,1,2,0,60,2021_Oct_07_1139,listening_fmri,3.2.4,60.24855226936472,
5,parcelated_audio/41/41_23.ogg,,,,,,,,,0,0,0,0,0,5,5,5,0,0,0,0,,,,,,,,,,,,,0,0,0,0,0,22,22,22,,,,,,,,,,,,,,,,,,,,,,,,,,,,,,,,,,,,,,,,,,,,,,,,,,,,,,,,,,,,,,,,,,,,,,,,,,,,,,,,,,,,,,,,,,,,,,,,,,,,,,,,,1222.781863663,1228.7793914980002,,,,,,,100721,1,3,2,3,1,1,2,0,60,2021_Oct_07_1139,listening_fmri,3.2.4,60.24855226936472,
5,parcelated_audio/41/41_24.ogg,,,,,,,,,0,0,0,0,0,5,5,5,0,0,0,0,,,,,,,,,,,,,0,0,0,0,0,23,23,23,,,,,,,,,,,,,,,,,,,,,,,,,,,,,,,,,,,,,,,,,,,,,,,,,,,,,,,,,,,,,,,,,,,,,,,,,,,,,,,,,,,,,,,,,,,,,,,,,,,,,,,,,1228.7796648659996,1235.416091088,,,,,,,100721,1,3,2,3,1,1,2,0,60,2021_Oct_07_1139,listening_fmri,3.2.4,60.24855226936472,
5,parcelated_audio/41/41_25.ogg,,,,,,,,,0,0,0,0,0,5,5,5,0,0,0,0,,,,,,,,,,,,,0,0,0,0,0,24,24,24,,,,,,,,,,,,,,,,,,,,,,,,,,,,,,,,,,,,,,,,,,,,,,,,,,,,,,,,,,,,,,,,,,,,,,,,,,,,,,,,,,,,,,,,,,,,,,,,,,,,,,,,,1235.4164847390002,1238.776682736,,,,,,,100721,1,3,2,3,1,1,2,0,60,2021_Oct_07_1139,listening_fmri,3.2.4,60.24855226936472,
5,parcelated_audio/41/41_26.ogg,,,,,,,,,0,0,0,0,0,5,5,5,0,0,0,0,,,,,,,,,,,,,0,0,0,0,0,25,25,25,,,,,,,,,,,,,,,,,,,,,,,,,,,,,,,,,,,,,,,,,,,,,,,,,,,,,,,,,,,,,,,,,,,,,,,,,,,,,,,,,,,,,,,,,,,,,,,,,,,,,,,,,1238.777178118,1244.2986049379997,,,,,,,100721,1,3,2,3,1,1,2,0,60,2021_Oct_07_1139,listening_fmri,3.2.4,60.24855226936472,
5,parcelated_audio/41/41_27.ogg,,,,,,,,,0,0,0,0,0,5,5,5,0,0,0,0,,,,,,,,,,,,,0,0,0,0,0,26,26,26,,,,,,,,,,,,,,,,,,,,,,,,,,,,,,,,,,,,,,,,,,,,,,,,,,,,,,,,,,,,,,,,,,,,,,,,,,,,,,,,,,,,,,,,,,,,,,,,,,,,,,,,,1244.298961638,1248.1633777200004,,,,,,,100721,1,3,2,3,1,1,2,0,60,2021_Oct_07_1139,listening_fmri,3.2.4,60.24855226936472,
5,parcelated_audio/41/41_28.ogg,,,,,,,,,0,0,0,0,0,5,5,5,0,0,0,0,,,,,,,,,,,,,0,0,0,0,0,27,27,27,,,,,,,,,,,,,,,,,,,,,,,,,,,,,,,,,,,,,,,,,,,,,,,,,,,,,,,,,,,,,,,,,,,,,,,,,,,,,,,,,,,,,,,,,,,,,,,,,,,,,,,,,1248.166398921,1256.5105624990001,,,,,,,100721,1,3,2,3,1,1,2,0,60,2021_Oct_07_1139,listening_fmri,3.2.4,60.24855226936472,
5,parcelated_audio/41/41_29.ogg,,,,,,,,,0,0,0,0,0,5,5,5,0,0,0,0,,,,,,,,,,,,,0,0,0,0,0,28,28,28,,,,,,,,,,,,,,,,,,,,,,,,,,,,,,,,,,,,,,,,,,,,,,,,,,,,,,,,,,,,,,,,,,,,,,,,,,,,,,,,,,,,,,,,,,,,,,,,,,,,,,,,,1256.5109844520002,1263.1172814889997,,,,,,,100721,1,3,2,3,1,1,2,0,60,2021_Oct_07_1139,listening_fmri,3.2.4,60.24855226936472,
5,parcelated_audio/41/41_30.ogg,,,,,,,,,0,0,0,0,0,5,5,5,0,0,0,0,,,,,,,,,,,,,0,0,0,0,0,29,29,29,,,,,,,,,,,,,,,,,,,,,,,,,,,,,,,,,,,,,,,,,,,,,,,,,,,,,,,,,,,,,,,,,,,,,,,,,,,,,,,,,,,,,,,,,,,,,,,,,,,,,,,,,1263.1176324890002,1271.8235790090002,,,,,,,100721,1,3,2,3,1,1,2,0,60,2021_Oct_07_1139,listening_fmri,3.2.4,60.24855226936472,
5,parcelated_audio/41/41_31.ogg,,,,,,,,,0,0,0,0,0,5,5,5,0,0,0,0,,,,,,,,,,,,,0,0,0,0,0,30,30,30,,,,,,,,,,,,,,,,,,,,,,,,,,,,,,,,,,,,,,,,,,,,,,,,,,,,,,,,,,,,,,,,,,,,,,,,,,,,,,,,,,,,,,,,,,,,,,,,,,,,,,,,,1271.8239453059996,1282.5656568089998,,,,,,,100721,1,3,2,3,1,1,2,0,60,2021_Oct_07_1139,listening_fmri,3.2.4,60.24855226936472,
5,parcelated_audio/41/41_32.ogg,,,,,,,,,0,0,0,0,0,5,5,5,0,0,0,0,,,,,,,,,,,,,0,0,0,0,0,31,31,31,,,,,,,,,,,,,,,,,,,,,,,,,,,,,,,,,,,,,,,,,,,,,,,,,,,,,,,,,,,,,,,,,,,,,,,,,,,,,,,,,,,,,,,,,,,,,,,,,,,,,,,,,1282.5660120129996,1290.90930122,,,,,,,100721,1,3,2,3,1,1,2,0,60,2021_Oct_07_1139,listening_fmri,3.2.4,60.24855226936472,
5,parcelated_audio/41/41_33.ogg,,,,,,,,,0,0,0,0,0,5,5,5,0,0,0,0,,,,,,,,,,,,,0,0,0,0,0,32,32,32,,,,,,,,,,,,,,,,,,,,,,,,,,,,,,,,,,,,,,,,,,,,,,,,,,,,,,,,,,,,,,,,,,,,,,,,,,,,,,,,,,,,,,,,,,,,,,,,,,,,,,,,,1290.909651262,1294.987344534,,,,,,,100721,1,3,2,3,1,1,2,0,60,2021_Oct_07_1139,listening_fmri,3.2.4,60.24855226936472,
5,parcelated_audio/41/41_34.ogg,,,,,,,,,0,0,0,0,0,5,5,5,0,0,0,0,,,,,,,,,,,,,0,0,0,0,0,33,33,33,,,,,,,,,,,,,,,,,,,,,,,,,,,,,,,,,,,,,,,,,,,,,,,,,,,,,,,,,,,,,,,,,,,,,,,,,,,,,,,,,,,,,,,,,,,,,,,,,,,,,,,,,1294.9886916690002,1300.508386724,,,,,,,100721,1,3,2,3,1,1,2,0,60,2021_Oct_07_1139,listening_fmri,3.2.4,60.24855226936472,
5,parcelated_audio/41/41_35.ogg,,,,,,,,,0,0,0,0,0,5,5,5,0,0,0,0,,,,,,,,,,,,,0,0,0,0,0,34,34,34,,,,,,,,,,,,,,,,,,,,,,,,,,,,,,,,,,,,,,,,,,,,,,,,,,,,,,,,,,,,,,,,,,,,,,,,,,,,,,,,,,,,,,,,,,,,,,,,,,,,,,,,,1300.5093146529998,1306.076477298,,,,,,,100721,1,3,2,3,1,1,2,0,60,2021_Oct_07_1139,listening_fmri,3.2.4,60.24855226936472,
5,parcelated_audio/41/41_36.ogg,,,,,,,,,0,0,0,0,0,5,5,5,0,0,0,0,,,,,,,,,,,,,0,0,0,0,0,35,35,35,,,,,,,,,,,,,,,,,,,,,,,,,,,,,,,,,,,,,,,,,,,,,,,,,,,,,,,,,,,,,,,,,,,,,,,,,,,,,,,,,,,,,,,,,,,,,,,,,,,,,,,,,1306.0767923309995,1313.0847776419996,,,,,,,100721,1,3,2,3,1,1,2,0,60,2021_Oct_07_1139,listening_fmri,3.2.4,60.24855226936472,
5,parcelated_audio/41/41_37.ogg,,,,,,,,,0,0,0,0,0,5,5,5,0,0,0,0,,,,,,,,,,,,,0,0,0,0,0,36,36,36,,,,,,,,,,,,,,,,,,,,,,,,,,,,,,,,,,,,,,,,,,,,,,,,,,,,,,,,,,,,,,,,,,,,,,,,,,,,,,,,,,,,,,,,,,,,,,,,,,,,,,,,,1313.0851139369997,1318.5662326350002,,,,,,,100721,1,3,2,3,1,1,2,0,60,2021_Oct_07_1139,listening_fmri,3.2.4,60.24855226936472,
5,,,,,,,,,,0,0,0,0,0,5,5,5,0,0,0,0,,,,,,,,,,,,,0,0,0,0,,,,,,,,,,,,,,,,,,,,,,,,,,,,,,,,,,,,,,,,,,,,,,,,,,,,,,,,,,,,,,,,,,,,,,,,,,,,,,,,,,,,,,,,,,,,,,,,,,,,,,,,,,,,,,,,,,,,,100721,1,3,2,3,1,1,2,0,60,2021_Oct_07_1139,listening_fmri,3.2.4,60.24855226936472,
5,,,,,,,,,,0,0,0,0,0,5,5,5,0,0,0,0,,,,,,,,,,,,,,,,,,,,,,,,,,,,,,,,,,,,,,,,,,1318.5666871909998,1324.564233512,1370.5472270950004,None,,,,,,,,,,,,,,,,,,,,,,,,,,,,,,,,,,,,,,,,,,,,,,,,,,,,,,,,,,,,,,,,,,,,,,,,,,,,,,,,,,1376.5468526170007,None,1376.5468526170007,None,,,100721,1,3,2,3,1,1,2,0,60,2021_Oct_07_1139,listening_fmri,3.2.4,60.24855226936472,
5,,,,,,,,,,0,0,0,0,0,5,5,5,,,,,,,,,,,,,,,,,,,,,,,,,,,,,,,,,,,,,,,,,,,,,,,,,,,,,,,,,,,,,,,,,,,,,,,,,,,,,,,,,,,,,,,,,,,,,,,,,,,,,,,,,,,,,,,,,,,,,,,,,,,,,,,,,,,,,,,,,100721,1,3,2,3,1,1,2,0,60,2021_Oct_07_1139,listening_fmri,3.2.4,60.24855226936472,
6,,,,,,,,,,0,0,0,0,0,6,6,6,0,0,0,0,0,0,0,0,0,0,0,0,,,,,,,,,,,,,,,,,,,,,,,,,,,,,,,,,,,,,,1377.5799544420006,None,1377.5799544420006,None,2,1.9792444600007002,1377.5799544420006,None,1377.5799544420006,None,1379.580216063,None,2,1.1629927960002533,1379.580216063,None,1379.580216063,None,1380.7822593390001,None,1380.7822593390001,None,1380.7822593390001,None,2,3.6229362419999234,1380.7822593390001,None,1384.4306491030002,None,7,5.046415858000728,1384.4306491030002,None,1384.4306491030002,None,1389.5630116430002,None,1389.5630116430002,None,1389.5630116430002,None,1389.5630116430002,None,1389.5630116430002,None,1389.5630116430002,None,1389.5630116430002,None,None,1389.5630116430002,None,,,,,,,,,,,,,,,,,,,,,,,,,,,,,,,,,,,100721,1,3,2,3,1,1,2,0,60,2021_Oct_07_1139,listening_fmri,3.2.4,60.24855226936472,
6,,,,,,,,,,0,0,0,0,0,6,6,6,0,0,0,0,0,0,0,0,,,,,,,,,,,,,,,,,,,,,,,,,,,,,,,,,,,,,,,,,,,,,,,,,,,,,,,,,,,,,,,,,,,,,,,,,,,,,,,,,,,,,,,,,,,,,,,1416.2643444770001,None,2,3.9898751309992804,1416.2643444770001,None,1416.2643444770001,None,1420.2973026380005,None,1420.2973026380005,None,1420.2973026380005,None,2,1.7187899289992856,1420.2973026380005,None,,,,,,,,,,,,,,,,,100721,1,3,2,3,1,1,2,0,60,2021_Oct_07_1139,listening_fmri,3.2.4,60.24855226936472,
6,parcelated_audio/21/21_1.ogg,,,,,,,,,0,0,0,0,0,6,6,6,0,0,0,0,,,,,,,,,,,,,0,0,0,0,0,0,0,0,,,,,,,,,,,,,,,,,,,,,,,,,,,,,,,,,,,,,,,,,,,,,,,,,,,,,,,,,,,,,,,,,,,,,,,,,,,,,,,,,,,,,,,,,,,,,,,,,1422.0473811950005,None,2,1.9418306750003467,1422.0473811950005,None,1372.0467748649999,1375.0472088269998,1375.0532536720002,1389.3132330179997,,,,,,,100721,1,3,2,3,1,1,2,0,60,2021_Oct_07_1139,listening_fmri,3.2.4,60.24855226936472,
6,parcelated_audio/21/21_2.ogg,,,,,,,,,0,0,0,0,0,6,6,6,0,0,0,0,,,,,,,,,,,,,0,0,0,0,0,1,1,1,,,,,,,,,,,,,,,,,,,,,,,,,,,,,,,,,,,,,,,,,,,,,,,,,,,,,,,,,,,,,,,,,,,,,,,,,,,,,,,,,,,,,,,,,,,,,,,,,,,,,,,,,1389.3139669900002,1396.7334630200003,,,,,,,100721,1,3,2,3,1,1,2,0,60,2021_Oct_07_1139,listening_fmri,3.2.4,60.24855226936472,
6,parcelated_audio/21/21_3.ogg,,,,,,,,,0,0,0,0,0,6,6,6,0,0,0,0,,,,,,,,,,,,,0,0,0,0,0,2,2,2,,,,,,,,,,,,,,,,,,,,,,,,,,,,,,,,,,,,,,,,,,,,,,,,,,,,,,,,,,,,,,,,,,,,,,,,,,,,,,,,,,,,,,,,,,,,,,,,,,,,,,,,,1396.7343178849997,1404.421393822,,,,,,,100721,1,3,2,3,1,1,2,0,60,2021_Oct_07_1139,listening_fmri,3.2.4,60.24855226936472,
6,parcelated_audio/21/21_4.ogg,,,,,,,,,0,0,0,0,0,6,6,6,0,0,0,0,,,,,,,,,,,,,0,0,0,0,0,3,3,3,,,,,,,,,,,,,,,,,,,,,,,,,,,,,,,,,,,,,,,,,,,,,,,,,,,,,,,,,,,,,,,,,,,,,,,,,,,,,,,,,,,,,,,,,,,,,,,,,,,,,,,,,1404.4225414909997,1415.4619218059997,,,,,,,100721,1,3,2,3,1,1,2,0,60,2021_Oct_07_1139,listening_fmri,3.2.4,60.24855226936472,
6,parcelated_audio/21/21_5.ogg,,,,,,,,,0,0,0,0,0,6,6,6,0,0,0,0,,,,,,,,,,,,,0,0,0,0,0,4,4,4,,,,,,,,,,,,,,,,,,,,,,,,,,,,,,,,,,,,,,,,,,,,,,,,,,,,,,,,,,,,,,,,,,,,,,,,,,,,,,,,,,,,,,,,,,,,,,,,,,,,,,,,,1415.4627605510004,1420.5303060759998,,,,,,,100721,1,3,2,3,1,1,2,0,60,2021_Oct_07_1139,listening_fmri,3.2.4,60.24855226936472,
6,parcelated_audio/21/21_6.ogg,,,,,,,,,0,0,0,0,0,6,6,6,0,0,0,0,,,,,,,,,,,,,0,0,0,0,0,5,5,5,,,,,,,,,,,,,,,,,,,,,,,,,,,,,,,,,,,,,,,,,,,,,,,,,,,,,,,,,,,,,,,,,,,,,,,,,,,,,,,,,,,,,,,,,,,,,,,,,,,,,,,,,1420.5311633869997,1428.6859336010002,,,,,,,100721,1,3,2,3,1,1,2,0,60,2021_Oct_07_1139,listening_fmri,3.2.4,60.24855226936472,
6,parcelated_audio/21/21_7.ogg,,,,,,,,,0,0,0,0,0,6,6,6,0,0,0,0,,,,,,,,,,,,,0,0,0,0,0,6,6,6,,,,,,,,,,,,,,,,,,,,,,,,,,,,,,,,,,,,,,,,,,,,,,,,,,,,,,,,,,,,,,,,,,,,,,,,,,,,,,,,,,,,,,,,,,,,,,,,,,,,,,,,,1428.686287308,1433.2087085960002,,,,,,,100721,1,3,2,3,1,1,2,0,60,2021_Oct_07_1139,listening_fmri,3.2.4,60.24855226936472,
6,parcelated_audio/21/21_8.ogg,,,,,,,,,0,0,0,0,0,6,6,6,0,0,0,0,,,,,,,,,,,,,0,0,0,0,0,7,7,7,,,,,,,,,,,,,,,,,,,,,,,,,,,,,,,,,,,,,,,,,,,,,,,,,,,,,,,,,,,,,,,,,,,,,,,,,,,,,,,,,,,,,,,,,,,,,,,,,,,,,,,,,1433.209060229,1444.1074856960004,,,,,,,100721,1,3,2,3,1,1,2,0,60,2021_Oct_07_1139,listening_fmri,3.2.4,60.24855226936472,
6,parcelated_audio/21/21_9.ogg,,,,,,,,,0,0,0,0,0,6,6,6,0,0,0,0,,,,,,,,,,,,,0,0,0,0,0,8,8,8,,,,,,,,,,,,,,,,,,,,,,,,,,,,,,,,,,,,,,,,,,,,,,,,,,,,,,,,,,,,,,,,,,,,,,,,,,,,,,,,,,,,,,,,,,,,,,,,,,,,,,,,,1444.1078528959997,1451.4886411830003,,,,,,,100721,1,3,2,3,1,1,2,0,60,2021_Oct_07_1139,listening_fmri,3.2.4,60.24855226936472,
6,parcelated_audio/21/21_10.ogg,,,,,,,,,0,0,0,0,0,6,6,6,0,0,0,0,,,,,,,,,,,,,0,0,0,0,0,9,9,9,,,,,,,,,,,,,,,,,,,,,,,,,,,,,,,,,,,,,,,,,,,,,,,,,,,,,,,,,,,,,,,,,,,,,,,,,,,,,,,,,,,,,,,,,,,,,,,,,,,,,,,,,1451.4891546589997,1458.333898598,,,,,,,100721,1,3,2,3,1,1,2,0,60,2021_Oct_07_1139,listening_fmri,3.2.4,60.24855226936472,
6,parcelated_audio/21/21_11.ogg,,,,,,,,,0,0,0,0,0,6,6,6,0,0,0,0,,,,,,,,,,,,,0,0,0,0,0,10,10,10,,,,,,,,,,,,,,,,,,,,,,,,,,,,,,,,,,,,,,,,,,,,,,,,,,,,,,,,,,,,,,,,,,,,,,,,,,,,,,,,,,,,,,,,,,,,,,,,,,,,,,,,,1458.3343982830002,1465.4327716360003,,,,,,,100721,1,3,2,3,1,1,2,0,60,2021_Oct_07_1139,listening_fmri,3.2.4,60.24855226936472,
6,parcelated_audio/21/21_12.ogg,,,,,,,,,0,0,0,0,0,6,6,6,0,0,0,0,,,,,,,,,,,,,0,0,0,0,0,11,11,11,,,,,,,,,,,,,,,,,,,,,,,,,,,,,,,,,,,,,,,,,,,,,,,,,,,,,,,,,,,,,,,,,,,,,,,,,,,,,,,,,,,,,,,,,,,,,,,,,,,,,,,,,1465.4331687909998,1473.742629323,,,,,,,100721,1,3,2,3,1,1,2,0,60,2021_Oct_07_1139,listening_fmri,3.2.4,60.24855226936472,
6,parcelated_audio/21/21_13.ogg,,,,,,,,,0,0,0,0,0,6,6,6,0,0,0,0,,,,,,,,,,,,,0,0,0,0,0,12,12,12,,,,,,,,,,,,,,,,,,,,,,,,,,,,,,,,,,,,,,,,,,,,,,,,,,,,,,,,,,,,,,,,,,,,,,,,,,,,,,,,,,,,,,,,,,,,,,,,,,,,,,,,,1473.742952257,1477.0795773150003,,,,,,,100721,1,3,2,3,1,1,2,0,60,2021_Oct_07_1139,listening_fmri,3.2.4,60.24855226936472,
6,parcelated_audio/21/21_14.ogg,,,,,,,,,0,0,0,0,0,6,6,6,0,0,0,0,,,,,,,,,,,,,0,0,0,0,0,13,13,13,,,,,,,,,,,,,,,,,,,,,,,,,,,,,,,,,,,,,,,,,,,,,,,,,,,,,,,,,,,,,,,,,,,,,,,,,,,,,,,,,,,,,,,,,,,,,,,,,,,,,,,,,1477.0806010220003,1482.4813803569996,,,,,,,100721,1,3,2,3,1,1,2,0,60,2021_Oct_07_1139,listening_fmri,3.2.4,60.24855226936472,
6,parcelated_audio/21/21_15.ogg,,,,,,,,,0,0,0,0,0,6,6,6,0,0,0,0,,,,,,,,,,,,,0,0,0,0,0,14,14,14,,,,,,,,,,,,,,,,,,,,,,,,,,,,,,,,,,,,,,,,,,,,,,,,,,,,,,,,,,,,,,,,,,,,,,,,,,,,,,,,,,,,,,,,,,,,,,,,,,,,,,,,,1482.4816898689996,1489.295488236,,,,,,,100721,1,3,2,3,1,1,2,0,60,2021_Oct_07_1139,listening_fmri,3.2.4,60.24855226936472,
6,parcelated_audio/21/21_16.ogg,,,,,,,,,0,0,0,0,0,6,6,6,0,0,0,0,,,,,,,,,,,,,0,0,0,0,0,15,15,15,,,,,,,,,,,,,,,,,,,,,,,,,,,,,,,,,,,,,,,,,,,,,,,,,,,,,,,,,,,,,,,,,,,,,,,,,,,,,,,,,,,,,,,,,,,,,,,,,,,,,,,,,1489.2958202890004,1495.367354764,,,,,,,100721,1,3,2,3,1,1,2,0,60,2021_Oct_07_1139,listening_fmri,3.2.4,60.24855226936472,
6,parcelated_audio/21/21_17.ogg,,,,,,,,,0,0,0,0,0,6,6,6,0,0,0,0,,,,,,,,,,,,,0,0,0,0,0,16,16,16,,,,,,,,,,,,,,,,,,,,,,,,,,,,,,,,,,,,,,,,,,,,,,,,,,,,,,,,,,,,,,,,,,,,,,,,,,,,,,,,,,,,,,,,,,,,,,,,,,,,,,,,,1495.3676366179998,1497.5194939390003,,,,,,,100721,1,3,2,3,1,1,2,0,60,2021_Oct_07_1139,listening_fmri,3.2.4,60.24855226936472,
6,parcelated_audio/21/21_18.ogg,,,,,,,,,0,0,0,0,0,6,6,6,0,0,0,0,,,,,,,,,,,,,0,0,0,0,0,17,17,17,,,,,,,,,,,,,,,,,,,,,,,,,,,,,,,,,,,,,,,,,,,,,,,,,,,,,,,,,,,,,,,,,,,,,,,,,,,,,,,,,,,,,,,,,,,,,,,,,,,,,,,,,1497.520380201,1510.669473547,,,,,,,100721,1,3,2,3,1,1,2,0,60,2021_Oct_07_1139,listening_fmri,3.2.4,60.24855226936472,
6,parcelated_audio/21/21_19.ogg,,,,,,,,,0,0,0,0,0,6,6,6,0,0,0,0,,,,,,,,,,,,,0,0,0,0,0,18,18,18,,,,,,,,,,,,,,,,,,,,,,,,,,,,,,,,,,,,,,,,,,,,,,,,,,,,,,,,,,,,,,,,,,,,,,,,,,,,,,,,,,,,,,,,,,,,,,,,,,,,,,,,,1510.669769534,1513.5455151639999,,,,,,,100721,1,3,2,3,1,1,2,0,60,2021_Oct_07_1139,listening_fmri,3.2.4,60.24855226936472,
6,parcelated_audio/21/21_20.ogg,,,,,,,,,0,0,0,0,0,6,6,6,0,0,0,0,,,,,,,,,,,,,0,0,0,0,0,19,19,19,,,,,,,,,,,,,,,,,,,,,,,,,,,,,,,,,,,,,,,,,,,,,,,,,,,,,,,,,,,,,,,,,,,,,,,,,,,,,,,,,,,,,,,,,,,,,,,,,,,,,,,,,1513.5459257510001,1522.2724344179996,,,,,,,100721,1,3,2,3,1,1,2,0,60,2021_Oct_07_1139,listening_fmri,3.2.4,60.24855226936472,
6,parcelated_audio/21/21_21.ogg,,,,,,,,,0,0,0,0,0,6,6,6,0,0,0,0,,,,,,,,,,,,,0,0,0,0,0,20,20,20,,,,,,,,,,,,,,,,,,,,,,,,,,,,,,,,,,,,,,,,,,,,,,,,,,,,,,,,,,,,,,,,,,,,,,,,,,,,,,,,,,,,,,,,,,,,,,,,,,,,,,,,,1522.2728019380002,1533.3070907350002,,,,,,,100721,1,3,2,3,1,1,2,0,60,2021_Oct_07_1139,listening_fmri,3.2.4,60.24855226936472,
6,parcelated_audio/21/21_22.ogg,,,,,,,,,0,0,0,0,0,6,6,6,0,0,0,0,,,,,,,,,,,,,0,0,0,0,0,21,21,21,,,,,,,,,,,,,,,,,,,,,,,,,,,,,,,,,,,,,,,,,,,,,,,,,,,,,,,,,,,,,,,,,,,,,,,,,,,,,,,,,,,,,,,,,,,,,,,,,,,,,,,,,1533.3080213989997,1544.2431331830003,,,,,,,100721,1,3,2,3,1,1,2,0,60,2021_Oct_07_1139,listening_fmri,3.2.4,60.24855226936472,
6,parcelated_audio/21/21_23.ogg,,,,,,,,,0,0,0,0,0,6,6,6,0,0,0,0,,,,,,,,,,,,,0,0,0,0,0,22,22,22,,,,,,,,,,,,,,,,,,,,,,,,,,,,,,,,,,,,,,,,,,,,,,,,,,,,,,,,,,,,,,,,,,,,,,,,,,,,,,,,,,,,,,,,,,,,,,,,,,,,,,,,,1544.2435020069997,1549.206532143,,,,,,,100721,1,3,2,3,1,1,2,0,60,2021_Oct_07_1139,listening_fmri,3.2.4,60.24855226936472,
6,parcelated_audio/21/21_24.ogg,,,,,,,,,0,0,0,0,0,6,6,6,0,0,0,0,,,,,,,,,,,,,0,0,0,0,0,23,23,23,,,,,,,,,,,,,,,,,,,,,,,,,,,,,,,,,,,,,,,,,,,,,,,,,,,,,,,,,,,,,,,,,,,,,,,,,,,,,,,,,,,,,,,,,,,,,,,,,,,,,,,,,1549.2068353539998,1553.8035234569998,,,,,,,100721,1,3,2,3,1,1,2,0,60,2021_Oct_07_1139,listening_fmri,3.2.4,60.24855226936472,
6,parcelated_audio/21/21_25.ogg,,,,,,,,,0,0,0,0,0,6,6,6,0,0,0,0,,,,,,,,,,,,,0,0,0,0,0,24,24,24,,,,,,,,,,,,,,,,,,,,,,,,,,,,,,,,,,,,,,,,,,,,,,,,,,,,,,,,,,,,,,,,,,,,,,,,,,,,,,,,,,,,,,,,,,,,,,,,,,,,,,,,,1553.8038759170004,1563.2433798949996,,,,,,,100721,1,3,2,3,1,1,2,0,60,2021_Oct_07_1139,listening_fmri,3.2.4,60.24855226936472,
6,parcelated_audio/21/21_26.ogg,,,,,,,,,0,0,0,0,0,6,6,6,0,0,0,0,,,,,,,,,,,,,0,0,0,0,0,25,25,25,,,,,,,,,,,,,,,,,,,,,,,,,,,,,,,,,,,,,,,,,,,,,,,,,,,,,,,,,,,,,,,,,,,,,,,,,,,,,,,,,,,,,,,,,,,,,,,,,,,,,,,,,1563.2438607109998,1567.239671585,,,,,,,100721,1,3,2,3,1,1,2,0,60,2021_Oct_07_1139,listening_fmri,3.2.4,60.24855226936472,
6,parcelated_audio/21/21_27.ogg,,,,,,,,,0,0,0,0,0,6,6,6,0,0,0,0,,,,,,,,,,,,,0,0,0,0,0,26,26,26,,,,,,,,,,,,,,,,,,,,,,,,,,,,,,,,,,,,,,,,,,,,,,,,,,,,,,,,,,,,,,,,,,,,,,,,,,,,,,,,,,,,,,,,,,,,,,,,,,,,,,,,,1567.2400263460004,1574.4274600850003,,,,,,,100721,1,3,2,3,1,1,2,0,60,2021_Oct_07_1139,listening_fmri,3.2.4,60.24855226936472,
6,parcelated_audio/21/21_28.ogg,,,,,,,,,0,0,0,0,0,6,6,6,0,0,0,0,,,,,,,,,,,,,0,0,0,0,0,27,27,27,,,,,,,,,,,,,,,,,,,,,,,,,,,,,,,,,,,,,,,,,,,,,,,,,,,,,,,,,,,,,,,,,,,,,,,,,,,,,,,,,,,,,,,,,,,,,,,,,,,,,,,,,1574.4278823949999,1580.54463794,,,,,,,100721,1,3,2,3,1,1,2,0,60,2021_Oct_07_1139,listening_fmri,3.2.4,60.24855226936472,
6,parcelated_audio/21/21_29.ogg,,,,,,,,,0,0,0,0,0,6,6,6,0,0,0,0,,,,,,,,,,,,,0,0,0,0,0,28,28,28,,,,,,,,,,,,,,,,,,,,,,,,,,,,,,,,,,,,,,,,,,,,,,,,,,,,,,,,,,,,,,,,,,,,,,,,,,,,,,,,,,,,,,,,,,,,,,,,,,,,,,,,,1580.5449928130001,1584.7995795349998,,,,,,,100721,1,3,2,3,1,1,2,0,60,2021_Oct_07_1139,listening_fmri,3.2.4,60.24855226936472,
6,parcelated_audio/21/21_30.ogg,,,,,,,,,0,0,0,0,0,6,6,6,0,0,0,0,,,,,,,,,,,,,0,0,0,0,0,29,29,29,,,,,,,,,,,,,,,,,,,,,,,,,,,,,,,,,,,,,,,,,,,,,,,,,,,,,,,,,,,,,,,,,,,,,,,,,,,,,,,,,,,,,,,,,,,,,,,,,,,,,,,,,1584.799944159,1590.0727041970003,,,,,,,100721,1,3,2,3,1,1,2,0,60,2021_Oct_07_1139,listening_fmri,3.2.4,60.24855226936472,
6,,,,,,,,,,0,0,0,0,0,6,6,6,0,0,0,0,,,,,,,,,,,,,0,0,0,0,,,,,,,,,,,,,,,,,,,,,,,,,,,,,,,,,,,,,,,,,,,,,,,,,,,,,,,,,,,,,,,,,,,,,,,,,,,,,,,,,,,,,,,,,,,,,,,,,,,,,,,,,,,,,,,,,,,,,100721,1,3,2,3,1,1,2,0,60,2021_Oct_07_1139,listening_fmri,3.2.4,60.24855226936472,
6,,,,,,,,,,0,0,0,0,0,6,6,6,0,0,0,0,,,,,,,,,,,,,,,,,,,,,,,,,,,,,,,,,,,,,,,,,,1590.0731972169997,1596.0649446409998,1642.0458109620004,None,,,,,,,,,,,,,,,,,,,,,,,,,,,,,,,,,,,,,,,,,,,,,,,,,,,,,,,,,,,,,,,,,,,,,,,,,,,,,,,,,,1648.0476455870003,None,1648.0476455870003,None,,,100721,1,3,2,3,1,1,2,0,60,2021_Oct_07_1139,listening_fmri,3.2.4,60.24855226936472,
6,,,,,,,,,,0,0,0,0,0,6,6,6,,,,,,,,,,,,,,,,,,,,,,,,,,,,,,,,,,,,,,,,,,,,,,,,,,,,,,,,,,,,,,,,,,,,,,,,,,,,,,,,,,,,,,,,,,,,,,,,,,,,,,,,,,,,,,,,,,,,,,,,,,,,,,,,,,,,,,,,,100721,1,3,2,3,1,1,2,0,60,2021_Oct_07_1139,listening_fmri,3.2.4,60.24855226936472,
7,,,,,,,,,,0,0,0,0,0,7,7,7,,,,,,,,,,,,,,,,,,,,,,,,,,,,,,,,,,,,,,,,,,,,,,,,,,,,,,,,,,,,,,,,,,,,,,,,,,,,,,,,,,,,,,,,,,,,,,,,,,,,,,,,,,,,,,,,,,,,,,,,,,,,,,,,,,,,,,,,,100721,1,3,2,3,1,1,2,0,60,2021_Oct_07_1139,listening_fmri,3.2.4,60.24855226936472,
,,,,,,,,,,0,0,0,0,,,,,,,,,,,,,,,,,,,,,,,,,,,,,,,,,,,,,,,,,,,,,,,,,,,,,,,,,,,,,,,,,,,,,,,,,,,,,,,,,,,,,,,,,,,,,,,,,,,,,,,,,,,,,,,,,,,,,,,,,,,,,,,,,,,,,,,,,,,,,100721,1,3,2,3,1,1,2,0,60,2021_Oct_07_1139,listening_fmri,3.2.4,60.24855226936472,
,,,,,,,,,,,,,,,,,,,,,,,,,,,,,,,,,,,,,,,,,,,,,,0,0,0,0,,,,,,,,,,,,,,,,,,,,,,,,,,,,,,,,,,,,,,,,,,,,,,,,,,,,,,,,,,,,,,,,,,,,,,,,,,,,,,,,,,,,,,,,,,,,,,,,,,,,,,,1649.0783092370002,None,100721,1,3,2,3,1,1,2,0,60,2021_Oct_07_1139,listening_fmri,3.2.4,60.24855226936472,
,,,,,,,,,,,,,,,,,,,,,,,,,,,,,,,,,,,,,,,,,,,,,,1,0,1,0,,,,,,,,,,,,,,,,,,,,,,,,,,,,,,,,,,,,,,,,,,,,,,,,,,,,,,,,,,,,,,,,,,,,,,,,,,,,,,,,,,,,,,,,,,,,,,,,,,,,,,,1649.5813016010006,1649.5813016010006,100721,1,3,2,3,1,1,2,0,60,2021_Oct_07_1139,listening_fmri,3.2.4,60.24855226936472,
,,,,,,,,,,,,,,,,,,,,,,,,,,,,,,,,,,,,,,,,,,,,,,2,0,2,0,,,,,,,,,,,,,,,,,,,,,,,,,,,,,,,,,,,,,,,,,,,,,,,,,,,,,,,,,,,,,,,,,,,,,,,,,,,,,,,,,,,,,,,,,,,,,,,,,,,,,,,1650.0812547570004,1650.0812547570004,100721,1,3,2,3,1,1,2,0,60,2021_Oct_07_1139,listening_fmri,3.2.4,60.24855226936472,
,,,,,,,,,,,,,,,,,,,,,,,,,,,,,,,,,,,,,,,,,,,,,,3,0,3,0,,,,,,,,,,,,,,,,,,,,,,,,,,,,,,,,,,,,,,,,,,,,,,,,,,,,,,,,,,,,,,,,,,,,,,,,,,,,,,,,,,,,,,,,,,,,,,,,,,,,,,,1650.5813309720006,1650.5813309720006,100721,1,3,2,3,1,1,2,0,60,2021_Oct_07_1139,listening_fmri,3.2.4,60.24855226936472,
,,,,,,,,,,,,,,,,,,,,,,,,,,,,,,,,,,,,,,,,,,,,,,4,0,4,0,,,,,,,,,,,,,,,,,,,,,,,,,,,,,,,,,,,,,,,,,,,,,,,,,,,,,,,,,,,,,,,,,,,,,,,,,,,,,,,,,,,,,,,,,,,,,,,,,,,,,,,1651.0813889250003,1651.0813889250003,100721,1,3,2,3,1,1,2,0,60,2021_Oct_07_1139,listening_fmri,3.2.4,60.24855226936472,
