instructText,count,trials_5.thisRepN,trials_5.thisTrialN,trials_5.thisN,trials_5.thisIndex,trials_6.thisRepN,trials_6.thisTrialN,trials_6.thisN,trials_6.thisIndex,trials.thisRepN,trials.thisTrialN,trials.thisN,trials.thisIndex,trials_8.thisRepN,trials_8.thisTrialN,trials_8.thisN,trials_8.thisIndex,story_list_block1,action_list_block1,story_list_block2,action_list_block2,key_resp_3.keys,key_resp_3.rt,key_resp_3.started,key_resp_3.stopped,text_13.started,text_13.stopped,text_23.started,text_23.stopped,text_43.started,text_43.stopped,key_resp_11.keys,key_resp_11.rt,key_resp_11.started,key_resp_11.stopped,text_44.started,text_44.stopped,text_53.started,text_53.stopped,image_10.started,image_10.stopped,text_22.started,text_22.stopped,recall,question1_answer,order of question,text_14.started,text_14.stopped,text_15.started,text_15.stopped,image_6.started,image_6.stopped,polygon_3.started,polygon_3.stopped,bottom_line_3.started,bottom_line_3.stopped,right_line_3.started,right_line_3.stopped,left_line_3.started,left_line_3.stopped,question2_answer,text_16.started,text_16.stopped,text_17.started,text_17.stopped,image_7.started,image_7.stopped,polygon_4.started,polygon_4.stopped,bottom_line_4.started,bottom_line_4.stopped,right_line_4.started,right_line_4.stopped,left_line_4.started,left_line_4.stopped,question3_answer,text_18.started,text_18.stopped,text_19.started,text_19.stopped,image_8.started,image_8.stopped,polygon_5.started,polygon_5.stopped,bottom_line_5.started,bottom_line_5.stopped,right_line_5.started,right_line_5.stopped,left_line_5.started,left_line_5.stopped,question4_answer,text_20.started,text_20.stopped,text_21.started,text_21.stopped,image_9.started,image_9.stopped,polygon_6.started,polygon_6.stopped,bottom_line_6.started,bottom_line_6.stopped,right_line_6.started,right_line_6.stopped,left_line_6.started,left_line_6.stopped,question5_answer,text_25.started,text_25.stopped,text_26.started,text_26.stopped,image_11.started,image_11.stopped,polygon_7.started,polygon_7.stopped,bottom_line_7.started,bottom_line_7.stopped,right_line_7.started,right_line_7.stopped,left_line_7.started,left_line_7.stopped,question6_answer,text_27.started,text_27.stopped,text_28.started,text_28.stopped,image_12.started,image_12.stopped,polygon_8.started,polygon_8.stopped,bottom_line_8.started,bottom_line_8.stopped,right_line_8.started,right_line_8.stopped,left_line_8.started,left_line_8.stopped,question7_answer,text_29.started,text_29.stopped,text_30.started,text_30.stopped,image_13.started,image_13.stopped,polygon_9.started,polygon_9.stopped,bottom_line_9.started,bottom_line_9.stopped,right_line_9.started,right_line_9.stopped,left_line_9.started,left_line_9.stopped,question8_answer,text_31.started,text_31.stopped,text_32.started,text_32.stopped,image_14.started,image_14.stopped,polygon_10.started,polygon_10.stopped,bottom_line_10.started,bottom_line_10.stopped,right_line_10.started,right_line_10.stopped,left_line_10.started,left_line_10.stopped,text_36.started,text_36.stopped,participant,sA,sB,lA,lB,block_struct,random_seed,date,expName,psychopyVersion,frameRate,
"In the final part of the experiment, please answer 8 questions about each story.",,0,0,0,0,,,,,,,,,,,,,[31 44 42 11 24 22 13 33],[4 3 1 4 3 1 2 2],[14 32 34 43 12 41 21 23],[2 4 2 3 4 1 1 3],space,4.359600996000154,7.05288310800006,None,7.05288310800006,None,7.05288310800006,None,,,,,,,,,,,,,,,,,,,,,,,,,,,,,,,,,,,,,,,,,,,,,,,,,,,,,,,,,,,,,,,,,,,,,,,,,,,,,,,,,,,,,,,,,,,,,,,,,,,,,,,,,,,,,,,,,,,,,,,,,,,,,,,,,,,,,,,,,,,100721,1,3,2,3,1,60,2021_Oct_07_1243,short_answer,3.2.4,59.88042776780774,
"We did not tell you to think of all or some of these questions during the story, but please do your best to answer them.",,0,1,1,1,,,,,,,,,,,,,,,,,space,5.283287610000116,11.485582115000398,None,11.485582115000398,None,11.485582115000398,None,,,,,,,,,,,,,,,,,,,,,,,,,,,,,,,,,,,,,,,,,,,,,,,,,,,,,,,,,,,,,,,,,,,,,,,,,,,,,,,,,,,,,,,,,,,,,,,,,,,,,,,,,,,,,,,,,,,,,,,,,,,,,,,,,,,,,,,,,,,100721,1,3,2,3,1,60,2021_Oct_07_1243,short_answer,3.2.4,59.88042776780774,
"Answer as much as you remember, and be specific and concrete in your answers. It is best to try to be as faithful as possible to what the story actually said.
",,0,2,2,2,,,,,,,,,,,,,,,,,space,8.514328850999846,16.818870206000156,None,16.818870206000156,None,16.818870206000156,None,,,,,,,,,,,,,,,,,,,,,,,,,,,,,,,,,,,,,,,,,,,,,,,,,,,,,,,,,,,,,,,,,,,,,,,,,,,,,,,,,,,,,,,,,,,,,,,,,,,,,,,,,,,,,,,,,,,,,,,,,,,,,,,,,,,,,,,,,,,100721,1,3,2,3,1,60,2021_Oct_07_1243,short_answer,3.2.4,59.88042776780774,
"When you have finished typing your answer, hit ‘return’ to submit your answer and move onto the next question. ",,0,3,3,3,,,,,,,,,,,,,,,,,space,4.407763379000244,25.36954485000024,None,25.36954485000024,None,25.36954485000024,None,,,,,,,,,,,,,,,,,,,,,,,,,,,,,,,,,,,,,,,,,,,,,,,,,,,,,,,,,,,,,,,,,,,,,,,,,,,,,,,,,,,,,,,,,,,,,,,,,,,,,,,,,,,,,,,,,,,,,,,,,,,,,,,,,,,,,,,,,,,100721,1,3,2,3,1,60,2021_Oct_07_1243,short_answer,3.2.4,59.88042776780774,
,0,,,,,0,0,0,0,0,0,0,0,,,,,,,,,,,,,,,,,29.819464431000142,None,space,27.809071141000004,29.819464431000142,None,29.819464431000142,None,29.819464431000142,None,57.774273168000036,None,57.774273168000036,None,They both think the steaks are a little over cooked,"Mr. shelton was cfo and mr gordon was ceo of a separate, smaller company","[1, 2]",60.66994389399997,None,60.66994389399997,None,60.66994389399997,None,60.66994389399997,None,60.66994389399997,None,60.66994389399997,None,60.66994389399997,None,600 million dollars,120.135668291,None,120.135668291,None,120.135668291,None,120.135668291,None,120.135668291,None,120.135668291,None,120.135668291,None,Techjet,128.03521576100002,None,128.03521576100002,None,128.03521576100002,None,128.03521576100002,None,128.03521576100002,None,128.03521576100002,None,128.03521576100002,None,,141.26882397500003,None,141.26882397500003,None,141.26882397500003,None,141.26882397500003,None,141.26882397500003,None,141.26882397500003,None,141.26882397500003,None,Very fancy with candelabras on every table,160.60157622600036,None,160.60157622600036,None,160.60157622600036,None,160.60157622600036,None,160.60157622600036,None,160.60157622600036,None,160.60157622600036,None,Covered in black felt,179.20068022800024,None,179.20068022800024,None,179.20068022800024,None,179.20068022800024,None,179.20068022800024,None,179.20068022800024,None,179.20068022800024,None,Mr. gordon gets a medium rare steak,187.10153334100005,None,187.10153334100005,None,187.10153334100005,None,187.10153334100005,None,187.10153334100005,None,187.10153334100005,None,187.10153334100005,None,They both think the steaks are a little over cooked,216.16749094100032,None,216.16749094100032,None,216.16749094100032,None,216.16749094100032,None,216.16749094100032,None,216.16749094100032,None,216.16749094100032,None,,,100721,1,3,2,3,1,60,2021_Oct_07_1243,short_answer,3.2.4,59.88042776780774,
,0,,,,,0,0,0,0,,,,,,,,,,,,,,,,,,,,,,,,,,,,,,,,,,,,,,,,,,,,,,,,,,,,,,,,,,,,,,,,,,,,,,,,,,,,,,,,,,,,,,,,,,,,,,,,,,,,,,,,,,,,,,,,,,,,,,,,,,,,,,,,,,,,,,,,,,,,,,,,,,,,,,,,,,,,,,,100721,1,3,2,3,1,60,2021_Oct_07_1243,short_answer,3.2.4,59.88042776780774,
,1,,,,,0,1,1,1,,,,,,,,,,,,,,,,,,,,,,,,,,,,,,,,,,,,,,,,,,,,,,,,,,,,,,,,,,,,,,,,,,,,,,,,,,,,,,,,,,,,,,,,,,,,,,,,,,,,,,,,,,,,,,,,,,,,,,,,,,,,,,,,,,,,,,,,,,,,,,,,,,,,,,,,,,,,,,,100721,1,3,2,3,1,60,2021_Oct_07_1243,short_answer,3.2.4,59.88042776780774,
,2,,,,,0,2,2,2,0,0,0,0,,,,,,,,,,,,,,,,,237.983876195,None,space,5.368738632000259,237.983876195,None,237.983876195,None,237.983876195,None,243.399994849,None,243.399994849,None,1055,Anna has very little time ,"[2, 1]",245.51734947600016,None,245.51734947600016,None,245.51734947600016,None,245.51734947600016,None,245.51734947600016,None,245.51734947600016,None,245.51734947600016,None,Someone ahead of them has a lot of metal objects ,261.899571467,None,261.899571467,None,261.899571467,None,261.899571467,None,261.899571467,None,261.899571467,None,261.899571467,None,I think it was gate f 16,282.666586628,None,282.666586628,None,282.666586628,None,282.666586628,None,282.666586628,None,282.666586628,None,282.666586628,None,,300.632717942,None,300.632717942,None,300.632717942,None,300.632717942,None,300.632717942,None,300.632717942,None,300.632717942,None,David is holding a laptop,306.5322697800002,None,306.5322697800002,None,306.5322697800002,None,306.5322697800002,None,306.5322697800002,None,306.5322697800002,None,306.5322697800002,None,David asks if she was ever a gymnast,323.366429576,None,323.366429576,None,323.366429576,None,323.366429576,None,323.366429576,None,323.366429576,None,323.366429576,None,They will meet the following tuesday when anna returns from her trip,337.6158827440004,None,337.6158827440004,None,337.6158827440004,None,337.6158827440004,None,337.6158827440004,None,337.6158827440004,None,337.6158827440004,None,1055,357.26607968999997,None,357.26607968999997,None,357.26607968999997,None,357.26607968999997,None,357.26607968999997,None,357.26607968999997,None,357.26607968999997,None,,,100721,1,3,2,3,1,60,2021_Oct_07_1243,short_answer,3.2.4,59.88042776780774,
,2,,,,,0,2,2,2,,,,,,,,,,,,,,,,,,,,,,,,,,,,,,,,,,,,,,,,,,,,,,,,,,,,,,,,,,,,,,,,,,,,,,,,,,,,,,,,,,,,,,,,,,,,,,,,,,,,,,,,,,,,,,,,,,,,,,,,,,,,,,,,,,,,,,,,,,,,,,,,,,,,,,,,,,,,,,,100721,1,3,2,3,1,60,2021_Oct_07_1243,short_answer,3.2.4,59.88042776780774,
,3,,,,,0,3,3,3,0,0,0,0,,,,,,,,,,,,,,,,,364.8807119530002,None,space,2.320378905000325,364.8807119530002,None,364.8807119530002,None,364.8807119530002,None,367.2488680800002,None,367.2488680800002,None,Thomas thinks the burger tastes fishy,,"[1, 2]",368.9659478870003,None,368.9659478870003,None,368.9659478870003,None,368.9659478870003,None,368.9659478870003,None,368.9659478870003,None,368.9659478870003,None,Thomas is thinking about a new career and needs space to deal with this decision,373.3160331850004,None,373.3160331850004,None,373.3160331850004,None,373.3160331850004,None,373.3160331850004,None,373.3160331850004,None,373.3160331850004,None,"Sadie doesn't want to break up, she thinks that they can work through it together ",395.6157221890003,None,395.6157221890003,None,395.6157221890003,None,395.6157221890003,None,395.6157221890003,None,395.6157221890003,None,395.6157221890003,None,Sadie wanted thomas to return something ,431.864611941,None,431.864611941,None,431.864611941,None,431.864611941,None,431.864611941,None,431.864611941,None,431.864611941,None,I think they said it was a cute restaurant,449.0132452170001,None,449.0132452170001,None,449.0132452170001,None,449.0132452170001,None,449.0132452170001,None,449.0132452170001,None,449.0132452170001,None,The menus have weird/cute names for the food items,467.4480264490003,None,467.4480264490003,None,467.4480264490003,None,467.4480264490003,None,467.4480264490003,None,467.4480264490003,None,467.4480264490003,None,Thomas gets a burger with no tomato and sadie gets a reuben,483.2462127480003,None,483.2462127480003,None,483.2462127480003,None,483.2462127480003,None,483.2462127480003,None,483.2462127480003,None,483.2462127480003,None,Thomas thinks the burger tastes fishy,497.4804602850004,None,497.4804602850004,None,497.4804602850004,None,497.4804602850004,None,497.4804602850004,None,497.4804602850004,None,497.4804602850004,None,,,100721,1,3,2,3,1,60,2021_Oct_07_1243,short_answer,3.2.4,59.88042776780774,
,3,,,,,0,3,3,3,,,,,,,,,,,,,,,,,,,,,,,,,,,,,,,,,,,,,,,,,,,,,,,,,,,,,,,,,,,,,,,,,,,,,,,,,,,,,,,,,,,,,,,,,,,,,,,,,,,,,,,,,,,,,,,,,,,,,,,,,,,,,,,,,,,,,,,,,,,,,,,,,,,,,,,,,,,,,,,100721,1,3,2,3,1,60,2021_Oct_07_1243,short_answer,3.2.4,59.88042776780774,
,4,,,,,0,4,4,4,,,,,,,,,,,,,,,,,,,,,,,,,,,,,,,,,,,,,,,,,,,,,,,,,,,,,,,,,,,,,,,,,,,,,,,,,,,,,,,,,,,,,,,,,,,,,,,,,,,,,,,,,,,,,,,,,,,,,,,,,,,,,,,,,,,,,,,,,,,,,,,,,,,,,,,,,,,,,,,100721,1,3,2,3,1,60,2021_Oct_07_1243,short_answer,3.2.4,59.88042776780774,
,5,,,,,0,5,5,5,0,0,0,0,,,,,,,,,,,,,,,,,510.7125796690002,None,space,0.7841221170001518,510.7125796690002,None,510.7125796690002,None,510.7125796690002,None,511.54656246000013,None,511.54656246000013,None,,11 months,"[1, 2]",513.0973345850002,None,513.0973345850002,None,513.0973345850002,None,513.0973345850002,None,513.0973345850002,None,513.0973345850002,None,513.0973345850002,None,2 pink diamonds,517.780620261,None,517.780620261,None,517.780620261,None,517.780620261,None,517.780620261,None,517.780620261,None,517.780620261,None,Black box,525.047307541,None,525.047307541,None,525.047307541,None,525.047307541,None,525.047307541,None,525.047307541,None,525.047307541,None,Her friend ,529.4792423620002,None,529.4792423620002,None,529.4792423620002,None,529.4792423620002,None,529.4792423620002,None,529.4792423620002,None,529.4792423620002,None,,534.0141533810001,None,534.0141533810001,None,534.0141533810001,None,534.0141533810001,None,534.0141533810001,None,534.0141533810001,None,534.0141533810001,None,"Isabel left her laptop in her bag going through security, then sven still has the ring in his pocket",537.3970918740001,None,537.3970918740001,None,537.3970918740001,None,537.3970918740001,None,537.3970918740001,None,537.3970918740001,None,537.3970918740001,None,,565.2140379290004,None,565.2140379290004,None,565.2140379290004,None,565.2140379290004,None,565.2140379290004,None,565.2140379290004,None,565.2140379290004,None,,567.2634405460003,None,567.2634405460003,None,567.2634405460003,None,567.2634405460003,None,567.2634405460003,None,567.2634405460003,None,567.2634405460003,None,,,100721,1,3,2,3,1,60,2021_Oct_07_1243,short_answer,3.2.4,59.88042776780774,
,5,,,,,0,5,5,5,,,,,,,,,,,,,,,,,,,,,,,,,,,,,,,,,,,,,,,,,,,,,,,,,,,,,,,,,,,,,,,,,,,,,,,,,,,,,,,,,,,,,,,,,,,,,,,,,,,,,,,,,,,,,,,,,,,,,,,,,,,,,,,,,,,,,,,,,,,,,,,,,,,,,,,,,,,,,,,100721,1,3,2,3,1,60,2021_Oct_07_1243,short_answer,3.2.4,59.88042776780774,
,6,,,,,0,6,6,6,0,0,0,0,,,,,,,,,,,,,,,,,568.72919361,None,space,1.3976066889999856,568.72919361,None,568.72919361,None,568.72919361,None,570.1628887080001,None,570.1628887080001,None,"30 dollars, credit card",,"[1, 2]",572.0302346110002,None,572.0302346110002,None,572.0302346110002,None,572.0302346110002,None,572.0302346110002,None,572.0302346110002,None,572.0302346110002,None,They argue too much,577.295902371,None,577.295902371,None,577.295902371,None,577.295902371,None,577.295902371,None,577.295902371,None,577.295902371,None,Yes liam also wants to break up and stop arguing ,583.2305746030002,None,583.2305746030002,None,583.2305746030002,None,583.2305746030002,None,583.2305746030002,None,583.2305746030002,None,583.2305746030002,None,They both want their cat,594.5294551950001,None,594.5294551950001,None,594.5294551950001,None,594.5294551950001,None,594.5294551950001,None,594.5294551950001,None,594.5294551950001,None,Large,603.5126240140003,None,603.5126240140003,None,603.5126240140003,None,603.5126240140003,None,603.5126240140003,None,603.5126240140003,None,603.5126240140003,None,"Pasta, olives, and vodka sauce",616.379602209,None,616.379602209,None,616.379602209,None,616.379602209,None,616.379602209,None,616.379602209,None,616.379602209,None,1 lane is open and i think they chose lane ,629.629071116,None,629.629071116,None,629.629071116,None,629.629071116,None,629.629071116,None,629.629071116,None,629.629071116,None,"30 dollars, credit card",641.7124988970004,None,641.7124988970004,None,641.7124988970004,None,641.7124988970004,None,641.7124988970004,None,641.7124988970004,None,641.7124988970004,None,,,100721,1,3,2,3,1,60,2021_Oct_07_1243,short_answer,3.2.4,59.88042776780774,
,6,,,,,0,6,6,6,,,,,,,,,,,,,,,,,,,,,,,,,,,,,,,,,,,,,,,,,,,,,,,,,,,,,,,,,,,,,,,,,,,,,,,,,,,,,,,,,,,,,,,,,,,,,,,,,,,,,,,,,,,,,,,,,,,,,,,,,,,,,,,,,,,,,,,,,,,,,,,,,,,,,,,,,,,,,,,100721,1,3,2,3,1,60,2021_Oct_07_1243,short_answer,3.2.4,59.88042776780774,
,7,,,,,0,7,7,7,0,0,0,0,,,,,,,,,,,,,,,,,656.8954254500004,None,space,0.8975088940001115,656.8954254500004,None,656.8954254500004,None,656.8954254500004,None,657.8283341790002,None,657.8283341790002,None,23  dollars and ms morrison pays by check ,Ms. bianchi is a cheese seller and ms. morrison is the head of the grocery store,"[1, 2]",659.0123442680001,None,659.0123442680001,None,659.0123442680001,None,659.0123442680001,None,659.0123442680001,None,659.0123442680001,None,659.0123442680001,None,,682.4452244560002,None,682.4452244560002,None,682.4452244560002,None,682.4452244560002,None,682.4452244560002,None,682.4452244560002,None,682.4452244560002,None,,684.9444575150001,None,684.9444575150001,None,684.9444575150001,None,684.9444575150001,None,684.9444575150001,None,684.9444575150001,None,684.9444575150001,None,They share cheese and crackers,687.2788012850001,None,687.2788012850001,None,687.2788012850001,None,687.2788012850001,None,687.2788012850001,None,687.2788012850001,None,687.2788012850001,None,Decorated for halloween,695.3781518420001,None,695.3781518420001,None,695.3781518420001,None,695.3781518420001,None,695.3781518420001,None,695.3781518420001,None,695.3781518420001,None,"Crackers, seltzer, and ketchup",700.5609659420002,None,700.5609659420002,None,700.5609659420002,None,700.5609659420002,None,700.5609659420002,None,700.5609659420002,None,700.5609659420002,None,10 and they choose lane 6,710.0107552610002,None,710.0107552610002,None,710.0107552610002,None,710.0107552610002,None,710.0107552610002,None,710.0107552610002,None,710.0107552610002,None,23  dollars and ms morrison pays by check ,720.5940295770001,None,720.5940295770001,None,720.5940295770001,None,720.5940295770001,None,720.5940295770001,None,720.5940295770001,None,720.5940295770001,None,,,100721,1,3,2,3,1,60,2021_Oct_07_1243,short_answer,3.2.4,59.88042776780774,
,7,,,,,0,7,7,7,,,,,,,,,,,,,,,,,,,,,,,,,,,,,,,,,,,,,,,,,,,,,,,,,,,,,,,,,,,,,,,,,,,,,,,,,,,,,,,,,,,,,,,,,,,,,,,,,,,,,,,,,,,,,,,,,,,,,,,,,,,,,,,,,,,,,,,,,,,,,,,,,,,,,,,,,,,,,,,100721,1,3,2,3,1,60,2021_Oct_07_1243,short_answer,3.2.4,59.88042776780774,
,8,,,,,0,8,8,8,0,0,0,0,,,,,,,,,,,,,,,,,736.4270057520002,None,space,0.8332436539999435,736.4270057520002,None,736.4270057520002,None,736.4270057520002,None,737.2931662290002,None,737.2931662290002,None,Maria asks henry to return something to her ,"It is large, with 15 rows of chairs and a stage for the speaker-- it may have said 50 rows, but it sounded like 15 to me ","[2, 1]",739.7110293170003,None,739.7110293170003,None,739.7110293170003,None,739.7110293170003,None,739.7110293170003,None,739.7110293170003,None,739.7110293170003,None,"Ancient philosophy, this lecture is aristotelian philosophy on aristotle's categories",785.6271728280003,None,785.6271728280003,None,785.6271728280003,None,785.6271728280003,None,785.6271728280003,None,785.6271728280003,None,785.6271728280003,None,Aristotles categories ,814.0100992560001,None,814.0100992560001,None,814.0100992560001,None,814.0100992560001,None,814.0100992560001,None,814.0100992560001,None,814.0100992560001,None,The followng tuesday ,820.077030162,None,820.077030162,None,820.077030162,None,820.077030162,None,820.077030162,None,820.077030162,None,820.077030162,None,,826.959812692,None,826.959812692,None,826.959812692,None,826.959812692,None,826.959812692,None,826.959812692,None,826.959812692,None,Maria can't do long distance ,829.7436214880004,None,829.7436214880004,None,829.7436214880004,None,829.7436214880004,None,829.7436214880004,None,829.7436214880004,None,829.7436214880004,None,Henry doesnt want to break up because he loves maria,842.259720819,None,842.259720819,None,842.259720819,None,842.259720819,None,842.259720819,None,842.259720819,None,842.259720819,None,Maria asks henry to return something to her ,855.5599024490002,None,855.5599024490002,None,855.5599024490002,None,855.5599024490002,None,855.5599024490002,None,855.5599024490002,None,855.5599024490002,None,,,100721,1,3,2,3,1,60,2021_Oct_07_1243,short_answer,3.2.4,59.88042776780774,
,8,,,,,0,8,8,8,,,,,,,,,,,,,,,,,,,,,,,,,,,,,,,,,,,,,,,,,,,,,,,,,,,,,,,,,,,,,,,,,,,,,,,,,,,,,,,,,,,,,,,,,,,,,,,,,,,,,,,,,,,,,,,,,,,,,,,,,,,,,,,,,,,,,,,,,,,,,,,,,,,,,,,,,,,,,,,100721,1,3,2,3,1,60,2021_Oct_07_1243,short_answer,3.2.4,59.88042776780774,
,9,,,,,0,9,9,9,0,0,0,0,,,,,,,,,,,,,,,,,867.891245752,None,space,0.8426742349997767,867.891245752,None,867.891245752,None,867.891245752,None,868.7757289780002,None,868.7757289780002,None,,Jeff is a wine seller/distributer and william is a corporate wine buyer ,"[1, 2]",869.9593629420001,None,869.9593629420001,None,869.9593629420001,None,869.9593629420001,None,869.9593629420001,None,869.9593629420001,None,869.9593629420001,None,800 dollars ,886.7078783370002,None,886.7078783370002,None,886.7078783370002,None,886.7078783370002,None,886.7078783370002,None,886.7078783370002,None,886.7078783370002,None,,894.2923567460002,None,894.2923567460002,None,894.2923567460002,None,894.2923567460002,None,894.2923567460002,None,894.2923567460002,None,894.2923567460002,None,Handshake ,896.9593898200001,None,896.9593898200001,None,896.9593898200001,None,896.9593898200001,None,896.9593898200001,None,896.9593898200001,None,896.9593898200001,None,2 hours ,902.1926882820003,None,902.1926882820003,None,902.1926882820003,None,902.1926882820003,None,902.1926882820003,None,902.1926882820003,None,902.1926882820003,None,,906.6917094510004,None,906.6917094510004,None,906.6917094510004,None,906.6917094510004,None,906.6917094510004,None,906.6917094510004,None,906.6917094510004,None,,914.8599088230003,None,914.8599088230003,None,914.8599088230003,None,914.8599088230003,None,914.8599088230003,None,914.8599088230003,None,914.8599088230003,None,,917.059035748,None,917.059035748,None,917.059035748,None,917.059035748,None,917.059035748,None,917.059035748,None,917.059035748,None,,,100721,1,3,2,3,1,60,2021_Oct_07_1243,short_answer,3.2.4,59.88042776780774,
,9,,,,,0,9,9,9,,,,,,,,,,,,,,,,,,,,,,,,,,,,,,,,,,,,,,,,,,,,,,,,,,,,,,,,,,,,,,,,,,,,,,,,,,,,,,,,,,,,,,,,,,,,,,,,,,,,,,,,,,,,,,,,,,,,,,,,,,,,,,,,,,,,,,,,,,,,,,,,,,,,,,,,,,,,,,,100721,1,3,2,3,1,60,2021_Oct_07_1243,short_answer,3.2.4,59.88042776780774,
,10,,,,,0,10,10,10,0,0,0,0,,,,,,,,,,,,,,,,,919.0913514080003,None,space,1.4516208430000006,919.0913514080003,None,919.0913514080003,None,919.0913514080003,None,920.5922381140003,None,920.5922381140003,None,A test on the following thursday,Charlie is an investor and alma is the ceo of her tech startup,"[1, 2]",922.3088146630002,None,922.3088146630002,None,922.3088146630002,None,922.3088146630002,None,922.3088146630002,None,922.3088146630002,None,922.3088146630002,None,"26,000 dollars ",938.091653125,None,938.091653125,None,938.091653125,None,938.091653125,None,938.091653125,None,938.091653125,None,938.091653125,None,,948.824513814,None,948.824513814,None,948.824513814,None,948.824513814,None,948.824513814,None,948.824513814,None,948.824513814,None,,953.9251050150001,None,953.9251050150001,None,953.9251050150001,None,953.9251050150001,None,953.9251050150001,None,953.9251050150001,None,953.9251050150001,None,"Modern, tables and outlets at the front and 3 projector screens ",957.4576046920001,None,957.4576046920001,None,957.4576046920001,None,957.4576046920001,None,957.4576046920001,None,957.4576046920001,None,957.4576046920001,None,"Ancient roman architecture, they are learning about augustus' influence ",976.0246800700002,None,976.0246800700002,None,976.0246800700002,None,976.0246800700002,None,976.0246800700002,None,976.0246800700002,None,976.0246800700002,None,Augustus' influence on developing rome to not look ugly ,1013.0239911420003,None,1013.0239911420003,None,1013.0239911420003,None,1013.0239911420003,None,1013.0239911420003,None,1013.0239911420003,None,1013.0239911420003,None,A test on the following thursday,1033.9744799110003,None,1033.9744799110003,None,1033.9744799110003,None,1033.9744799110003,None,1033.9744799110003,None,1033.9744799110003,None,1033.9744799110003,None,,,100721,1,3,2,3,1,60,2021_Oct_07_1243,short_answer,3.2.4,59.88042776780774,
,10,,,,,0,10,10,10,,,,,,,,,,,,,,,,,,,,,,,,,,,,,,,,,,,,,,,,,,,,,,,,,,,,,,,,,,,,,,,,,,,,,,,,,,,,,,,,,,,,,,,,,,,,,,,,,,,,,,,,,,,,,,,,,,,,,,,,,,,,,,,,,,,,,,,,,,,,,,,,,,,,,,,,,,,,,,,100721,1,3,2,3,1,60,2021_Oct_07_1243,short_answer,3.2.4,59.88042776780774,
,11,,,,,0,11,11,11,,,,,,,,,,,,,,,,,,,,,,,,,,,,,,,,,,,,,,,,,,,,,,,,,,,,,,,,,,,,,,,,,,,,,,,,,,,,,,,,,,,,,,,,,,,,,,,,,,,,,,,,,,,,,,,,,,,,,,,,,,,,,,,,,,,,,,,,,,,,,,,,,,,,,,,,,,,,,,,100721,1,3,2,3,1,60,2021_Oct_07_1243,short_answer,3.2.4,59.88042776780774,
,12,,,,,0,12,12,12,0,0,0,0,,,,,,,,,,,,,,,,,1044.640572142,None,space,1.327440556000056,1044.640572142,None,1044.640572142,None,1044.640572142,None,1046.006993853,None,1046.006993853,None,, ,"[2, 1]",1047.5405862110001,None,1047.5405862110001,None,1047.5405862110001,None,1047.5405862110001,None,1047.5405862110001,None,1047.5405862110001,None,1047.5405862110001,None,,1050.4404570020001,None,1050.4404570020001,None,1050.4404570020001,None,1050.4404570020001,None,1050.4404570020001,None,1050.4404570020001,None,1050.4404570020001,None,,1055.5570834500004,None,1055.5570834500004,None,1055.5570834500004,None,1055.5570834500004,None,1055.5570834500004,None,1055.5570834500004,None,1055.5570834500004,None,33a and 35c ,1057.3737123250003,None,1057.3737123250003,None,1057.3737123250003,None,1057.3737123250003,None,1057.3737123250003,None,1057.3737123250003,None,1057.3737123250003,None,Jessie has been considering it since sometime after planning the trip,1066.9404990750004,None,1066.9404990750004,None,1066.9404990750004,None,1066.9404990750004,None,1066.9404990750004,None,1066.9404990750004,None,1066.9404990750004,None,,1090.1397810900003,None,1090.1397810900003,None,1090.1397810900003,None,1090.1397810900003,None,1090.1397810900003,None,1090.1397810900003,None,1090.1397810900003,None,Calvin is upset and didnt want to break up ,1099.1069219350002,None,1099.1069219350002,None,1099.1069219350002,None,1099.1069219350002,None,1099.1069219350002,None,1099.1069219350002,None,1099.1069219350002,None,,1109.8733685480001,None,1109.8733685480001,None,1109.8733685480001,None,1109.8733685480001,None,1109.8733685480001,None,1109.8733685480001,None,1109.8733685480001,None,,,100721,1,3,2,3,1,60,2021_Oct_07_1243,short_answer,3.2.4,59.88042776780774,
,12,,,,,0,12,12,12,,,,,,,,,,,,,,,,,,,,,,,,,,,,,,,,,,,,,,,,,,,,,,,,,,,,,,,,,,,,,,,,,,,,,,,,,,,,,,,,,,,,,,,,,,,,,,,,,,,,,,,,,,,,,,,,,,,,,,,,,,,,,,,,,,,,,,,,,,,,,,,,,,,,,,,,,,,,,,,100721,1,3,2,3,1,60,2021_Oct_07_1243,short_answer,3.2.4,59.88042776780774,
,13,,,,,0,13,13,13,0,0,0,0,,,,,,,,,,,,,,,,,1113.5730413610004,None,space,1.465645819999736,1113.5730413610004,None,1113.5730413610004,None,1113.5730413610004,None,1115.088996728,None,1115.088996728,None,They both liked the sushi,James is holding a newspaper,"[1, 2]",1116.9072295990004,None,1116.9072295990004,None,1116.9072295990004,None,1116.9072295990004,None,1116.9072295990004,None,1116.9072295990004,None,1116.9072295990004,None,James asks how is your forehead,1132.9395722480003,None,1132.9395722480003,None,1132.9395722480003,None,1132.9395722480003,None,1132.9395722480003,None,1132.9395722480003,None,1132.9395722480003,None,They will meet that night for a concert,1142.7727532480003,None,1142.7727532480003,None,1142.7727532480003,None,1142.7727532480003,None,1142.7727532480003,None,1142.7727532480003,None,1142.7727532480003,None,3pm,1152.322383222,None,1152.322383222,None,1152.322383222,None,1152.322383222,None,1152.322383222,None,1152.322383222,None,1152.322383222,None,,1155.4217696240003,None,1155.4217696240003,None,1155.4217696240003,None,1155.4217696240003,None,1155.4217696240003,None,1155.4217696240003,None,1155.4217696240003,None,,1159.8382468210002,None,1159.8382468210002,None,1159.8382468210002,None,1159.8382468210002,None,1159.8382468210002,None,1159.8382468210002,None,1159.8382468210002,None,Sushi,1163.688537809,None,1163.688537809,None,1163.688537809,None,1163.688537809,None,1163.688537809,None,1163.688537809,None,1163.688537809,None,They both liked the sushi,1168.9223415820002,None,1168.9223415820002,None,1168.9223415820002,None,1168.9223415820002,None,1168.9223415820002,None,1168.9223415820002,None,1168.9223415820002,None,,,100721,1,3,2,3,1,60,2021_Oct_07_1243,short_answer,3.2.4,59.88042776780774,
,13,,,,,0,13,13,13,,,,,,,,,,,,,,,,,,,,,,,,,,,,,,,,,,,,,,,,,,,,,,,,,,,,,,,,,,,,,,,,,,,,,,,,,,,,,,,,,,,,,,,,,,,,,,,,,,,,,,,,,,,,,,,,,,,,,,,,,,,,,,,,,,,,,,,,,,,,,,,,,,,,,,,,,,,,,,,100721,1,3,2,3,1,60,2021_Oct_07_1243,short_answer,3.2.4,59.88042776780774,
,14,,,,,0,14,14,14,0,0,0,0,,,,,,,,,,,,,,,,,1177.9714815460002,None,space,1.1845293239998682,1177.9714815460002,None,1177.9714815460002,None,1177.9714815460002,None,1179.2051256900004,None,1179.2051256900004,None,Her dad ,Very fancy ,"[2, 1]",1180.2221706270002,None,1180.2221706270002,None,1180.2221706270002,None,1180.2221706270002,None,1180.2221706270002,None,1180.2221706270002,None,1180.2221706270002,None,There are no prices on the menus,1185.571289465,None,1185.571289465,None,1185.571289465,None,1185.571289465,None,1185.571289465,None,1185.571289465,None,1185.571289465,None,Oysters and some parmesan sauce ,1195.6716004110003,None,1195.6716004110003,None,1195.6716004110003,None,1195.6716004110003,None,1195.6716004110003,None,1195.6716004110003,None,1195.6716004110003,None,Senna says the oysters are delicious and taste of the sea,1214.1380012680002,None,1214.1380012680002,None,1214.1380012680002,None,1214.1380012680002,None,1214.1380012680002,None,1214.1380012680002,None,1214.1380012680002,None,5 years,1229.4877809070003,None,1229.4877809070003,None,1229.4877809070003,None,1229.4877809070003,None,1229.4877809070003,None,1229.4877809070003,None,1229.4877809070003,None,3 canary yellow diamonds,1232.12071452,None,1232.12071452,None,1232.12071452,None,1232.12071452,None,1232.12071452,None,1232.12071452,None,1232.12071452,None,A cake,1238.8215370560001,None,1238.8215370560001,None,1238.8215370560001,None,1238.8215370560001,None,1238.8215370560001,None,1238.8215370560001,None,1238.8215370560001,None,Her dad ,1243.254638121,None,1243.254638121,None,1243.254638121,None,1243.254638121,None,1243.254638121,None,1243.254638121,None,1243.254638121,None,,,100721,1,3,2,3,1,60,2021_Oct_07_1243,short_answer,3.2.4,59.88042776780774,
,14,,,,,0,14,14,14,,,,,,,,,,,,,,,,,,,,,,,,,,,,,,,,,,,,,,,,,,,,,,,,,,,,,,,,,,,,,,,,,,,,,,,,,,,,,,,,,,,,,,,,,,,,,,,,,,,,,,,,,,,,,,,,,,,,,,,,,,,,,,,,,,,,,,,,,,,,,,,,,,,,,,,,,,,,,,,100721,1,3,2,3,1,60,2021_Oct_07_1243,short_answer,3.2.4,59.88042776780774,
,15,,,,,0,15,15,15,,,,,,,,,,,,,,,,,,,,,,,,,,,,,,,,,,,,,,,,,,,,,,,,,,,,,,,,,,,,,,,,,,,,,,,,,,,,,,,,,,,,,,,,,,,,,,,,,,,,,,,,,,,,,,,,,,,,,,,,,,,,,,,,,,,,,,,,,,,,,,,,,,,,,,,,,,,,,,,100721,1,3,2,3,1,60,2021_Oct_07_1243,short_answer,3.2.4,59.88042776780774,
,,,,,,,,,,,,,,0,0,0,0,,,,,,,,,,,,,,,,,,,,,,,,,,,,,,,,,,,,,,,,,,,,,,,,,,,,,,,,,,,,,,,,,,,,,,,,,,,,,,,,,,,,,,,,,,,,,,,,,,,,,,,,,,,,,,,,,,,,,,,,,,,,,,,,,,,,,,,,,,,,,,,,,,,,,1246.6366937810003,None,100721,1,3,2,3,1,60,2021_Oct_07_1243,short_answer,3.2.4,59.88042776780774,
