instructText,count,trials_5.thisRepN,trials_5.thisTrialN,trials_5.thisN,trials_5.thisIndex,trials_6.thisRepN,trials_6.thisTrialN,trials_6.thisN,trials_6.thisIndex,trials.thisRepN,trials.thisTrialN,trials.thisN,trials.thisIndex,trials_8.thisRepN,trials_8.thisTrialN,trials_8.thisN,trials_8.thisIndex,story_list_block1,action_list_block1,story_list_block2,action_list_block2,key_resp_3.keys,key_resp_3.rt,key_resp_3.started,key_resp_3.stopped,text_13.started,text_13.stopped,text_23.started,text_23.stopped,text_43.started,text_43.stopped,key_resp_11.keys,key_resp_11.rt,key_resp_11.started,key_resp_11.stopped,text_44.started,text_44.stopped,text_53.started,text_53.stopped,image_10.started,image_10.stopped,text_22.started,text_22.stopped,recall,question1_answer,order of question,text_14.started,text_14.stopped,text_15.started,text_15.stopped,image_6.started,image_6.stopped,polygon_3.started,polygon_3.stopped,bottom_line_3.started,bottom_line_3.stopped,right_line_3.started,right_line_3.stopped,left_line_3.started,left_line_3.stopped,question2_answer,text_16.started,text_16.stopped,text_17.started,text_17.stopped,image_7.started,image_7.stopped,polygon_4.started,polygon_4.stopped,bottom_line_4.started,bottom_line_4.stopped,right_line_4.started,right_line_4.stopped,left_line_4.started,left_line_4.stopped,question3_answer,text_18.started,text_18.stopped,text_19.started,text_19.stopped,image_8.started,image_8.stopped,polygon_5.started,polygon_5.stopped,bottom_line_5.started,bottom_line_5.stopped,right_line_5.started,right_line_5.stopped,left_line_5.started,left_line_5.stopped,question4_answer,text_20.started,text_20.stopped,text_21.started,text_21.stopped,image_9.started,image_9.stopped,polygon_6.started,polygon_6.stopped,bottom_line_6.started,bottom_line_6.stopped,right_line_6.started,right_line_6.stopped,left_line_6.started,left_line_6.stopped,question5_answer,text_25.started,text_25.stopped,text_26.started,text_26.stopped,image_11.started,image_11.stopped,polygon_7.started,polygon_7.stopped,bottom_line_7.started,bottom_line_7.stopped,right_line_7.started,right_line_7.stopped,left_line_7.started,left_line_7.stopped,question6_answer,text_27.started,text_27.stopped,text_28.started,text_28.stopped,image_12.started,image_12.stopped,polygon_8.started,polygon_8.stopped,bottom_line_8.started,bottom_line_8.stopped,right_line_8.started,right_line_8.stopped,left_line_8.started,left_line_8.stopped,question7_answer,text_29.started,text_29.stopped,text_30.started,text_30.stopped,image_13.started,image_13.stopped,polygon_9.started,polygon_9.stopped,bottom_line_9.started,bottom_line_9.stopped,right_line_9.started,right_line_9.stopped,left_line_9.started,left_line_9.stopped,question8_answer,text_31.started,text_31.stopped,text_32.started,text_32.stopped,image_14.started,image_14.stopped,polygon_10.started,polygon_10.stopped,bottom_line_10.started,bottom_line_10.stopped,right_line_10.started,right_line_10.stopped,left_line_10.started,left_line_10.stopped,text_36.started,text_36.stopped,participant,sA,sB,lA,lB,block_struct,random_seed,date,expName,psychopyVersion,frameRate,
"In the final part of the experiment, please answer 8 questions about each story.",,0,0,0,0,,,,,,,,,,,,,[33 22 11 44 42 13 24 31],[3 3 4 4 2 2 1 1],[34 21 14 12 32 43 41 23],[1 1 4 2 3 2 4 3],space,6.091691485999945,11.108695658999977,None,11.108695658999977,None,11.108695658999977,None,,,,,,,,,,,,,,,,,,,,,,,,,,,,,,,,,,,,,,,,,,,,,,,,,,,,,,,,,,,,,,,,,,,,,,,,,,,,,,,,,,,,,,,,,,,,,,,,,,,,,,,,,,,,,,,,,,,,,,,,,,,,,,,,,,,,,,,,,,,031321,1,2,1,2,1,44,2021_Mar_13_1602,short_answer,3.2.4,59.9314611823494,
"We did not tell you to think of all or some of these questions during the story, but please do your best to answer them.",,0,1,1,1,,,,,,,,,,,,,,,,,space,5.558672577999914,17.24205000699999,None,17.24205000699999,None,17.24205000699999,None,,,,,,,,,,,,,,,,,,,,,,,,,,,,,,,,,,,,,,,,,,,,,,,,,,,,,,,,,,,,,,,,,,,,,,,,,,,,,,,,,,,,,,,,,,,,,,,,,,,,,,,,,,,,,,,,,,,,,,,,,,,,,,,,,,,,,,,,,,,031321,1,2,1,2,1,44,2021_Mar_13_1602,short_answer,3.2.4,59.9314611823494,
"Answer as much as you remember, and be specific and concrete in your answers. It is best to try to be as faithful as possible to what the story actually said.
",,0,2,2,2,,,,,,,,,,,,,,,,,space,13.405465434999996,22.84258795100004,None,22.84258795100004,None,22.84258795100004,None,,,,,,,,,,,,,,,,,,,,,,,,,,,,,,,,,,,,,,,,,,,,,,,,,,,,,,,,,,,,,,,,,,,,,,,,,,,,,,,,,,,,,,,,,,,,,,,,,,,,,,,,,,,,,,,,,,,,,,,,,,,,,,,,,,,,,,,,,,,031321,1,2,1,2,1,44,2021_Mar_13_1602,short_answer,3.2.4,59.9314611823494,
"When you have finished typing your answer, hit ‘return’ to submit your answer and move onto the next question. ",,0,3,3,3,,,,,,,,,,,,,,,,,space,5.413507177000156,36.29231013799995,None,36.29231013799995,None,36.29231013799995,None,,,,,,,,,,,,,,,,,,,,,,,,,,,,,,,,,,,,,,,,,,,,,,,,,,,,,,,,,,,,,,,,,,,,,,,,,,,,,,,,,,,,,,,,,,,,,,,,,,,,,,,,,,,,,,,,,,,,,,,,,,,,,,,,,,,,,,,,,,,031321,1,2,1,2,1,44,2021_Mar_13_1602,short_answer,3.2.4,59.9314611823494,
,0,,,,,0,0,0,0,,,,,,,,,,,,,,,,,,,,,,,,,,,,,,,,,,,,,,,,,,,,,,,,,,,,,,,,,,,,,,,,,,,,,,,,,,,,,,,,,,,,,,,,,,,,,,,,,,,,,,,,,,,,,,,,,,,,,,,,,,,,,,,,,,,,,,,,,,,,,,,,,,,,,,,,,,,,,,,031321,1,2,1,2,1,44,2021_Mar_13_1602,short_answer,3.2.4,59.9314611823494,
,1,,,,,0,1,1,1,,,,,,,,,,,,,,,,,,,,,,,,,,,,,,,,,,,,,,,,,,,,,,,,,,,,,,,,,,,,,,,,,,,,,,,,,,,,,,,,,,,,,,,,,,,,,,,,,,,,,,,,,,,,,,,,,,,,,,,,,,,,,,,,,,,,,,,,,,,,,,,,,,,,,,,,,,,,,,,031321,1,2,1,2,1,44,2021_Mar_13_1602,short_answer,3.2.4,59.9314611823494,
,2,,,,,0,2,2,2,0,0,0,0,,,,,,,,,,,,,,,,,41.7423004719999,None,space,4.327501265999899,41.7423004719999,None,41.7423004719999,None,41.7423004719999,None,46.17617447899988,None,46.17617447899988,None,Sadie wants her beatles poster and her polaroid camera back,It is decorated like a 1950s diner with black and white checkered tile floors,"[2, 1]",49.25780875500004,None,49.25780875500004,None,49.25780875500004,None,49.25780875500004,None,49.25780875500004,None,49.25780875500004,None,49.25780875500004,None,The menus were long and laminated,82.22518751899997,None,82.22518751899997,None,82.22518751899997,None,82.22518751899997,None,82.22518751899997,None,82.22518751899997,None,82.22518751899997,None,Thomas ordered a burger and sadie ordered a rueben,102.90877974199998,None,102.90877974199998,None,102.90877974199998,None,102.90877974199998,None,102.90877974199998,None,102.90877974199998,None,102.90877974199998,None,Sadie did not comment on the food because she took half of her sandwich and left but thomas did not like his burger because it tasted like fish,147.5411564389999,None,147.5411564389999,None,147.5411564389999,None,147.5411564389999,None,147.5411564389999,None,147.5411564389999,None,147.5411564389999,None,About two months,182.70744312800002,None,182.70744312800002,None,182.70744312800002,None,182.70744312800002,None,182.70744312800002,None,182.70744312800002,None,182.70744312800002,None,Thomas wants to break up because he does not know if he wants to remain in his current job and he needs more time to allow himself to consider his professional options,194.42379547199994,None,194.42379547199994,None,194.42379547199994,None,194.42379547199994,None,194.42379547199994,None,194.42379547199994,None,194.42379547199994,None,Sadie does not want to break up and says that she and thomas can spend less time together to allow him to devote more time to his job,242.123098367,None,242.123098367,None,242.123098367,None,242.123098367,None,242.123098367,None,242.123098367,None,242.123098367,None,Sadie wants her beatles poster and her polaroid camera back,280.1051362149999,None,280.1051362149999,None,280.1051362149999,None,280.1051362149999,None,280.1051362149999,None,280.1051362149999,None,280.1051362149999,None,,,031321,1,2,1,2,1,44,2021_Mar_13_1602,short_answer,3.2.4,59.9314611823494,
,2,,,,,0,2,2,2,,,,,,,,,,,,,,,,,,,,,,,,,,,,,,,,,,,,,,,,,,,,,,,,,,,,,,,,,,,,,,,,,,,,,,,,,,,,,,,,,,,,,,,,,,,,,,,,,,,,,,,,,,,,,,,,,,,,,,,,,,,,,,,,,,,,,,,,,,,,,,,,,,,,,,,,,,,,,,,031321,1,2,1,2,1,44,2021_Mar_13_1602,short_answer,3.2.4,59.9314611823494,
,3,,,,,0,3,3,3,0,0,0,0,,,,,,,,,,,,,,,,,305.38805578200004,None,space,2.0652828259999296,305.38805578200004,None,305.38805578200004,None,305.38805578200004,None,307.4886018069999,None,307.4886018069999,None,Noon,It contained a blackboard on wheels next to the podium at the front of the room and looked like it belonged in the history department,"[2, 1]",309.90559594399997,None,309.90559594399997,None,309.90559594399997,None,309.90559594399997,None,309.90559594399997,None,309.90559594399997,None,309.90559594399997,None,The class is an ancient egyptian history course and the lecture for that day was on mummies/mummification,362.505017471,None,362.505017471,None,362.505017471,None,362.505017471,None,362.505017471,None,362.505017471,None,362.505017471,None,The mummification process takes around 70 days and must be performed by trained professionals,400.187598447,None,400.187598447,None,400.187598447,None,400.187598447,None,400.187598447,None,400.187598447,None,400.187598447,None,The next assignment is a quiz on the day's lecture and it will take place during the next class,427.5043993910001,None,427.5043993910001,None,427.5043993910001,None,427.5043993910001,None,427.5043993910001,None,427.5043993910001,None,427.5043993910001,None,I don't know,484.5205015040001,None,484.5205015040001,None,484.5205015040001,None,484.5205015040001,None,484.5205015040001,None,484.5205015040001,None,484.5205015040001,None,Leon asks ariana if she is from los angeles because she looks familiar,503.18614460900017,None,503.18614460900017,None,503.18614460900017,None,503.18614460900017,None,503.18614460900017,None,503.18614460900017,None,503.18614460900017,None,They will meet that evening at 8pm in front of ariana's dorm to go for a walk together,529.4354496390001,None,529.4354496390001,None,529.4354496390001,None,529.4354496390001,None,529.4354496390001,None,529.4354496390001,None,529.4354496390001,None,Noon,554.752850286,None,554.752850286,None,554.752850286,None,554.752850286,None,554.752850286,None,554.752850286,None,554.752850286,None,,,031321,1,2,1,2,1,44,2021_Mar_13_1602,short_answer,3.2.4,59.9314611823494,
,3,,,,,0,3,3,3,,,,,,,,,,,,,,,,,,,,,,,,,,,,,,,,,,,,,,,,,,,,,,,,,,,,,,,,,,,,,,,,,,,,,,,,,,,,,,,,,,,,,,,,,,,,,,,,,,,,,,,,,,,,,,,,,,,,,,,,,,,,,,,,,,,,,,,,,,,,,,,,,,,,,,,,,,,,,,,031321,1,2,1,2,1,44,2021_Mar_13_1602,short_answer,3.2.4,59.9314611823494,
,4,,,,,0,4,4,4,0,0,0,0,,,,,,,,,,,,,,,,,561.5189217739999,None,space,2.4842726299998503,561.5189217739999,None,561.5189217739999,None,561.5189217739999,None,564.0519858090001,None,564.0519858090001,None,"They each sit in economy, anna sits in seat 18d",I don't know,"[1, 2]",565.6199275869999,None,565.6199275869999,None,565.6199275869999,None,565.6199275869999,None,565.6199275869999,None,565.6199275869999,None,565.6199275869999,None,David asks anna if she was a gymnast because of the tumble she took,583.686270743,None,583.686270743,None,583.686270743,None,583.686270743,None,583.686270743,None,583.686270743,None,583.686270743,None,They will meet when they each return from their trips to go on a date,613.418440033,None,613.418440033,None,613.418440033,None,613.418440033,None,613.418440033,None,613.418440033,None,613.418440033,None,"11colon55, when anna boards her flight",633.7678540719999,None,633.7678540719999,None,633.7678540719999,None,633.7678540719999,None,633.7678540719999,None,633.7678540719999,None,633.7678540719999,None,David has 3 hours before his flight and anna has 30 minutes,656.901045052,None,656.901045052,None,656.901045052,None,656.901045052,None,656.901045052,None,656.901045052,None,656.901045052,None,"The metal detector was not working properly, but it was fixed quickly",673.7012982360002,None,673.7012982360002,None,673.7012982360002,None,673.7012982360002,None,673.7012982360002,None,673.7012982360002,None,673.7012982360002,None,28j,691.1341950890001,None,691.1341950890001,None,691.1341950890001,None,691.1341950890001,None,691.1341950890001,None,691.1341950890001,None,691.1341950890001,None,"They each sit in economy, anna sits in seat 18d",711.5167750720002,None,711.5167750720002,None,711.5167750720002,None,711.5167750720002,None,711.5167750720002,None,711.5167750720002,None,711.5167750720002,None,,,031321,1,2,1,2,1,44,2021_Mar_13_1602,short_answer,3.2.4,59.9314611823494,
,4,,,,,0,4,4,4,,,,,,,,,,,,,,,,,,,,,,,,,,,,,,,,,,,,,,,,,,,,,,,,,,,,,,,,,,,,,,,,,,,,,,,,,,,,,,,,,,,,,,,,,,,,,,,,,,,,,,,,,,,,,,,,,,,,,,,,,,,,,,,,,,,,,,,,,,,,,,,,,,,,,,,,,,,,,,,031321,1,2,1,2,1,44,2021_Mar_13_1602,short_answer,3.2.4,59.9314611823494,
,5,,,,,0,5,5,5,0,0,0,0,,,,,,,,,,,,,,,,,743.0324707220002,None,space,0.8057825949999824,743.0324707220002,None,743.0324707220002,None,743.0324707220002,None,743.8834853499998,None,743.8834853499998,None,The groceries cost $30 and emmanuella paid using her credit card,About 5 months,"[1, 2]",745.3843756259998,None,745.3843756259998,None,745.3843756259998,None,745.3843756259998,None,745.3843756259998,None,745.3843756259998,None,745.3843756259998,None,Because they fight all the time,757.2500790119998,None,757.2500790119998,None,757.2500790119998,None,757.2500790119998,None,757.2500790119998,None,757.2500790119998,None,757.2500790119998,None,Liam agrees that they should break up because they could each be happier with other people,767.7998487179998,None,767.7998487179998,None,767.7998487179998,None,767.7998487179998,None,767.7998487179998,None,767.7998487179998,None,767.7998487179998,None,"Emmanuella and liam each want custody of their shared cat, but liam thinks the cat is his",795.5831482519998,None,795.5831482519998,None,795.5831482519998,None,795.5831482519998,None,795.5831482519998,None,795.5831482519998,None,795.5831482519998,None,It smelled like lavendar,836.115313579,None,836.115313579,None,836.115313579,None,836.115313579,None,836.115313579,None,836.115313579,None,836.115313579,None,"Bow-tie pasta, vodka sauce, and olives",853.681360954,None,853.681360954,None,853.681360954,None,853.681360954,None,853.681360954,None,853.681360954,None,853.681360954,None,"Only one lane is open so they step into that one, lane 8",872.8815348789999,None,872.8815348789999,None,872.8815348789999,None,872.8815348789999,None,872.8815348789999,None,872.8815348789999,None,872.8815348789999,None,The groceries cost $30 and emmanuella paid using her credit card,890.9986617159998,None,890.9986617159998,None,890.9986617159998,None,890.9986617159998,None,890.9986617159998,None,890.9986617159998,None,890.9986617159998,None,,,031321,1,2,1,2,1,44,2021_Mar_13_1602,short_answer,3.2.4,59.9314611823494,
,5,,,,,0,5,5,5,,,,,,,,,,,,,,,,,,,,,,,,,,,,,,,,,,,,,,,,,,,,,,,,,,,,,,,,,,,,,,,,,,,,,,,,,,,,,,,,,,,,,,,,,,,,,,,,,,,,,,,,,,,,,,,,,,,,,,,,,,,,,,,,,,,,,,,,,,,,,,,,,,,,,,,,,,,,,,,031321,1,2,1,2,1,44,2021_Mar_13_1602,short_answer,3.2.4,59.9314611823494,
,6,,,,,0,6,6,6,0,0,0,0,,,,,,,,,,,,,,,,,913.7143605370002,None,space,1.944146370999988,913.7143605370002,None,913.7143605370002,None,913.7143605370002,None,915.6975871449999,None,915.6975871449999,None,The midterm exam is going to be held the following friday,Three years,"[1, 2]",917.7651374450002,None,917.7651374450002,None,917.7651374450002,None,917.7651374450002,None,917.7651374450002,None,917.7651374450002,None,917.7651374450002,None,Five red diamonds,923.3157133059999,None,923.3157133059999,None,923.3157133059999,None,923.3157133059999,None,923.3157133059999,None,923.3157133059999,None,923.3157133059999,None,A notebook,930.7142934839999,None,930.7142934839999,None,930.7142934839999,None,930.7142934839999,None,930.7142934839999,None,930.7142934839999,None,930.7142934839999,None,Lana texts her sister,939.4810585089999,None,939.4810585089999,None,939.4810585089999,None,939.4810585089999,None,939.4810585089999,None,939.4810585089999,None,939.4810585089999,None,I don't know,947.3814776559998,None,947.3814776559998,None,947.3814776559998,None,947.3814776559998,None,947.3814776559998,None,947.3814776559998,None,947.3814776559998,None,General chemistry where they are learning about the periodic table and isotopes,968.731323554,None,968.731323554,None,968.731323554,None,968.731323554,None,968.731323554,None,968.731323554,None,968.731323554,None,Sodium has 11 protons but the number of electrons may change,993.4300436960002,None,993.4300436960002,None,993.4300436960002,None,993.4300436960002,None,993.4300436960002,None,993.4300436960002,None,993.4300436960002,None,The midterm exam is going to be held the following friday,1019.4638782960001,None,1019.4638782960001,None,1019.4638782960001,None,1019.4638782960001,None,1019.4638782960001,None,1019.4638782960001,None,1019.4638782960001,None,,,031321,1,2,1,2,1,44,2021_Mar_13_1602,short_answer,3.2.4,59.9314611823494,
,6,,,,,0,6,6,6,,,,,,,,,,,,,,,,,,,,,,,,,,,,,,,,,,,,,,,,,,,,,,,,,,,,,,,,,,,,,,,,,,,,,,,,,,,,,,,,,,,,,,,,,,,,,,,,,,,,,,,,,,,,,,,,,,,,,,,,,,,,,,,,,,,,,,,,,,,,,,,,,,,,,,,,,,,,,,,031321,1,2,1,2,1,44,2021_Mar_13_1602,short_answer,3.2.4,59.9314611823494,
,7,,,,,0,7,7,7,0,0,0,0,,,,,,,,,,,,,,,,,1048.6630885579998,None,space,1.2438105870000982,1048.6630885579998,None,1048.6630885579998,None,1048.6630885579998,None,1049.94604287,None,1049.94604287,None,They cheers their drinks,I don't know,"[2, 1]",1051.113782288,None,1051.113782288,None,1051.113782288,None,1051.113782288,None,1051.113782288,None,1051.113782288,None,1051.113782288,None,The menus are velvet and large,1059.012141541,None,1059.012141541,None,1059.012141541,None,1059.012141541,None,1059.012141541,None,1059.012141541,None,1059.012141541,None,Mr. shelton orders a martini and mr. gordon orders a manhattan,1074.179826091,None,1074.179826091,None,1074.179826091,None,1074.179826091,None,1074.179826091,None,1074.179826091,None,1074.179826091,None,They enjoy the food ,1102.2294987559999,None,1102.2294987559999,None,1102.2294987559999,None,1102.2294987559999,None,1102.2294987559999,None,1102.2294987559999,None,1102.2294987559999,None,Mr. shelton is the cfo of his company and mr. gordon is the ceo of his,1113.6792982870002,None,1113.6792982870002,None,1113.6792982870002,None,1113.6792982870002,None,1113.6792982870002,None,1113.6792982870002,None,1113.6792982870002,None,"$600,000,000",1135.3453597120001,None,1135.3453597120001,None,1135.3453597120001,None,1135.3453597120001,None,1135.3453597120001,None,1135.3453597120001,None,1135.3453597120001,None,Netjet,1143.7122679150002,None,1143.7122679150002,None,1143.7122679150002,None,1143.7122679150002,None,1143.7122679150002,None,1143.7122679150002,None,1143.7122679150002,None,They cheers their drinks,1149.361861548,None,1149.361861548,None,1149.361861548,None,1149.361861548,None,1149.361861548,None,1149.361861548,None,1149.361861548,None,,,031321,1,2,1,2,1,44,2021_Mar_13_1602,short_answer,3.2.4,59.9314611823494,
,7,,,,,0,7,7,7,,,,,,,,,,,,,,,,,,,,,,,,,,,,,,,,,,,,,,,,,,,,,,,,,,,,,,,,,,,,,,,,,,,,,,,,,,,,,,,,,,,,,,,,,,,,,,,,,,,,,,,,,,,,,,,,,,,,,,,,,,,,,,,,,,,,,,,,,,,,,,,,,,,,,,,,,,,,,,,031321,1,2,1,2,1,44,2021_Mar_13_1602,short_answer,3.2.4,59.9314611823494,
,8,,,,,0,8,8,8,0,0,0,0,,,,,,,,,,,,,,,,,1158.945030279,None,space,0.8239673939997374,1158.945030279,None,1158.945030279,None,1158.945030279,None,1159.8111871820001,None,1159.8111871820001,None,The paper is due on thursday about aristotle and can be submitted to the ta by email,Charlie is the fund manager and alma is the ceo,"[1, 2]",1161.078741451,None,1161.078741451,None,1161.078741451,None,1161.078741451,None,1161.078741451,None,1161.078741451,None,1161.078741451,None,"The first offer spoken of is a rebuttal to alma's original request of $56,000, where charlie says they will pay $28,000",1179.428654275,None,1179.428654275,None,1179.428654275,None,1179.428654275,None,1179.428654275,None,1179.428654275,None,1179.428654275,None,I don't know,1258.043718758,None,1258.043718758,None,1258.043718758,None,1258.043718758,None,1258.043718758,None,1258.043718758,None,1258.043718758,None,They shake hands,1265.676684037,None,1265.676684037,None,1265.676684037,None,1265.676684037,None,1265.676684037,None,1265.676684037,None,1265.676684037,None,I don't know,1279.0600641820001,None,1279.0600641820001,None,1279.0600641820001,None,1279.0600641820001,None,1279.0600641820001,None,1279.0600641820001,None,1279.0600641820001,None,I don't know,1286.076715137,None,1286.076715137,None,1286.076715137,None,1286.076715137,None,1286.076715137,None,1286.076715137,None,1286.076715137,None,I don't know,1300.2269741609998,None,1300.2269741609998,None,1300.2269741609998,None,1300.2269741609998,None,1300.2269741609998,None,1300.2269741609998,None,1300.2269741609998,None,The paper is due on thursday about aristotle and can be submitted to the ta by email,1310.3774308739999,None,1310.3774308739999,None,1310.3774308739999,None,1310.3774308739999,None,1310.3774308739999,None,1310.3774308739999,None,1310.3774308739999,None,,,031321,1,2,1,2,1,44,2021_Mar_13_1602,short_answer,3.2.4,59.9314611823494,
,8,,,,,0,8,8,8,,,,,,,,,,,,,,,,,,,,,,,,,,,,,,,,,,,,,,,,,,,,,,,,,,,,,,,,,,,,,,,,,,,,,,,,,,,,,,,,,,,,,,,,,,,,,,,,,,,,,,,,,,,,,,,,,,,,,,,,,,,,,,,,,,,,,,,,,,,,,,,,,,,,,,,,,,,,,,,031321,1,2,1,2,1,44,2021_Mar_13_1602,short_answer,3.2.4,59.9314611823494,
,9,,,,,0,9,9,9,0,0,0,0,,,,,,,,,,,,,,,,,1352.192071295,None,space,0.746603210000103,1352.192071295,None,1352.192071295,None,1352.192071295,None,1352.975842545,None,1352.975842545,None,Alvira texts her dad,Large chandeliers hung from the ceiling,"[2, 1]",1354.0758378609999,None,1354.0758378609999,None,1354.0758378609999,None,1354.0758378609999,None,1354.0758378609999,None,1354.0758378609999,None,1354.0758378609999,None,They are short and do not contain any prices,1366.208010748,None,1366.208010748,None,1366.208010748,None,1366.208010748,None,1366.208010748,None,1366.208010748,None,1366.208010748,None,Alvira orders oysters,1376.7412334249998,None,1376.7412334249998,None,1376.7412334249998,None,1376.7412334249998,None,1376.7412334249998,None,1376.7412334249998,None,1376.7412334249998,None,"They like it, particularly the oysters",1393.12577512,None,1393.12577512,None,1393.12577512,None,1393.12577512,None,1393.12577512,None,1393.12577512,None,1393.12577512,None,5 years,1417.7914386440002,None,1417.7914386440002,None,1417.7914386440002,None,1417.7914386440002,None,1417.7914386440002,None,1417.7914386440002,None,1417.7914386440002,None,Three canary-yellow diamonds that were in senna's grandmother's wedding ring,1421.7752172169999,None,1421.7752172169999,None,1421.7752172169999,None,1421.7752172169999,None,1421.7752172169999,None,1421.7752172169999,None,1421.7752172169999,None,A piece of cake the waiter brings to the table,1444.8910622429999,None,1444.8910622429999,None,1444.8910622429999,None,1444.8910622429999,None,1444.8910622429999,None,1444.8910622429999,None,1444.8910622429999,None,Alvira texts her dad,1456.3577878750002,None,1456.3577878750002,None,1456.3577878750002,None,1456.3577878750002,None,1456.3577878750002,None,1456.3577878750002,None,1456.3577878750002,None,,,031321,1,2,1,2,1,44,2021_Mar_13_1602,short_answer,3.2.4,59.9314611823494,
,9,,,,,0,9,9,9,,,,,,,,,,,,,,,,,,,,,,,,,,,,,,,,,,,,,,,,,,,,,,,,,,,,,,,,,,,,,,,,,,,,,,,,,,,,,,,,,,,,,,,,,,,,,,,,,,,,,,,,,,,,,,,,,,,,,,,,,,,,,,,,,,,,,,,,,,,,,,,,,,,,,,,,,,,,,,,031321,1,2,1,2,1,44,2021_Mar_13_1602,short_answer,3.2.4,59.9314611823494,
,10,,,,,0,10,10,10,0,0,0,0,,,,,,,,,,,,,,,,,1464.224300671,None,space,0.6153563529996973,1464.224300671,None,1464.224300671,None,1464.224300671,None,1464.87454187,None,1464.87454187,None,The next assignment is the final exam,A few months,"[1, 2]",1471.8743378079998,None,1471.8743378079998,None,1471.8743378079998,None,1471.8743378079998,None,1471.8743378079998,None,1471.8743378079998,None,1471.8743378079998,None,Maria breaks up with henry because she does not want to continue their relationship long distance when she is studying abroad,1485.157885949,None,1485.157885949,None,1485.157885949,None,1485.157885949,None,1485.157885949,None,1485.157885949,None,1485.157885949,None,Henry does not want to break up and insists that he will come visit maria,1511.723531563,None,1511.723531563,None,1511.723531563,None,1511.723531563,None,1511.723531563,None,1511.723531563,None,1511.723531563,None,Maria wants her alpacca sweater that she left in henry's dorm,1535.9068752809999,None,1535.9068752809999,None,1535.9068752809999,None,1535.9068752809999,None,1535.9068752809999,None,1535.9068752809999,None,1535.9068752809999,None,I don't know,1550.9728404470002,None,1550.9728404470002,None,1550.9728404470002,None,1550.9728404470002,None,1550.9728404470002,None,1550.9728404470002,None,1550.9728404470002,None,I don't know,1556.590039572,None,1556.590039572,None,1556.590039572,None,1556.590039572,None,1556.590039572,None,1556.590039572,None,1556.590039572,None,I don't know,1568.4232057959998,None,1568.4232057959998,None,1568.4232057959998,None,1568.4232057959998,None,1568.4232057959998,None,1568.4232057959998,None,1568.4232057959998,None,The next assignment is the final exam,1574.8893484189998,None,1574.8893484189998,None,1574.8893484189998,None,1574.8893484189998,None,1574.8893484189998,None,1574.8893484189998,None,1574.8893484189998,None,,,031321,1,2,1,2,1,44,2021_Mar_13_1602,short_answer,3.2.4,59.9314611823494,
,10,,,,,0,10,10,10,,,,,,,,,,,,,,,,,,,,,,,,,,,,,,,,,,,,,,,,,,,,,,,,,,,,,,,,,,,,,,,,,,,,,,,,,,,,,,,,,,,,,,,,,,,,,,,,,,,,,,,,,,,,,,,,,,,,,,,,,,,,,,,,,,,,,,,,,,,,,,,,,,,,,,,,,,,,,,,031321,1,2,1,2,1,44,2021_Mar_13_1602,short_answer,3.2.4,59.9314611823494,
,11,,,,,0,11,11,11,0,0,0,0,,,,,,,,,,,,,,,,,1590.9559477130001,None,space,0.7214058740000837,1590.9559477130001,None,1590.9559477130001,None,1590.9559477130001,None,1591.7223461610001,None,1591.7223461610001,None,They both sit in economy but calvin sits three rows behind jessie,Jessie has been thinking of breaking up with calvin since shortly before their vacation,"[1, 2]",1593.372221088,None,1593.372221088,None,1593.372221088,None,1593.372221088,None,1593.372221088,None,1593.372221088,None,1593.372221088,None,Jessie states that their personalities are incompatible,1618.4553646519998,None,1618.4553646519998,None,1618.4553646519998,None,1618.4553646519998,None,1618.4553646519998,None,1618.4553646519998,None,1618.4553646519998,None,Calvin is angry but says they should break up if he bores her so badly,1634.388742228,None,1634.388742228,None,1634.388742228,None,1634.388742228,None,1634.388742228,None,1634.388742228,None,1634.388742228,None,Jessie wants her philosophy books back,1653.8215455660002,None,1653.8215455660002,None,1653.8215455660002,None,1653.8215455660002,None,1653.8215455660002,None,1653.8215455660002,None,1653.8215455660002,None,I don't know,1690.7052861470002,None,1690.7052861470002,None,1690.7052861470002,None,1690.7052861470002,None,1690.7052861470002,None,1690.7052861470002,None,1690.7052861470002,None,The security guards were changing shifts,1711.755529089,None,1711.755529089,None,1711.755529089,None,1711.755529089,None,1711.755529089,None,1711.755529089,None,1711.755529089,None,I don't know,1721.804502818,None,1721.804502818,None,1721.804502818,None,1721.804502818,None,1721.804502818,None,1721.804502818,None,1721.804502818,None,They both sit in economy but calvin sits three rows behind jessie,1727.3880669189998,None,1727.3880669189998,None,1727.3880669189998,None,1727.3880669189998,None,1727.3880669189998,None,1727.3880669189998,None,1727.3880669189998,None,,,031321,1,2,1,2,1,44,2021_Mar_13_1602,short_answer,3.2.4,59.9314611823494,
,11,,,,,0,11,11,11,,,,,,,,,,,,,,,,,,,,,,,,,,,,,,,,,,,,,,,,,,,,,,,,,,,,,,,,,,,,,,,,,,,,,,,,,,,,,,,,,,,,,,,,,,,,,,,,,,,,,,,,,,,,,,,,,,,,,,,,,,,,,,,,,,,,,,,,,,,,,,,,,,,,,,,,,,,,,,,031321,1,2,1,2,1,44,2021_Mar_13_1602,short_answer,3.2.4,59.9314611823494,
,12,,,,,0,12,12,12,,,,,,,,,,,,,,,,,,,,,,,,,,,,,,,,,,,,,,,,,,,,,,,,,,,,,,,,,,,,,,,,,,,,,,,,,,,,,,,,,,,,,,,,,,,,,,,,,,,,,,,,,,,,,,,,,,,,,,,,,,,,,,,,,,,,,,,,,,,,,,,,,,,,,,,,,,,,,,,031321,1,2,1,2,1,44,2021_Mar_13_1602,short_answer,3.2.4,59.9314611823494,
,13,,,,,0,13,13,13,0,0,0,0,,,,,,,,,,,,,,,,,1748.2698875840001,None,space,0.6193875049998496,1748.2698875840001,None,1748.2698875840001,None,1748.2698875840001,None,1748.9361128790001,None,1748.9361128790001,None,4colon30,"It was like a warehouse with high black ceilings, large packages for the products, and fluorescent lights","[2, 1]",1749.887878182,None,1749.887878182,None,1749.887878182,None,1749.887878182,None,1749.887878182,None,1749.887878182,None,1749.887878182,None,"Chicken, cornish hen, spices, and pepper",1781.686444459,None,1781.686444459,None,1781.686444459,None,1781.686444459,None,1781.686444459,None,1781.686444459,None,1781.686444459,None,Three lanes are open but they each step into lane 8,1795.5199079059998,None,1795.5199079059998,None,1795.5199079059998,None,1795.5199079059998,None,1795.5199079059998,None,1795.5199079059998,None,1795.5199079059998,None,The total amount is not said but simon pays for all of the groceries with his credit card,1810.220577942,None,1810.220577942,None,1810.220577942,None,1810.220577942,None,1810.220577942,None,1810.220577942,None,1810.220577942,None,Products from the meat section,1830.3364867770001,None,1830.3364867770001,None,1830.3364867770001,None,1830.3364867770001,None,1830.3364867770001,None,1830.3364867770001,None,1830.3364867770001,None,Carina asks if the meat is cute,1860.4019238689998,None,1860.4019238689998,None,1860.4019238689998,None,1860.4019238689998,None,1860.4019238689998,None,1860.4019238689998,None,1860.4019238689998,None,They will meet a week after their gatherings for a date,1878.686724624,None,1878.686724624,None,1878.686724624,None,1878.686724624,None,1878.686724624,None,1878.686724624,None,1878.686724624,None,4colon30,1898.1858449400002,None,1898.1858449400002,None,1898.1858449400002,None,1898.1858449400002,None,1898.1858449400002,None,1898.1858449400002,None,1898.1858449400002,None,,,031321,1,2,1,2,1,44,2021_Mar_13_1602,short_answer,3.2.4,59.9314611823494,
,13,,,,,0,13,13,13,,,,,,,,,,,,,,,,,,,,,,,,,,,,,,,,,,,,,,,,,,,,,,,,,,,,,,,,,,,,,,,,,,,,,,,,,,,,,,,,,,,,,,,,,,,,,,,,,,,,,,,,,,,,,,,,,,,,,,,,,,,,,,,,,,,,,,,,,,,,,,,,,,,,,,,,,,,,,,,031321,1,2,1,2,1,44,2021_Mar_13_1602,short_answer,3.2.4,59.9314611823494,
,14,,,,,0,14,14,14,0,0,0,0,,,,,,,,,,,,,,,,,1902.734889724,None,space,0.8831579540001258,1902.734889724,None,1902.734889724,None,1902.734889724,None,1903.668614145,None,1903.668614145,None,3colon00,It has a glass door and is empty,"[2, 1]",1905.602596013,None,1905.602596013,None,1905.602596013,None,1905.602596013,None,1905.602596013,None,1905.602596013,None,1905.602596013,None,The menus contain long lists of japanese dishes with english translations next to them,1921.2019100050002,None,1921.2019100050002,None,1921.2019100050002,None,1921.2019100050002,None,1921.2019100050002,None,1921.2019100050002,None,1921.2019100050002,None,Teresa orders a japanese beer and james orders a salmon roll,1944.001944086,None,1944.001944086,None,1944.001944086,None,1944.001944086,None,1944.001944086,None,1944.001944086,None,1944.001944086,None,The food is not commented on explicitly,1961.6681228890002,None,1961.6681228890002,None,1961.6681228890002,None,1961.6681228890002,None,1961.6681228890002,None,1961.6681228890002,None,1961.6681228890002,None,James is holding a newspaper,1992.8340335009998,None,1992.8340335009998,None,1992.8340335009998,None,1992.8340335009998,None,1992.8340335009998,None,1992.8340335009998,None,1992.8340335009998,None,James asks teresa how her forehead feels,2005.800804599,None,2005.800804599,None,2005.800804599,None,2005.800804599,None,2005.800804599,None,2005.800804599,None,2005.800804599,None,James will pick teresa up at 8 for a concert that evening,2017.3169570149998,None,2017.3169570149998,None,2017.3169570149998,None,2017.3169570149998,None,2017.3169570149998,None,2017.3169570149998,None,2017.3169570149998,None,3colon00,2034.1667568500002,None,2034.1667568500002,None,2034.1667568500002,None,2034.1667568500002,None,2034.1667568500002,None,2034.1667568500002,None,2034.1667568500002,None,,,031321,1,2,1,2,1,44,2021_Mar_13_1602,short_answer,3.2.4,59.9314611823494,
,14,,,,,0,14,14,14,,,,,,,,,,,,,,,,,,,,,,,,,,,,,,,,,,,,,,,,,,,,,,,,,,,,,,,,,,,,,,,,,,,,,,,,,,,,,,,,,,,,,,,,,,,,,,,,,,,,,,,,,,,,,,,,,,,,,,,,,,,,,,,,,,,,,,,,,,,,,,,,,,,,,,,,,,,,,,,031321,1,2,1,2,1,44,2021_Mar_13_1602,short_answer,3.2.4,59.9314611823494,
,15,,,,,0,15,15,15,,,,,,,,,,,,,,,,,,,,,,,,,,,,,,,,,,,,,,,,,,,,,,,,,,,,,,,,,,,,,,,,,,,,,,,,,,,,,,,,,,,,,,,,,,,,,,,,,,,,,,,,,,,,,,,,,,,,,,,,,,,,,,,,,,,,,,,,,,,,,,,,,,,,,,,,,,,,,,,031321,1,2,1,2,1,44,2021_Mar_13_1602,short_answer,3.2.4,59.9314611823494,
,,,,,,,,,,,,,,0,0,0,0,,,,,,,,,,,,,,,,,,,,,,,,,,,,,,,,,,,,,,,,,,,,,,,,,,,,,,,,,,,,,,,,,,,,,,,,,,,,,,,,,,,,,,,,,,,,,,,,,,,,,,,,,,,,,,,,,,,,,,,,,,,,,,,,,,,,,,,,,,,,,,,,,,,,,2043.399092786,None,031321,1,2,1,2,1,44,2021_Mar_13_1602,short_answer,3.2.4,59.9314611823494,
