count,audio,trials_14.thisRepN,trials_14.thisTrialN,trials_14.thisN,trials_14.thisIndex,trials_3.thisRepN,trials_3.thisTrialN,trials_3.thisN,trials_3.thisIndex,trials_4.thisRepN,trials_4.thisTrialN,trials_4.thisN,trials_4.thisIndex,trials_6.thisRepN,trials_6.thisTrialN,trials_6.thisN,trials_6.thisIndex,trials_9.thisRepN,trials_9.thisTrialN,trials_9.thisN,trials_9.thisIndex,trials_10.thisRepN,trials_10.thisTrialN,trials_10.thisN,trials_10.thisIndex,trials_11.thisRepN,trials_11.thisTrialN,trials_11.thisN,trials_11.thisIndex,trials_12.thisRepN,trials_12.thisTrialN,trials_12.thisN,trials_12.thisIndex,trials_25.thisRepN,trials_25.thisTrialN,trials_25.thisN,trials_25.thisIndex,trials_15.thisRepN,trials_15.thisTrialN,trials_15.thisN,trials_15.thisIndex,trials_26.thisRepN,trials_26.thisTrialN,trials_26.thisN,trials_26.thisIndex,story_list_block2,action_list_block2,textTrigger.started,textTrigger.stopped,getTrigger.keys,getTrigger.rt,getTrigger.started,getTrigger.stopped,triggerTime,text_76.started,text_76.stopped,text_77.started,text_77.stopped,startWait,endWait,image_23.started,image_23.stopped,text_55.started,text_55.stopped,text_56.started,text_56.stopped,key_resp_2.keys,key_resp_2.rt,key_resp_2.started,key_resp_2.stopped,text_82.started,text_82.stopped,text_57.started,text_57.stopped,key_resp_17.keys,key_resp_17.rt,key_resp_17.started,key_resp_17.stopped,text_83.started,text_83.stopped,text_60.started,text_60.stopped,image_2.started,image_2.stopped,text_58.started,text_58.stopped,key_resp_23.keys,key_resp_23.rt,key_resp_23.started,key_resp_23.stopped,text_62.started,text_62.stopped,key_resp_18.keys,key_resp_18.rt,key_resp_18.started,key_resp_18.stopped,text_84.started,text_84.stopped,question1_2.started,question1_2.stopped,question2_2.started,question2_2.stopped,question3_2.started,question3_2.stopped,question4_2.started,question4_2.stopped,question5_2.started,question5_2.stopped,question6_2.started,question6_2.stopped,image_15.started,image_15.stopped,key_resp.keys,key_resp.started,key_resp.stopped,text_59.started,text_59.stopped,key_resp_19.keys,key_resp_19.rt,key_resp_19.started,key_resp_19.stopped,text_85.started,text_85.stopped,text_61.started,text_61.stopped,image_17.started,image_17.stopped,text_63.started,text_63.stopped,key_resp_24.keys,key_resp_24.rt,key_resp_24.started,key_resp_24.stopped,text_64.started,text_64.stopped,key_resp_20.keys,key_resp_20.rt,key_resp_20.started,key_resp_20.stopped,storyImage_StartTime,storyImage_EndTime,clip_StartTime,clip_EndTime,text_67.started,text_67.stopped,text_68.started,text_68.stopped,participant,sA,sB,lA,lB,block_struct,play_stories,block,behavioral,random_seed,date,expName,psychopyVersion,frameRate,
0,,,,,,,,,,0,0,0,0,0,0,0,0,0,0,0,0,0,0,0,0,0,0,0,0,,,,,,,,,,,,,,,,,[34 21 14 12 32 43 41 23],[1 1 4 2 3 2 4 3],14.812135934999787,None,equal,28.144746705000216,14.812135934999787,None,28.16787506899982,14.812135934999787,None,14.812135934999787,None,0.0003240180003558635,6.0155861890007145,42.97713784200005,None,49.00163752200024,None,49.00163752200024,None,2,1.6763094930001898,49.00163752200024,None,49.00163752200024,None,50.701668568999594,None,2,1.3562748319991442,50.701668568999594,None,50.701668568999594,None,52.10169940000014,None,52.10169940000014,None,52.10169940000014,None,2,2.327218321000146,52.10169940000014,None,54.4518062369998,None,2,2.782002521999857,54.4518062369998,None,54.4518062369998,None,57.32727670999975,None,57.32727670999975,None,57.32727670999975,None,57.32727670999975,None,57.32727670999975,None,57.32727670999975,None,57.32727670999975,None,None,57.32727670999975,None,,,,,,,,,,,,,,,,,,,,,,,,,,,,,,,,,031321,1,2,1,2,1,1,2,0,44,2021_Mar_13_1442,listening_fmri,3.2.4,59.9902177553541,
0,,,,,,,,,,0,0,0,0,0,0,0,0,0,0,0,0,0,0,0,0,,,,,,,,,,,,,,,,,,,,,,,,,,,,,,,,,,,,,,,,,,,,,,,,,,,,,,,,,,,,,,,,,,,,,,,,,,,,,,,,,,,,,,,,,,,78.65239112899962,None,3,1.2525355540001328,78.65239112899962,None,78.65239112899962,None,79.94368974699955,None,79.94368974699955,None,79.94368974699955,None,3,1.0532455619995744,79.94368974699955,None,,,,,,,,,,,,,,,031321,1,2,1,2,1,1,2,0,44,2021_Mar_13_1442,listening_fmri,3.2.4,59.9902177553541,
0,parcelated_audio/34/34_1.ogg,,,,,,,,,0,0,0,0,0,0,0,0,0,0,0,0,,,,,,,,,,,,,0,0,0,0,0,0,0,0,,,,,,,,,,,,,,,,,,,,,,,,,,,,,,,,,,,,,,,,,,,,,,,,,,,,,,,,,,,,,,,,,,,,,,,,,,,,,,,,,,,,,,,,,,,,,81.01838972200039,None,3,1.350410009999905,81.01838972200039,None,39.43106075100059,42.44850377400053,42.459392579999985,51.169927648999874,,,,,031321,1,2,1,2,1,1,2,0,44,2021_Mar_13_1442,listening_fmri,3.2.4,59.9902177553541,
0,parcelated_audio/34/34_2.ogg,,,,,,,,,0,0,0,0,0,0,0,0,0,0,0,0,,,,,,,,,,,,,0,0,0,0,0,1,1,1,,,,,,,,,,,,,,,,,,,,,,,,,,,,,,,,,,,,,,,,,,,,,,,,,,,,,,,,,,,,,,,,,,,,,,,,,,,,,,,,,,,,,,,,,,,,,,,,,,,,,51.17045803700057,55.72496423700068,,,,,031321,1,2,1,2,1,1,2,0,44,2021_Mar_13_1442,listening_fmri,3.2.4,59.9902177553541,
0,parcelated_audio/34/34_3.ogg,,,,,,,,,0,0,0,0,0,0,0,0,0,0,0,0,,,,,,,,,,,,,0,0,0,0,0,2,2,2,,,,,,,,,,,,,,,,,,,,,,,,,,,,,,,,,,,,,,,,,,,,,,,,,,,,,,,,,,,,,,,,,,,,,,,,,,,,,,,,,,,,,,,,,,,,,,,,,,,,,55.72575888400024,60.36979264199999,,,,,031321,1,2,1,2,1,1,2,0,44,2021_Mar_13_1442,listening_fmri,3.2.4,59.9902177553541,
0,parcelated_audio/34/34_4.ogg,,,,,,,,,0,0,0,0,0,0,0,0,0,0,0,0,,,,,,,,,,,,,0,0,0,0,0,3,3,3,,,,,,,,,,,,,,,,,,,,,,,,,,,,,,,,,,,,,,,,,,,,,,,,,,,,,,,,,,,,,,,,,,,,,,,,,,,,,,,,,,,,,,,,,,,,,,,,,,,,,60.37068951600031,69.99419812100041,,,,,031321,1,2,1,2,1,1,2,0,44,2021_Mar_13_1442,listening_fmri,3.2.4,59.9902177553541,
0,parcelated_audio/34/34_5.ogg,,,,,,,,,0,0,0,0,0,0,0,0,0,0,0,0,,,,,,,,,,,,,0,0,0,0,0,4,4,4,,,,,,,,,,,,,,,,,,,,,,,,,,,,,,,,,,,,,,,,,,,,,,,,,,,,,,,,,,,,,,,,,,,,,,,,,,,,,,,,,,,,,,,,,,,,,,,,,,,,,69.99450765800066,80.41549495000072,,,,,031321,1,2,1,2,1,1,2,0,44,2021_Mar_13_1442,listening_fmri,3.2.4,59.9902177553541,
0,parcelated_audio/34/34_6.ogg,,,,,,,,,0,0,0,0,0,0,0,0,0,0,0,0,,,,,,,,,,,,,0,0,0,0,0,5,5,5,,,,,,,,,,,,,,,,,,,,,,,,,,,,,,,,,,,,,,,,,,,,,,,,,,,,,,,,,,,,,,,,,,,,,,,,,,,,,,,,,,,,,,,,,,,,,,,,,,,,,80.41577331999997,89.11922155899993,,,,,031321,1,2,1,2,1,1,2,0,44,2021_Mar_13_1442,listening_fmri,3.2.4,59.9902177553541,
0,parcelated_audio/34/34_7.ogg,,,,,,,,,0,0,0,0,0,0,0,0,0,0,0,0,,,,,,,,,,,,,0,0,0,0,0,6,6,6,,,,,,,,,,,,,,,,,,,,,,,,,,,,,,,,,,,,,,,,,,,,,,,,,,,,,,,,,,,,,,,,,,,,,,,,,,,,,,,,,,,,,,,,,,,,,,,,,,,,,89.11957212000016,95.11010410000017,,,,,031321,1,2,1,2,1,1,2,0,44,2021_Mar_13_1442,listening_fmri,3.2.4,59.9902177553541,
0,parcelated_audio/34/34_8.ogg,,,,,,,,,0,0,0,0,0,0,0,0,0,0,0,0,,,,,,,,,,,,,0,0,0,0,0,7,7,7,,,,,,,,,,,,,,,,,,,,,,,,,,,,,,,,,,,,,,,,,,,,,,,,,,,,,,,,,,,,,,,,,,,,,,,,,,,,,,,,,,,,,,,,,,,,,,,,,,,,,95.11065963600049,103.08127544499985,,,,,031321,1,2,1,2,1,1,2,0,44,2021_Mar_13_1442,listening_fmri,3.2.4,59.9902177553541,
0,parcelated_audio/34/34_9.ogg,,,,,,,,,0,0,0,0,0,0,0,0,0,0,0,0,,,,,,,,,,,,,0,0,0,0,0,8,8,8,,,,,,,,,,,,,,,,,,,,,,,,,,,,,,,,,,,,,,,,,,,,,,,,,,,,,,,,,,,,,,,,,,,,,,,,,,,,,,,,,,,,,,,,,,,,,,,,,,,,,103.08163388200046,107.86239791600019,,,,,031321,1,2,1,2,1,1,2,0,44,2021_Mar_13_1442,listening_fmri,3.2.4,59.9902177553541,
0,parcelated_audio/34/34_10.ogg,,,,,,,,,0,0,0,0,0,0,0,0,0,0,0,0,,,,,,,,,,,,,0,0,0,0,0,9,9,9,,,,,,,,,,,,,,,,,,,,,,,,,,,,,,,,,,,,,,,,,,,,,,,,,,,,,,,,,,,,,,,,,,,,,,,,,,,,,,,,,,,,,,,,,,,,,,,,,,,,,107.8627657699999,114.98420572300074,,,,,031321,1,2,1,2,1,1,2,0,44,2021_Mar_13_1442,listening_fmri,3.2.4,59.9902177553541,
0,parcelated_audio/34/34_11.ogg,,,,,,,,,0,0,0,0,0,0,0,0,0,0,0,0,,,,,,,,,,,,,0,0,0,0,0,10,10,10,,,,,,,,,,,,,,,,,,,,,,,,,,,,,,,,,,,,,,,,,,,,,,,,,,,,,,,,,,,,,,,,,,,,,,,,,,,,,,,,,,,,,,,,,,,,,,,,,,,,,114.98457396899994,118.43398633600009,,,,,031321,1,2,1,2,1,1,2,0,44,2021_Mar_13_1442,listening_fmri,3.2.4,59.9902177553541,
0,parcelated_audio/34/34_12.ogg,,,,,,,,,0,0,0,0,0,0,0,0,0,0,0,0,,,,,,,,,,,,,0,0,0,0,0,11,11,11,,,,,,,,,,,,,,,,,,,,,,,,,,,,,,,,,,,,,,,,,,,,,,,,,,,,,,,,,,,,,,,,,,,,,,,,,,,,,,,,,,,,,,,,,,,,,,,,,,,,,118.43456356500064,126.5981014480003,,,,,031321,1,2,1,2,1,1,2,0,44,2021_Mar_13_1442,listening_fmri,3.2.4,59.9902177553541,
0,parcelated_audio/34/34_13.ogg,,,,,,,,,0,0,0,0,0,0,0,0,0,0,0,0,,,,,,,,,,,,,0,0,0,0,0,12,12,12,,,,,,,,,,,,,,,,,,,,,,,,,,,,,,,,,,,,,,,,,,,,,,,,,,,,,,,,,,,,,,,,,,,,,,,,,,,,,,,,,,,,,,,,,,,,,,,,,,,,,126.59845247900012,130.48604283700024,,,,,031321,1,2,1,2,1,1,2,0,44,2021_Mar_13_1442,listening_fmri,3.2.4,59.9902177553541,
0,parcelated_audio/34/34_14.ogg,,,,,,,,,0,0,0,0,0,0,0,0,0,0,0,0,,,,,,,,,,,,,0,0,0,0,0,13,13,13,,,,,,,,,,,,,,,,,,,,,,,,,,,,,,,,,,,,,,,,,,,,,,,,,,,,,,,,,,,,,,,,,,,,,,,,,,,,,,,,,,,,,,,,,,,,,,,,,,,,,130.4864029600003,135.14593158200023,,,,,031321,1,2,1,2,1,1,2,0,44,2021_Mar_13_1442,listening_fmri,3.2.4,59.9902177553541,
0,parcelated_audio/34/34_15.ogg,,,,,,,,,0,0,0,0,0,0,0,0,0,0,0,0,,,,,,,,,,,,,0,0,0,0,0,14,14,14,,,,,,,,,,,,,,,,,,,,,,,,,,,,,,,,,,,,,,,,,,,,,,,,,,,,,,,,,,,,,,,,,,,,,,,,,,,,,,,,,,,,,,,,,,,,,,,,,,,,,135.14666808600032,139.34044440300022,,,,,031321,1,2,1,2,1,1,2,0,44,2021_Mar_13_1442,listening_fmri,3.2.4,59.9902177553541,
0,parcelated_audio/34/34_16.ogg,,,,,,,,,0,0,0,0,0,0,0,0,0,0,0,0,,,,,,,,,,,,,0,0,0,0,0,15,15,15,,,,,,,,,,,,,,,,,,,,,,,,,,,,,,,,,,,,,,,,,,,,,,,,,,,,,,,,,,,,,,,,,,,,,,,,,,,,,,,,,,,,,,,,,,,,,,,,,,,,,139.34080058400014,152.34598957700018,,,,,031321,1,2,1,2,1,1,2,0,44,2021_Mar_13_1442,listening_fmri,3.2.4,59.9902177553541,
0,parcelated_audio/34/34_17.ogg,,,,,,,,,0,0,0,0,0,0,0,0,0,0,0,0,,,,,,,,,,,,,0,0,0,0,0,16,16,16,,,,,,,,,,,,,,,,,,,,,,,,,,,,,,,,,,,,,,,,,,,,,,,,,,,,,,,,,,,,,,,,,,,,,,,,,,,,,,,,,,,,,,,,,,,,,,,,,,,,,152.34646031100056,161.26821976000065,,,,,031321,1,2,1,2,1,1,2,0,44,2021_Mar_13_1442,listening_fmri,3.2.4,59.9902177553541,
0,parcelated_audio/34/34_18.ogg,,,,,,,,,0,0,0,0,0,0,0,0,0,0,0,0,,,,,,,,,,,,,0,0,0,0,0,17,17,17,,,,,,,,,,,,,,,,,,,,,,,,,,,,,,,,,,,,,,,,,,,,,,,,,,,,,,,,,,,,,,,,,,,,,,,,,,,,,,,,,,,,,,,,,,,,,,,,,,,,,161.26857342200037,167.15408435600057,,,,,031321,1,2,1,2,1,1,2,0,44,2021_Mar_13_1442,listening_fmri,3.2.4,59.9902177553541,
0,parcelated_audio/34/34_19.ogg,,,,,,,,,0,0,0,0,0,0,0,0,0,0,0,0,,,,,,,,,,,,,0,0,0,0,0,18,18,18,,,,,,,,,,,,,,,,,,,,,,,,,,,,,,,,,,,,,,,,,,,,,,,,,,,,,,,,,,,,,,,,,,,,,,,,,,,,,,,,,,,,,,,,,,,,,,,,,,,,,167.1544427810004,173.3780296620007,,,,,031321,1,2,1,2,1,1,2,0,44,2021_Mar_13_1442,listening_fmri,3.2.4,59.9902177553541,
0,parcelated_audio/34/34_20.ogg,,,,,,,,,0,0,0,0,0,0,0,0,0,0,0,0,,,,,,,,,,,,,0,0,0,0,0,19,19,19,,,,,,,,,,,,,,,,,,,,,,,,,,,,,,,,,,,,,,,,,,,,,,,,,,,,,,,,,,,,,,,,,,,,,,,,,,,,,,,,,,,,,,,,,,,,,,,,,,,,,173.37860749900028,181.83092030100033,,,,,031321,1,2,1,2,1,1,2,0,44,2021_Mar_13_1442,listening_fmri,3.2.4,59.9902177553541,
0,parcelated_audio/34/34_21.ogg,,,,,,,,,0,0,0,0,0,0,0,0,0,0,0,0,,,,,,,,,,,,,0,0,0,0,0,20,20,20,,,,,,,,,,,,,,,,,,,,,,,,,,,,,,,,,,,,,,,,,,,,,,,,,,,,,,,,,,,,,,,,,,,,,,,,,,,,,,,,,,,,,,,,,,,,,,,,,,,,,181.83127366900044,188.18614091500058,,,,,031321,1,2,1,2,1,1,2,0,44,2021_Mar_13_1442,listening_fmri,3.2.4,59.9902177553541,
0,parcelated_audio/34/34_22.ogg,,,,,,,,,0,0,0,0,0,0,0,0,0,0,0,0,,,,,,,,,,,,,0,0,0,0,0,21,21,21,,,,,,,,,,,,,,,,,,,,,,,,,,,,,,,,,,,,,,,,,,,,,,,,,,,,,,,,,,,,,,,,,,,,,,,,,,,,,,,,,,,,,,,,,,,,,,,,,,,,,188.18645625299996,193.313993062,,,,,031321,1,2,1,2,1,1,2,0,44,2021_Mar_13_1442,listening_fmri,3.2.4,59.9902177553541,
0,parcelated_audio/34/34_23.ogg,,,,,,,,,0,0,0,0,0,0,0,0,0,0,0,0,,,,,,,,,,,,,0,0,0,0,0,22,22,22,,,,,,,,,,,,,,,,,,,,,,,,,,,,,,,,,,,,,,,,,,,,,,,,,,,,,,,,,,,,,,,,,,,,,,,,,,,,,,,,,,,,,,,,,,,,,,,,,,,,,193.31441067700052,201.10180048300026,,,,,031321,1,2,1,2,1,1,2,0,44,2021_Mar_13_1442,listening_fmri,3.2.4,59.9902177553541,
0,parcelated_audio/34/34_24.ogg,,,,,,,,,0,0,0,0,0,0,0,0,0,0,0,0,,,,,,,,,,,,,0,0,0,0,0,23,23,23,,,,,,,,,,,,,,,,,,,,,,,,,,,,,,,,,,,,,,,,,,,,,,,,,,,,,,,,,,,,,,,,,,,,,,,,,,,,,,,,,,,,,,,,,,,,,,,,,,,,,201.10232504600026,206.892511,,,,,031321,1,2,1,2,1,1,2,0,44,2021_Mar_13_1442,listening_fmri,3.2.4,59.9902177553541,
0,parcelated_audio/34/34_25.ogg,,,,,,,,,0,0,0,0,0,0,0,0,0,0,0,0,,,,,,,,,,,,,0,0,0,0,0,24,24,24,,,,,,,,,,,,,,,,,,,,,,,,,,,,,,,,,,,,,,,,,,,,,,,,,,,,,,,,,,,,,,,,,,,,,,,,,,,,,,,,,,,,,,,,,,,,,,,,,,,,,206.89287925100052,213.45217925100042,,,,,031321,1,2,1,2,1,1,2,0,44,2021_Mar_13_1442,listening_fmri,3.2.4,59.9902177553541,
0,parcelated_audio/34/34_26.ogg,,,,,,,,,0,0,0,0,0,0,0,0,0,0,0,0,,,,,,,,,,,,,0,0,0,0,0,25,25,25,,,,,,,,,,,,,,,,,,,,,,,,,,,,,,,,,,,,,,,,,,,,,,,,,,,,,,,,,,,,,,,,,,,,,,,,,,,,,,,,,,,,,,,,,,,,,,,,,,,,,213.45265720800035,223.11281592900013,,,,,031321,1,2,1,2,1,1,2,0,44,2021_Mar_13_1442,listening_fmri,3.2.4,59.9902177553541,
0,parcelated_audio/34/34_27.ogg,,,,,,,,,0,0,0,0,0,0,0,0,0,0,0,0,,,,,,,,,,,,,0,0,0,0,0,26,26,26,,,,,,,,,,,,,,,,,,,,,,,,,,,,,,,,,,,,,,,,,,,,,,,,,,,,,,,,,,,,,,,,,,,,,,,,,,,,,,,,,,,,,,,,,,,,,,,,,,,,,223.11318758900052,230.6152790420001,,,,,031321,1,2,1,2,1,1,2,0,44,2021_Mar_13_1442,listening_fmri,3.2.4,59.9902177553541,
0,,,,,,,,,,0,0,0,0,0,0,0,0,0,0,0,0,,,,,,,,,,,,,0,0,0,0,,,,,,,,,,,,,,,,,,,,,,,,,,,,,,,,,,,,,,,,,,,,,,,,,,,,,,,,,,,,,,,,,,,,,,,,,,,,,,,,,,,,,,,,,,,,,,,,,,,,,,,,,,,,,,,031321,1,2,1,2,1,1,2,0,44,2021_Mar_13_1442,listening_fmri,3.2.4,59.9902177553541,
,,,,,,,,,,,,,,,,,,,,,,,,,,,,,,,,,,,,,,,,,,,,,,,,,,,,,,,,,,,230.61576833800063,236.61244689600062,273.58509643900015,None,,,,,,,,,,,,,,,,,,,,,,,,,,,,,,,,,,,,,,,,,,,,,,,,,,,,,,,,,,,,,,,,,,,,,,,,,,,,,,,,,,279.5851715709996,None,279.5851715709996,None,,,,,,,,,,,,,,,
﻿count,audio,trials_14.thisRepN,trials_14.thisTrialN,trials_14.thisN,trials_14.thisIndex,trials_3.thisRepN,trials_3.thisTrialN,trials_3.thisN,trials_3.thisIndex,trials_4.thisRepN,trials_4.thisTrialN,trials_4.thisN,trials_4.thisIndex,trials_6.thisRepN,trials_6.thisTrialN,trials_6.thisN,trials_6.thisIndex,trials_9.thisRepN,trials_9.thisTrialN,trials_9.thisN,trials_9.thisIndex,trials_10.thisRepN,trials_10.thisTrialN,trials_10.thisN,trials_10.thisIndex,trials_11.thisRepN,trials_11.thisTrialN,trials_11.thisN,trials_11.thisIndex,trials_12.thisRepN,trials_12.thisTrialN,trials_12.thisN,trials_12.thisIndex,trials_25.thisRepN,trials_25.thisTrialN,trials_25.thisN,trials_25.thisIndex,trials_15.thisRepN,trials_15.thisTrialN,trials_15.thisN,trials_15.thisIndex,trials_26.thisRepN,trials_26.thisTrialN,trials_26.thisN,trials_26.thisIndex,story_list_block2,action_list_block2,textTrigger.started,textTrigger.stopped,getTrigger.keys,getTrigger.rt,getTrigger.started,getTrigger.stopped,triggerTime,text_76.started,text_76.stopped,text_77.started,text_77.stopped,startWait,endWait,image_23.started,image_23.stopped,text_55.started,text_55.stopped,text_56.started,text_56.stopped,key_resp_2.keys,key_resp_2.rt,key_resp_2.started,key_resp_2.stopped,text_82.started,text_82.stopped,text_57.started,text_57.stopped,key_resp_17.keys,key_resp_17.rt,key_resp_17.started,key_resp_17.stopped,text_83.started,text_83.stopped,text_60.started,text_60.stopped,image_2.started,image_2.stopped,text_58.started,text_58.stopped,key_resp_23.keys,key_resp_23.rt,key_resp_23.started,key_resp_23.stopped,text_62.started,text_62.stopped,key_resp_18.keys,key_resp_18.rt,key_resp_18.started,key_resp_18.stopped,text_84.started,text_84.stopped,question1_2.started,question1_2.stopped,question2_2.started,question2_2.stopped,question3_2.started,question3_2.stopped,question4_2.started,question4_2.stopped,question5_2.started,question5_2.stopped,question6_2.started,question6_2.stopped,image_15.started,image_15.stopped,key_resp.keys,key_resp.started,key_resp.stopped,text_59.started,text_59.stopped,key_resp_19.keys,key_resp_19.rt,key_resp_19.started,key_resp_19.stopped,text_85.started,text_85.stopped,text_61.started,text_61.stopped,image_17.started,image_17.stopped,text_63.started,text_63.stopped,key_resp_24.keys,key_resp_24.rt,key_resp_24.started,key_resp_24.stopped,text_64.started,text_64.stopped,key_resp_20.keys,key_resp_20.rt,key_resp_20.started,key_resp_20.stopped,storyImage_StartTime,storyImage_EndTime,clip_StartTime,clip_EndTime,text_67.started,text_67.stopped,text_68.started,text_68.stopped,participant,sA,sB,lA,lB,block_struct,play_stories,block,behavioral,random_seed,date,expName,psychopyVersion,frameRate,
0,,,,,,,,,,0,0,0,0,0,0,0,0,0,0,0,0,0,0,0,0,0,0,0,0,,,,,,,,,,,,,,,,,[34 21 14 12 32 43 41 23],[1 1 4 2 3 2 4 3],14.812135934999787,None,equal,28.144746705000216,14.812135934999787,None,28.16787506899982,14.812135934999787,None,14.812135934999787,None,0.0003240180003558635,6.0155861890007145,42.97713784200005,None,49.00163752200024,None,49.00163752200024,None,2,1.6763094930001898,49.00163752200024,None,49.00163752200024,None,50.701668568999594,None,2,1.3562748319991442,50.701668568999594,None,50.701668568999594,None,52.10169940000014,None,52.10169940000014,None,52.10169940000014,None,2,2.327218321000146,52.10169940000014,None,54.4518062369998,None,2,2.782002521999857,54.4518062369998,None,54.4518062369998,None,57.32727670999975,None,57.32727670999975,None,57.32727670999975,None,57.32727670999975,None,57.32727670999975,None,57.32727670999975,None,57.32727670999975,None,None,57.32727670999975,None,,,,,,,,,,,,,,,,,,,,,,,,,,,,,,,,,031321,1,2,1,2,1,1,2,0,44,2021_Mar_13_1442,listening_fmri,3.2.4,59.9902177553541,
0,,,,,,,,,,0,0,0,0,0,0,0,0,0,0,0,0,0,0,0,0,,,,,,,,,,,,,,,,,,,,,,,,,,,,,,,,,,,,,,,,,,,,,,,,,,,,,,,,,,,,,,,,,,,,,,,,,,,,,,,,,,,,,,,,,,,78.65239112899962,None,3,1.2525355540001328,78.65239112899962,None,78.65239112899962,None,79.94368974699955,None,79.94368974699955,None,79.94368974699955,None,3,1.0532455619995744,79.94368974699955,None,,,,,,,,,,,,,,,031321,1,2,1,2,1,1,2,0,44,2021_Mar_13_1442,listening_fmri,3.2.4,59.9902177553541,
0,parcelated_audio/34/34_1.ogg,,,,,,,,,0,0,0,0,0,0,0,0,0,0,0,0,,,,,,,,,,,,,0,0,0,0,0,0,0,0,,,,,,,,,,,,,,,,,,,,,,,,,,,,,,,,,,,,,,,,,,,,,,,,,,,,,,,,,,,,,,,,,,,,,,,,,,,,,,,,,,,,,,,,,,,,,81.01838972200039,None,3,1.350410009999905,81.01838972200039,None,39.43106075100059,42.44850377400053,42.459392579999985,51.169927648999874,,,,,031321,1,2,1,2,1,1,2,0,44,2021_Mar_13_1442,listening_fmri,3.2.4,59.9902177553541,
0,parcelated_audio/34/34_2.ogg,,,,,,,,,0,0,0,0,0,0,0,0,0,0,0,0,,,,,,,,,,,,,0,0,0,0,0,1,1,1,,,,,,,,,,,,,,,,,,,,,,,,,,,,,,,,,,,,,,,,,,,,,,,,,,,,,,,,,,,,,,,,,,,,,,,,,,,,,,,,,,,,,,,,,,,,,,,,,,,,,51.17045803700057,55.72496423700068,,,,,031321,1,2,1,2,1,1,2,0,44,2021_Mar_13_1442,listening_fmri,3.2.4,59.9902177553541,
0,parcelated_audio/34/34_3.ogg,,,,,,,,,0,0,0,0,0,0,0,0,0,0,0,0,,,,,,,,,,,,,0,0,0,0,0,2,2,2,,,,,,,,,,,,,,,,,,,,,,,,,,,,,,,,,,,,,,,,,,,,,,,,,,,,,,,,,,,,,,,,,,,,,,,,,,,,,,,,,,,,,,,,,,,,,,,,,,,,,55.72575888400024,60.36979264199999,,,,,031321,1,2,1,2,1,1,2,0,44,2021_Mar_13_1442,listening_fmri,3.2.4,59.9902177553541,
0,parcelated_audio/34/34_4.ogg,,,,,,,,,0,0,0,0,0,0,0,0,0,0,0,0,,,,,,,,,,,,,0,0,0,0,0,3,3,3,,,,,,,,,,,,,,,,,,,,,,,,,,,,,,,,,,,,,,,,,,,,,,,,,,,,,,,,,,,,,,,,,,,,,,,,,,,,,,,,,,,,,,,,,,,,,,,,,,,,,60.37068951600031,69.99419812100041,,,,,031321,1,2,1,2,1,1,2,0,44,2021_Mar_13_1442,listening_fmri,3.2.4,59.9902177553541,
0,parcelated_audio/34/34_5.ogg,,,,,,,,,0,0,0,0,0,0,0,0,0,0,0,0,,,,,,,,,,,,,0,0,0,0,0,4,4,4,,,,,,,,,,,,,,,,,,,,,,,,,,,,,,,,,,,,,,,,,,,,,,,,,,,,,,,,,,,,,,,,,,,,,,,,,,,,,,,,,,,,,,,,,,,,,,,,,,,,,69.99450765800066,80.41549495000072,,,,,031321,1,2,1,2,1,1,2,0,44,2021_Mar_13_1442,listening_fmri,3.2.4,59.9902177553541,
0,parcelated_audio/34/34_6.ogg,,,,,,,,,0,0,0,0,0,0,0,0,0,0,0,0,,,,,,,,,,,,,0,0,0,0,0,5,5,5,,,,,,,,,,,,,,,,,,,,,,,,,,,,,,,,,,,,,,,,,,,,,,,,,,,,,,,,,,,,,,,,,,,,,,,,,,,,,,,,,,,,,,,,,,,,,,,,,,,,,80.41577331999997,89.11922155899993,,,,,031321,1,2,1,2,1,1,2,0,44,2021_Mar_13_1442,listening_fmri,3.2.4,59.9902177553541,
0,parcelated_audio/34/34_7.ogg,,,,,,,,,0,0,0,0,0,0,0,0,0,0,0,0,,,,,,,,,,,,,0,0,0,0,0,6,6,6,,,,,,,,,,,,,,,,,,,,,,,,,,,,,,,,,,,,,,,,,,,,,,,,,,,,,,,,,,,,,,,,,,,,,,,,,,,,,,,,,,,,,,,,,,,,,,,,,,,,,89.11957212000016,95.11010410000017,,,,,031321,1,2,1,2,1,1,2,0,44,2021_Mar_13_1442,listening_fmri,3.2.4,59.9902177553541,
0,parcelated_audio/34/34_8.ogg,,,,,,,,,0,0,0,0,0,0,0,0,0,0,0,0,,,,,,,,,,,,,0,0,0,0,0,7,7,7,,,,,,,,,,,,,,,,,,,,,,,,,,,,,,,,,,,,,,,,,,,,,,,,,,,,,,,,,,,,,,,,,,,,,,,,,,,,,,,,,,,,,,,,,,,,,,,,,,,,,95.11065963600049,103.08127544499985,,,,,031321,1,2,1,2,1,1,2,0,44,2021_Mar_13_1442,listening_fmri,3.2.4,59.9902177553541,
0,parcelated_audio/34/34_9.ogg,,,,,,,,,0,0,0,0,0,0,0,0,0,0,0,0,,,,,,,,,,,,,0,0,0,0,0,8,8,8,,,,,,,,,,,,,,,,,,,,,,,,,,,,,,,,,,,,,,,,,,,,,,,,,,,,,,,,,,,,,,,,,,,,,,,,,,,,,,,,,,,,,,,,,,,,,,,,,,,,,103.08163388200046,107.86239791600019,,,,,031321,1,2,1,2,1,1,2,0,44,2021_Mar_13_1442,listening_fmri,3.2.4,59.9902177553541,
0,parcelated_audio/34/34_10.ogg,,,,,,,,,0,0,0,0,0,0,0,0,0,0,0,0,,,,,,,,,,,,,0,0,0,0,0,9,9,9,,,,,,,,,,,,,,,,,,,,,,,,,,,,,,,,,,,,,,,,,,,,,,,,,,,,,,,,,,,,,,,,,,,,,,,,,,,,,,,,,,,,,,,,,,,,,,,,,,,,,107.8627657699999,114.98420572300074,,,,,031321,1,2,1,2,1,1,2,0,44,2021_Mar_13_1442,listening_fmri,3.2.4,59.9902177553541,
0,parcelated_audio/34/34_11.ogg,,,,,,,,,0,0,0,0,0,0,0,0,0,0,0,0,,,,,,,,,,,,,0,0,0,0,0,10,10,10,,,,,,,,,,,,,,,,,,,,,,,,,,,,,,,,,,,,,,,,,,,,,,,,,,,,,,,,,,,,,,,,,,,,,,,,,,,,,,,,,,,,,,,,,,,,,,,,,,,,,114.98457396899994,118.43398633600009,,,,,031321,1,2,1,2,1,1,2,0,44,2021_Mar_13_1442,listening_fmri,3.2.4,59.9902177553541,
0,parcelated_audio/34/34_12.ogg,,,,,,,,,0,0,0,0,0,0,0,0,0,0,0,0,,,,,,,,,,,,,0,0,0,0,0,11,11,11,,,,,,,,,,,,,,,,,,,,,,,,,,,,,,,,,,,,,,,,,,,,,,,,,,,,,,,,,,,,,,,,,,,,,,,,,,,,,,,,,,,,,,,,,,,,,,,,,,,,,118.43456356500064,126.5981014480003,,,,,031321,1,2,1,2,1,1,2,0,44,2021_Mar_13_1442,listening_fmri,3.2.4,59.9902177553541,
0,parcelated_audio/34/34_13.ogg,,,,,,,,,0,0,0,0,0,0,0,0,0,0,0,0,,,,,,,,,,,,,0,0,0,0,0,12,12,12,,,,,,,,,,,,,,,,,,,,,,,,,,,,,,,,,,,,,,,,,,,,,,,,,,,,,,,,,,,,,,,,,,,,,,,,,,,,,,,,,,,,,,,,,,,,,,,,,,,,,126.59845247900012,130.48604283700024,,,,,031321,1,2,1,2,1,1,2,0,44,2021_Mar_13_1442,listening_fmri,3.2.4,59.9902177553541,
0,parcelated_audio/34/34_14.ogg,,,,,,,,,0,0,0,0,0,0,0,0,0,0,0,0,,,,,,,,,,,,,0,0,0,0,0,13,13,13,,,,,,,,,,,,,,,,,,,,,,,,,,,,,,,,,,,,,,,,,,,,,,,,,,,,,,,,,,,,,,,,,,,,,,,,,,,,,,,,,,,,,,,,,,,,,,,,,,,,,130.4864029600003,135.14593158200023,,,,,031321,1,2,1,2,1,1,2,0,44,2021_Mar_13_1442,listening_fmri,3.2.4,59.9902177553541,
0,parcelated_audio/34/34_15.ogg,,,,,,,,,0,0,0,0,0,0,0,0,0,0,0,0,,,,,,,,,,,,,0,0,0,0,0,14,14,14,,,,,,,,,,,,,,,,,,,,,,,,,,,,,,,,,,,,,,,,,,,,,,,,,,,,,,,,,,,,,,,,,,,,,,,,,,,,,,,,,,,,,,,,,,,,,,,,,,,,,135.14666808600032,139.34044440300022,,,,,031321,1,2,1,2,1,1,2,0,44,2021_Mar_13_1442,listening_fmri,3.2.4,59.9902177553541,
0,parcelated_audio/34/34_16.ogg,,,,,,,,,0,0,0,0,0,0,0,0,0,0,0,0,,,,,,,,,,,,,0,0,0,0,0,15,15,15,,,,,,,,,,,,,,,,,,,,,,,,,,,,,,,,,,,,,,,,,,,,,,,,,,,,,,,,,,,,,,,,,,,,,,,,,,,,,,,,,,,,,,,,,,,,,,,,,,,,,139.34080058400014,152.34598957700018,,,,,031321,1,2,1,2,1,1,2,0,44,2021_Mar_13_1442,listening_fmri,3.2.4,59.9902177553541,
0,parcelated_audio/34/34_17.ogg,,,,,,,,,0,0,0,0,0,0,0,0,0,0,0,0,,,,,,,,,,,,,0,0,0,0,0,16,16,16,,,,,,,,,,,,,,,,,,,,,,,,,,,,,,,,,,,,,,,,,,,,,,,,,,,,,,,,,,,,,,,,,,,,,,,,,,,,,,,,,,,,,,,,,,,,,,,,,,,,,152.34646031100056,161.26821976000065,,,,,031321,1,2,1,2,1,1,2,0,44,2021_Mar_13_1442,listening_fmri,3.2.4,59.9902177553541,
0,parcelated_audio/34/34_18.ogg,,,,,,,,,0,0,0,0,0,0,0,0,0,0,0,0,,,,,,,,,,,,,0,0,0,0,0,17,17,17,,,,,,,,,,,,,,,,,,,,,,,,,,,,,,,,,,,,,,,,,,,,,,,,,,,,,,,,,,,,,,,,,,,,,,,,,,,,,,,,,,,,,,,,,,,,,,,,,,,,,161.26857342200037,167.15408435600057,,,,,031321,1,2,1,2,1,1,2,0,44,2021_Mar_13_1442,listening_fmri,3.2.4,59.9902177553541,
0,parcelated_audio/34/34_19.ogg,,,,,,,,,0,0,0,0,0,0,0,0,0,0,0,0,,,,,,,,,,,,,0,0,0,0,0,18,18,18,,,,,,,,,,,,,,,,,,,,,,,,,,,,,,,,,,,,,,,,,,,,,,,,,,,,,,,,,,,,,,,,,,,,,,,,,,,,,,,,,,,,,,,,,,,,,,,,,,,,,167.1544427810004,173.3780296620007,,,,,031321,1,2,1,2,1,1,2,0,44,2021_Mar_13_1442,listening_fmri,3.2.4,59.9902177553541,
0,parcelated_audio/34/34_20.ogg,,,,,,,,,0,0,0,0,0,0,0,0,0,0,0,0,,,,,,,,,,,,,0,0,0,0,0,19,19,19,,,,,,,,,,,,,,,,,,,,,,,,,,,,,,,,,,,,,,,,,,,,,,,,,,,,,,,,,,,,,,,,,,,,,,,,,,,,,,,,,,,,,,,,,,,,,,,,,,,,,173.37860749900028,181.83092030100033,,,,,031321,1,2,1,2,1,1,2,0,44,2021_Mar_13_1442,listening_fmri,3.2.4,59.9902177553541,
0,parcelated_audio/34/34_21.ogg,,,,,,,,,0,0,0,0,0,0,0,0,0,0,0,0,,,,,,,,,,,,,0,0,0,0,0,20,20,20,,,,,,,,,,,,,,,,,,,,,,,,,,,,,,,,,,,,,,,,,,,,,,,,,,,,,,,,,,,,,,,,,,,,,,,,,,,,,,,,,,,,,,,,,,,,,,,,,,,,,181.83127366900044,188.18614091500058,,,,,031321,1,2,1,2,1,1,2,0,44,2021_Mar_13_1442,listening_fmri,3.2.4,59.9902177553541,
0,parcelated_audio/34/34_22.ogg,,,,,,,,,0,0,0,0,0,0,0,0,0,0,0,0,,,,,,,,,,,,,0,0,0,0,0,21,21,21,,,,,,,,,,,,,,,,,,,,,,,,,,,,,,,,,,,,,,,,,,,,,,,,,,,,,,,,,,,,,,,,,,,,,,,,,,,,,,,,,,,,,,,,,,,,,,,,,,,,,188.18645625299996,193.313993062,,,,,031321,1,2,1,2,1,1,2,0,44,2021_Mar_13_1442,listening_fmri,3.2.4,59.9902177553541,
0,parcelated_audio/34/34_23.ogg,,,,,,,,,0,0,0,0,0,0,0,0,0,0,0,0,,,,,,,,,,,,,0,0,0,0,0,22,22,22,,,,,,,,,,,,,,,,,,,,,,,,,,,,,,,,,,,,,,,,,,,,,,,,,,,,,,,,,,,,,,,,,,,,,,,,,,,,,,,,,,,,,,,,,,,,,,,,,,,,,193.31441067700052,201.10180048300026,,,,,031321,1,2,1,2,1,1,2,0,44,2021_Mar_13_1442,listening_fmri,3.2.4,59.9902177553541,
0,parcelated_audio/34/34_24.ogg,,,,,,,,,0,0,0,0,0,0,0,0,0,0,0,0,,,,,,,,,,,,,0,0,0,0,0,23,23,23,,,,,,,,,,,,,,,,,,,,,,,,,,,,,,,,,,,,,,,,,,,,,,,,,,,,,,,,,,,,,,,,,,,,,,,,,,,,,,,,,,,,,,,,,,,,,,,,,,,,,201.10232504600026,206.892511,,,,,031321,1,2,1,2,1,1,2,0,44,2021_Mar_13_1442,listening_fmri,3.2.4,59.9902177553541,
0,parcelated_audio/34/34_25.ogg,,,,,,,,,0,0,0,0,0,0,0,0,0,0,0,0,,,,,,,,,,,,,0,0,0,0,0,24,24,24,,,,,,,,,,,,,,,,,,,,,,,,,,,,,,,,,,,,,,,,,,,,,,,,,,,,,,,,,,,,,,,,,,,,,,,,,,,,,,,,,,,,,,,,,,,,,,,,,,,,,206.89287925100052,213.45217925100042,,,,,031321,1,2,1,2,1,1,2,0,44,2021_Mar_13_1442,listening_fmri,3.2.4,59.9902177553541,
0,parcelated_audio/34/34_26.ogg,,,,,,,,,0,0,0,0,0,0,0,0,0,0,0,0,,,,,,,,,,,,,0,0,0,0,0,25,25,25,,,,,,,,,,,,,,,,,,,,,,,,,,,,,,,,,,,,,,,,,,,,,,,,,,,,,,,,,,,,,,,,,,,,,,,,,,,,,,,,,,,,,,,,,,,,,,,,,,,,,213.45265720800035,223.11281592900013,,,,,031321,1,2,1,2,1,1,2,0,44,2021_Mar_13_1442,listening_fmri,3.2.4,59.9902177553541,
0,parcelated_audio/34/34_27.ogg,,,,,,,,,0,0,0,0,0,0,0,0,0,0,0,0,,,,,,,,,,,,,0,0,0,0,0,26,26,26,,,,,,,,,,,,,,,,,,,,,,,,,,,,,,,,,,,,,,,,,,,,,,,,,,,,,,,,,,,,,,,,,,,,,,,,,,,,,,,,,,,,,,,,,,,,,,,,,,,,,223.11318758900052,230.6152790420001,,,,,031321,1,2,1,2,1,1,2,0,44,2021_Mar_13_1442,listening_fmri,3.2.4,59.9902177553541,
0,,,,,,,,,,0,0,0,0,0,0,0,0,0,0,0,0,,,,,,,,,,,,,0,0,0,0,,,,,,,,,,,,,,,,,,,,,,,,,,,,,,,,,,,,,,,,,,,,,,,,,,,,,,,,,,,,,,,,,,,,,,,,,,,,,,,,,,,,,,,,,,,,,,,,,,,,,,,,,,,,,,,031321,1,2,1,2,1,1,2,0,44,2021_Mar_13_1442,listening_fmri,3.2.4,59.9902177553541,
0,,,,,,,,,,0,0,0,0,0,0,0,0,0,0,0,0,,,,,,,,,,,,,,,,,,,,,,,,,,,,,,,,,,,,,,230.61576833800063,236.61244689600062,273.58509643900015,None,,,,,,,,,,,,,,,,,,,,,,,,,,,,,,,,,,,,,,,,,,,,,,,,,,,,,,,,,,,,,,,,,,,,,,,,,,,,,,,,,,279.5851715709996,None,279.5851715709996,None,031321,1,2,1,2,1,1,2,0,44,2021_Mar_13_1442,listening_fmri,3.2.4,59.9902177553541,
0,,,,,,,,,,0,0,0,0,0,0,0,0,,,,,,,,,,,,,,,,,,,,,,,,,,,,,,,,,,,,,,,,,,,,,,,,,,,,,,,,,,,,,,,,,,,,,,,,,,,,,,,,,,,,,,,,,,,,,,,,,,,,,,,,,,,,,,,,,,,,,,,,,,,,,,,,,,,031321,1,2,1,2,1,1,2,0,44,2021_Mar_13_1442,listening_fmri,3.2.4,59.9902177553541,
1,,,,,,,,,,0,0,0,0,0,1,1,1,0,0,0,0,0,0,0,0,0,0,0,0,,,,,,,,,,,,,,,,,,,,,,,,,,,,,,,,,,280.58552688799955,None,280.58552688799955,None,2,1.0504120800005694,280.58552688799955,None,280.58552688799955,None,281.6523413109999,None,2,1.5255863760003194,281.6523413109999,None,281.6523413109999,None,283.2191169540001,None,283.2191169540001,None,283.2191169540001,None,2,1.6387973820001207,283.2191169540001,None,284.8855132239996,None,2,2.2763184360001105,284.8855132239996,None,284.8855132239996,None,287.2682267529999,None,287.2682267529999,None,287.2682267529999,None,287.2682267529999,None,287.2682267529999,None,287.2682267529999,None,287.2682267529999,None,None,287.2682267529999,None,,,,,,,,,,,,,,,,,,,,,,,,,,,,,,,,,031321,1,2,1,2,1,1,2,0,44,2021_Mar_13_1442,listening_fmri,3.2.4,59.9902177553541,
1,,,,,,,,,,0,0,0,0,0,1,1,1,0,0,0,0,0,0,0,0,,,,,,,,,,,,,,,,,,,,,,,,,,,,,,,,,,,,,,,,,,,,,,,,,,,,,,,,,,,,,,,,,,,,,,,,,,,,,,,,,,,,,,,,,,,301.20210401199984,None,2,1.4687223259998063,301.20210401199984,None,301.20210401199984,None,302.7187286819999,None,302.7187286819999,None,302.7187286819999,None,2,1.2691207329999088,302.7187286819999,None,,,,,,,,,,,,,,,031321,1,2,1,2,1,1,2,0,44,2021_Mar_13_1442,listening_fmri,3.2.4,59.9902177553541,
1,parcelated_audio/21/21_1.ogg,,,,,,,,,0,0,0,0,0,1,1,1,0,0,0,0,,,,,,,,,,,,,0,0,0,0,0,0,0,0,,,,,,,,,,,,,,,,,,,,,,,,,,,,,,,,,,,,,,,,,,,,,,,,,,,,,,,,,,,,,,,,,,,,,,,,,,,,,,,,,,,,,,,,,,,,,304.0186714450001,None,2,1.0951980070003628,304.0186714450001,None,262.1919687210002,265.19510197599993,265.20104840100066,279.4753541250002,,,,,031321,1,2,1,2,1,1,2,0,44,2021_Mar_13_1442,listening_fmri,3.2.4,59.9902177553541,
1,parcelated_audio/21/21_2.ogg,,,,,,,,,0,0,0,0,0,1,1,1,0,0,0,0,,,,,,,,,,,,,0,0,0,0,0,1,1,1,,,,,,,,,,,,,,,,,,,,,,,,,,,,,,,,,,,,,,,,,,,,,,,,,,,,,,,,,,,,,,,,,,,,,,,,,,,,,,,,,,,,,,,,,,,,,,,,,,,,,279.4757072430002,286.9111455400007,,,,,031321,1,2,1,2,1,1,2,0,44,2021_Mar_13_1442,listening_fmri,3.2.4,59.9902177553541,
1,parcelated_audio/21/21_3.ogg,,,,,,,,,0,0,0,0,0,1,1,1,0,0,0,0,,,,,,,,,,,,,0,0,0,0,0,2,2,2,,,,,,,,,,,,,,,,,,,,,,,,,,,,,,,,,,,,,,,,,,,,,,,,,,,,,,,,,,,,,,,,,,,,,,,,,,,,,,,,,,,,,,,,,,,,,,,,,,,,,286.91183593999995,294.6070952760001,,,,,031321,1,2,1,2,1,1,2,0,44,2021_Mar_13_1442,listening_fmri,3.2.4,59.9902177553541,
1,parcelated_audio/21/21_4.ogg,,,,,,,,,0,0,0,0,0,1,1,1,0,0,0,0,,,,,,,,,,,,,0,0,0,0,0,3,3,3,,,,,,,,,,,,,,,,,,,,,,,,,,,,,,,,,,,,,,,,,,,,,,,,,,,,,,,,,,,,,,,,,,,,,,,,,,,,,,,,,,,,,,,,,,,,,,,,,,,,,294.60744743800024,305.64720650800064,,,,,031321,1,2,1,2,1,1,2,0,44,2021_Mar_13_1442,listening_fmri,3.2.4,59.9902177553541,
1,parcelated_audio/21/21_5.ogg,,,,,,,,,0,0,0,0,0,1,1,1,0,0,0,0,,,,,,,,,,,,,0,0,0,0,0,4,4,4,,,,,,,,,,,,,,,,,,,,,,,,,,,,,,,,,,,,,,,,,,,,,,,,,,,,,,,,,,,,,,,,,,,,,,,,,,,,,,,,,,,,,,,,,,,,,,,,,,,,,305.6475715960005,310.70844612100063,,,,,031321,1,2,1,2,1,1,2,0,44,2021_Mar_13_1442,listening_fmri,3.2.4,59.9902177553541,
1,parcelated_audio/21/21_6.ogg,,,,,,,,,0,0,0,0,0,1,1,1,0,0,0,0,,,,,,,,,,,,,0,0,0,0,0,5,5,5,,,,,,,,,,,,,,,,,,,,,,,,,,,,,,,,,,,,,,,,,,,,,,,,,,,,,,,,,,,,,,,,,,,,,,,,,,,,,,,,,,,,,,,,,,,,,,,,,,,,,310.70986615900074,318.87131113099986,,,,,031321,1,2,1,2,1,1,2,0,44,2021_Mar_13_1442,listening_fmri,3.2.4,59.9902177553541,
1,parcelated_audio/21/21_7.ogg,,,,,,,,,0,0,0,0,0,1,1,1,0,0,0,0,,,,,,,,,,,,,0,0,0,0,0,6,6,6,,,,,,,,,,,,,,,,,,,,,,,,,,,,,,,,,,,,,,,,,,,,,,,,,,,,,,,,,,,,,,,,,,,,,,,,,,,,,,,,,,,,,,,,,,,,,,,,,,,,,318.87166946900015,323.3859575000006,,,,,031321,1,2,1,2,1,1,2,0,44,2021_Mar_13_1442,listening_fmri,3.2.4,59.9902177553541,
1,parcelated_audio/21/21_8.ogg,,,,,,,,,0,0,0,0,0,1,1,1,0,0,0,0,,,,,,,,,,,,,0,0,0,0,0,7,7,7,,,,,,,,,,,,,,,,,,,,,,,,,,,,,,,,,,,,,,,,,,,,,,,,,,,,,,,,,,,,,,,,,,,,,,,,,,,,,,,,,,,,,,,,,,,,,,,,,,,,,323.38631719600016,334.2790315660004,,,,,031321,1,2,1,2,1,1,2,0,44,2021_Mar_13_1442,listening_fmri,3.2.4,59.9902177553541,
1,parcelated_audio/21/21_9.ogg,,,,,,,,,0,0,0,0,0,1,1,1,0,0,0,0,,,,,,,,,,,,,0,0,0,0,0,8,8,8,,,,,,,,,,,,,,,,,,,,,,,,,,,,,,,,,,,,,,,,,,,,,,,,,,,,,,,,,,,,,,,,,,,,,,,,,,,,,,,,,,,,,,,,,,,,,,,,,,,,,334.2794506800001,341.670164569,,,,,031321,1,2,1,2,1,1,2,0,44,2021_Mar_13_1442,listening_fmri,3.2.4,59.9902177553541,
1,parcelated_audio/21/21_10.ogg,,,,,,,,,0,0,0,0,0,1,1,1,0,0,0,0,,,,,,,,,,,,,0,0,0,0,0,9,9,9,,,,,,,,,,,,,,,,,,,,,,,,,,,,,,,,,,,,,,,,,,,,,,,,,,,,,,,,,,,,,,,,,,,,,,,,,,,,,,,,,,,,,,,,,,,,,,,,,,,,,341.6705322200005,348.521833025,,,,,031321,1,2,1,2,1,1,2,0,44,2021_Mar_13_1442,listening_fmri,3.2.4,59.9902177553541,
1,parcelated_audio/21/21_11.ogg,,,,,,,,,0,0,0,0,0,1,1,1,0,0,0,0,,,,,,,,,,,,,0,0,0,0,0,10,10,10,,,,,,,,,,,,,,,,,,,,,,,,,,,,,,,,,,,,,,,,,,,,,,,,,,,,,,,,,,,,,,,,,,,,,,,,,,,,,,,,,,,,,,,,,,,,,,,,,,,,,348.5222487690007,355.6177635160002,,,,,031321,1,2,1,2,1,1,2,0,44,2021_Mar_13_1442,listening_fmri,3.2.4,59.9902177553541,
1,parcelated_audio/21/21_12.ogg,,,,,,,,,0,0,0,0,0,1,1,1,0,0,0,0,,,,,,,,,,,,,0,0,0,0,0,11,11,11,,,,,,,,,,,,,,,,,,,,,,,,,,,,,,,,,,,,,,,,,,,,,,,,,,,,,,,,,,,,,,,,,,,,,,,,,,,,,,,,,,,,,,,,,,,,,,,,,,,,,355.61829264800053,363.9179973099999,,,,,031321,1,2,1,2,1,1,2,0,44,2021_Mar_13_1442,listening_fmri,3.2.4,59.9902177553541,
1,parcelated_audio/21/21_13.ogg,,,,,,,,,0,0,0,0,0,1,1,1,0,0,0,0,,,,,,,,,,,,,0,0,0,0,0,12,12,12,,,,,,,,,,,,,,,,,,,,,,,,,,,,,,,,,,,,,,,,,,,,,,,,,,,,,,,,,,,,,,,,,,,,,,,,,,,,,,,,,,,,,,,,,,,,,,,,,,,,,363.9183564969999,367.26182753800003,,,,,031321,1,2,1,2,1,1,2,0,44,2021_Mar_13_1442,listening_fmri,3.2.4,59.9902177553541,
1,parcelated_audio/21/21_14.ogg,,,,,,,,,0,0,0,0,0,1,1,1,0,0,0,0,,,,,,,,,,,,,0,0,0,0,0,13,13,13,,,,,,,,,,,,,,,,,,,,,,,,,,,,,,,,,,,,,,,,,,,,,,,,,,,,,,,,,,,,,,,,,,,,,,,,,,,,,,,,,,,,,,,,,,,,,,,,,,,,,367.26273150900033,372.6699966220003,,,,,031321,1,2,1,2,1,1,2,0,44,2021_Mar_13_1442,listening_fmri,3.2.4,59.9902177553541,
1,parcelated_audio/21/21_15.ogg,,,,,,,,,0,0,0,0,0,1,1,1,0,0,0,0,,,,,,,,,,,,,0,0,0,0,0,14,14,14,,,,,,,,,,,,,,,,,,,,,,,,,,,,,,,,,,,,,,,,,,,,,,,,,,,,,,,,,,,,,,,,,,,,,,,,,,,,,,,,,,,,,,,,,,,,,,,,,,,,,372.6703047990004,379.4791638730003,,,,,031321,1,2,1,2,1,1,2,0,44,2021_Mar_13_1442,listening_fmri,3.2.4,59.9902177553541,
1,parcelated_audio/21/21_16.ogg,,,,,,,,,0,0,0,0,0,1,1,1,0,0,0,0,,,,,,,,,,,,,0,0,0,0,0,15,15,15,,,,,,,,,,,,,,,,,,,,,,,,,,,,,,,,,,,,,,,,,,,,,,,,,,,,,,,,,,,,,,,,,,,,,,,,,,,,,,,,,,,,,,,,,,,,,,,,,,,,,379.4795092280001,385.54223892900063,,,,,031321,1,2,1,2,1,1,2,0,44,2021_Mar_13_1442,listening_fmri,3.2.4,59.9902177553541,
1,parcelated_audio/21/21_17.ogg,,,,,,,,,0,0,0,0,0,1,1,1,0,0,0,0,,,,,,,,,,,,,0,0,0,0,0,16,16,16,,,,,,,,,,,,,,,,,,,,,,,,,,,,,,,,,,,,,,,,,,,,,,,,,,,,,,,,,,,,,,,,,,,,,,,,,,,,,,,,,,,,,,,,,,,,,,,,,,,,,385.5425968770005,387.7055945080001,,,,,031321,1,2,1,2,1,1,2,0,44,2021_Mar_13_1442,listening_fmri,3.2.4,59.9902177553541,
1,parcelated_audio/21/21_18.ogg,,,,,,,,,0,0,0,0,0,1,1,1,0,0,0,0,,,,,,,,,,,,,0,0,0,0,0,17,17,17,,,,,,,,,,,,,,,,,,,,,,,,,,,,,,,,,,,,,,,,,,,,,,,,,,,,,,,,,,,,,,,,,,,,,,,,,,,,,,,,,,,,,,,,,,,,,,,,,,,,,387.70600250999996,400.8537704119999,,,,,031321,1,2,1,2,1,1,2,0,44,2021_Mar_13_1442,listening_fmri,3.2.4,59.9902177553541,
1,parcelated_audio/21/21_19.ogg,,,,,,,,,0,0,0,0,0,1,1,1,0,0,0,0,,,,,,,,,,,,,0,0,0,0,0,18,18,18,,,,,,,,,,,,,,,,,,,,,,,,,,,,,,,,,,,,,,,,,,,,,,,,,,,,,,,,,,,,,,,,,,,,,,,,,,,,,,,,,,,,,,,,,,,,,,,,,,,,,400.8541204000003,403.729092865,,,,,031321,1,2,1,2,1,1,2,0,44,2021_Mar_13_1442,listening_fmri,3.2.4,59.9902177553541,
1,parcelated_audio/21/21_20.ogg,,,,,,,,,0,0,0,0,0,1,1,1,0,0,0,0,,,,,,,,,,,,,0,0,0,0,0,19,19,19,,,,,,,,,,,,,,,,,,,,,,,,,,,,,,,,,,,,,,,,,,,,,,,,,,,,,,,,,,,,,,,,,,,,,,,,,,,,,,,,,,,,,,,,,,,,,,,,,,,,,403.7295123170006,412.45625218400073,,,,,031321,1,2,1,2,1,1,2,0,44,2021_Mar_13_1442,listening_fmri,3.2.4,59.9902177553541,
1,parcelated_audio/21/21_21.ogg,,,,,,,,,0,0,0,0,0,1,1,1,0,0,0,0,,,,,,,,,,,,,0,0,0,0,0,20,20,20,,,,,,,,,,,,,,,,,,,,,,,,,,,,,,,,,,,,,,,,,,,,,,,,,,,,,,,,,,,,,,,,,,,,,,,,,,,,,,,,,,,,,,,,,,,,,,,,,,,,,412.45660549700006,423.5051203769999,,,,,031321,1,2,1,2,1,1,2,0,44,2021_Mar_13_1442,listening_fmri,3.2.4,59.9902177553541,
1,parcelated_audio/21/21_22.ogg,,,,,,,,,0,0,0,0,0,1,1,1,0,0,0,0,,,,,,,,,,,,,0,0,0,0,0,21,21,21,,,,,,,,,,,,,,,,,,,,,,,,,,,,,,,,,,,,,,,,,,,,,,,,,,,,,,,,,,,,,,,,,,,,,,,,,,,,,,,,,,,,,,,,,,,,,,,,,,,,,423.5054857320001,434.40200477300004,,,,,031321,1,2,1,2,1,1,2,0,44,2021_Mar_13_1442,listening_fmri,3.2.4,59.9902177553541,
1,parcelated_audio/21/21_23.ogg,,,,,,,,,0,0,0,0,0,1,1,1,0,0,0,0,,,,,,,,,,,,,0,0,0,0,0,22,22,22,,,,,,,,,,,,,,,,,,,,,,,,,,,,,,,,,,,,,,,,,,,,,,,,,,,,,,,,,,,,,,,,,,,,,,,,,,,,,,,,,,,,,,,,,,,,,,,,,,,,,434.4024641220003,439.37227468699984,,,,,031321,1,2,1,2,1,1,2,0,44,2021_Mar_13_1442,listening_fmri,3.2.4,59.9902177553541,
1,parcelated_audio/21/21_24.ogg,,,,,,,,,0,0,0,0,0,1,1,1,0,0,0,0,,,,,,,,,,,,,0,0,0,0,0,23,23,23,,,,,,,,,,,,,,,,,,,,,,,,,,,,,,,,,,,,,,,,,,,,,,,,,,,,,,,,,,,,,,,,,,,,,,,,,,,,,,,,,,,,,,,,,,,,,,,,,,,,,439.372629255,443.957291103,,,,,031321,1,2,1,2,1,1,2,0,44,2021_Mar_13_1442,listening_fmri,3.2.4,59.9902177553541,
1,parcelated_audio/21/21_25.ogg,,,,,,,,,0,0,0,0,0,1,1,1,0,0,0,0,,,,,,,,,,,,,0,0,0,0,0,24,24,24,,,,,,,,,,,,,,,,,,,,,,,,,,,,,,,,,,,,,,,,,,,,,,,,,,,,,,,,,,,,,,,,,,,,,,,,,,,,,,,,,,,,,,,,,,,,,,,,,,,,,443.95789690499987,453.39813280900034,,,,,031321,1,2,1,2,1,1,2,0,44,2021_Mar_13_1442,listening_fmri,3.2.4,59.9902177553541,
1,parcelated_audio/21/21_26.ogg,,,,,,,,,0,0,0,0,0,1,1,1,0,0,0,0,,,,,,,,,,,,,0,0,0,0,0,25,25,25,,,,,,,,,,,,,,,,,,,,,,,,,,,,,,,,,,,,,,,,,,,,,,,,,,,,,,,,,,,,,,,,,,,,,,,,,,,,,,,,,,,,,,,,,,,,,,,,,,,,,453.39849581100043,457.41196922700055,,,,,031321,1,2,1,2,1,1,2,0,44,2021_Mar_13_1442,listening_fmri,3.2.4,59.9902177553541,
1,parcelated_audio/21/21_27.ogg,,,,,,,,,0,0,0,0,0,1,1,1,0,0,0,0,,,,,,,,,,,,,0,0,0,0,0,26,26,26,,,,,,,,,,,,,,,,,,,,,,,,,,,,,,,,,,,,,,,,,,,,,,,,,,,,,,,,,,,,,,,,,,,,,,,,,,,,,,,,,,,,,,,,,,,,,,,,,,,,,457.41232652100007,464.60434835400065,,,,,031321,1,2,1,2,1,1,2,0,44,2021_Mar_13_1442,listening_fmri,3.2.4,59.9902177553541,
1,parcelated_audio/21/21_28.ogg,,,,,,,,,0,0,0,0,0,1,1,1,0,0,0,0,,,,,,,,,,,,,0,0,0,0,0,27,27,27,,,,,,,,,,,,,,,,,,,,,,,,,,,,,,,,,,,,,,,,,,,,,,,,,,,,,,,,,,,,,,,,,,,,,,,,,,,,,,,,,,,,,,,,,,,,,,,,,,,,,464.6048366470004,470.7217580730003,,,,,031321,1,2,1,2,1,1,2,0,44,2021_Mar_13_1442,listening_fmri,3.2.4,59.9902177553541,
1,parcelated_audio/21/21_29.ogg,,,,,,,,,0,0,0,0,0,1,1,1,0,0,0,0,,,,,,,,,,,,,0,0,0,0,0,28,28,28,,,,,,,,,,,,,,,,,,,,,,,,,,,,,,,,,,,,,,,,,,,,,,,,,,,,,,,,,,,,,,,,,,,,,,,,,,,,,,,,,,,,,,,,,,,,,,,,,,,,,470.72211566900023,474.98214822200043,,,,,031321,1,2,1,2,1,1,2,0,44,2021_Mar_13_1442,listening_fmri,3.2.4,59.9902177553541,
1,parcelated_audio/21/21_30.ogg,,,,,,,,,0,0,0,0,0,1,1,1,0,0,0,0,,,,,,,,,,,,,0,0,0,0,0,29,29,29,,,,,,,,,,,,,,,,,,,,,,,,,,,,,,,,,,,,,,,,,,,,,,,,,,,,,,,,,,,,,,,,,,,,,,,,,,,,,,,,,,,,,,,,,,,,,,,,,,,,,474.98272432700014,480.2447099660003,,,,,031321,1,2,1,2,1,1,2,0,44,2021_Mar_13_1442,listening_fmri,3.2.4,59.9902177553541,
1,,,,,,,,,,0,0,0,0,0,1,1,1,0,0,0,0,,,,,,,,,,,,,0,0,0,0,,,,,,,,,,,,,,,,,,,,,,,,,,,,,,,,,,,,,,,,,,,,,,,,,,,,,,,,,,,,,,,,,,,,,,,,,,,,,,,,,,,,,,,,,,,,,,,,,,,,,,,,,,,,,,,031321,1,2,1,2,1,1,2,0,44,2021_Mar_13_1442,listening_fmri,3.2.4,59.9902177553541,
,,,,,,,,,,,,,,,,,,,,,,,,,,,,,,,,,,,,,,,,,,,,,,,,,,,,,,,,,,,480.2452349820005,486.2407181870003,523.2191911310001,None,,,,,,,,,,,,,,,,,,,,,,,,,,,,,,,,,,,,,,,,,,,,,,,,,,,,,,,,,,,,,,,,,,,,,,,,,,,,,,,,,,529.2194505090001,None,529.2194505090001,None,,,,,,,,,,,,,,,
﻿count,audio,trials_14.thisRepN,trials_14.thisTrialN,trials_14.thisN,trials_14.thisIndex,trials_3.thisRepN,trials_3.thisTrialN,trials_3.thisN,trials_3.thisIndex,trials_4.thisRepN,trials_4.thisTrialN,trials_4.thisN,trials_4.thisIndex,trials_6.thisRepN,trials_6.thisTrialN,trials_6.thisN,trials_6.thisIndex,trials_9.thisRepN,trials_9.thisTrialN,trials_9.thisN,trials_9.thisIndex,trials_10.thisRepN,trials_10.thisTrialN,trials_10.thisN,trials_10.thisIndex,trials_11.thisRepN,trials_11.thisTrialN,trials_11.thisN,trials_11.thisIndex,trials_12.thisRepN,trials_12.thisTrialN,trials_12.thisN,trials_12.thisIndex,trials_25.thisRepN,trials_25.thisTrialN,trials_25.thisN,trials_25.thisIndex,trials_15.thisRepN,trials_15.thisTrialN,trials_15.thisN,trials_15.thisIndex,trials_26.thisRepN,trials_26.thisTrialN,trials_26.thisN,trials_26.thisIndex,story_list_block2,action_list_block2,textTrigger.started,textTrigger.stopped,getTrigger.keys,getTrigger.rt,getTrigger.started,getTrigger.stopped,triggerTime,text_76.started,text_76.stopped,text_77.started,text_77.stopped,startWait,endWait,image_23.started,image_23.stopped,text_55.started,text_55.stopped,text_56.started,text_56.stopped,key_resp_2.keys,key_resp_2.rt,key_resp_2.started,key_resp_2.stopped,text_82.started,text_82.stopped,text_57.started,text_57.stopped,key_resp_17.keys,key_resp_17.rt,key_resp_17.started,key_resp_17.stopped,text_83.started,text_83.stopped,text_60.started,text_60.stopped,image_2.started,image_2.stopped,text_58.started,text_58.stopped,key_resp_23.keys,key_resp_23.rt,key_resp_23.started,key_resp_23.stopped,text_62.started,text_62.stopped,key_resp_18.keys,key_resp_18.rt,key_resp_18.started,key_resp_18.stopped,text_84.started,text_84.stopped,question1_2.started,question1_2.stopped,question2_2.started,question2_2.stopped,question3_2.started,question3_2.stopped,question4_2.started,question4_2.stopped,question5_2.started,question5_2.stopped,question6_2.started,question6_2.stopped,image_15.started,image_15.stopped,key_resp.keys,key_resp.started,key_resp.stopped,text_59.started,text_59.stopped,key_resp_19.keys,key_resp_19.rt,key_resp_19.started,key_resp_19.stopped,text_85.started,text_85.stopped,text_61.started,text_61.stopped,image_17.started,image_17.stopped,text_63.started,text_63.stopped,key_resp_24.keys,key_resp_24.rt,key_resp_24.started,key_resp_24.stopped,text_64.started,text_64.stopped,key_resp_20.keys,key_resp_20.rt,key_resp_20.started,key_resp_20.stopped,storyImage_StartTime,storyImage_EndTime,clip_StartTime,clip_EndTime,text_67.started,text_67.stopped,text_68.started,text_68.stopped,participant,sA,sB,lA,lB,block_struct,play_stories,block,behavioral,random_seed,date,expName,psychopyVersion,frameRate,
0,,,,,,,,,,0,0,0,0,0,0,0,0,0,0,0,0,0,0,0,0,0,0,0,0,,,,,,,,,,,,,,,,,[34 21 14 12 32 43 41 23],[1 1 4 2 3 2 4 3],14.812135934999787,None,equal,28.144746705000216,14.812135934999787,None,28.16787506899982,14.812135934999787,None,14.812135934999787,None,0.0003240180003558635,6.0155861890007145,42.97713784200005,None,49.00163752200024,None,49.00163752200024,None,2,1.6763094930001898,49.00163752200024,None,49.00163752200024,None,50.701668568999594,None,2,1.3562748319991442,50.701668568999594,None,50.701668568999594,None,52.10169940000014,None,52.10169940000014,None,52.10169940000014,None,2,2.327218321000146,52.10169940000014,None,54.4518062369998,None,2,2.782002521999857,54.4518062369998,None,54.4518062369998,None,57.32727670999975,None,57.32727670999975,None,57.32727670999975,None,57.32727670999975,None,57.32727670999975,None,57.32727670999975,None,57.32727670999975,None,None,57.32727670999975,None,,,,,,,,,,,,,,,,,,,,,,,,,,,,,,,,,031321,1,2,1,2,1,1,2,0,44,2021_Mar_13_1442,listening_fmri,3.2.4,59.9902177553541,
0,,,,,,,,,,0,0,0,0,0,0,0,0,0,0,0,0,0,0,0,0,,,,,,,,,,,,,,,,,,,,,,,,,,,,,,,,,,,,,,,,,,,,,,,,,,,,,,,,,,,,,,,,,,,,,,,,,,,,,,,,,,,,,,,,,,,78.65239112899962,None,3,1.2525355540001328,78.65239112899962,None,78.65239112899962,None,79.94368974699955,None,79.94368974699955,None,79.94368974699955,None,3,1.0532455619995744,79.94368974699955,None,,,,,,,,,,,,,,,031321,1,2,1,2,1,1,2,0,44,2021_Mar_13_1442,listening_fmri,3.2.4,59.9902177553541,
0,parcelated_audio/34/34_1.ogg,,,,,,,,,0,0,0,0,0,0,0,0,0,0,0,0,,,,,,,,,,,,,0,0,0,0,0,0,0,0,,,,,,,,,,,,,,,,,,,,,,,,,,,,,,,,,,,,,,,,,,,,,,,,,,,,,,,,,,,,,,,,,,,,,,,,,,,,,,,,,,,,,,,,,,,,,81.01838972200039,None,3,1.350410009999905,81.01838972200039,None,39.43106075100059,42.44850377400053,42.459392579999985,51.169927648999874,,,,,031321,1,2,1,2,1,1,2,0,44,2021_Mar_13_1442,listening_fmri,3.2.4,59.9902177553541,
0,parcelated_audio/34/34_2.ogg,,,,,,,,,0,0,0,0,0,0,0,0,0,0,0,0,,,,,,,,,,,,,0,0,0,0,0,1,1,1,,,,,,,,,,,,,,,,,,,,,,,,,,,,,,,,,,,,,,,,,,,,,,,,,,,,,,,,,,,,,,,,,,,,,,,,,,,,,,,,,,,,,,,,,,,,,,,,,,,,,51.17045803700057,55.72496423700068,,,,,031321,1,2,1,2,1,1,2,0,44,2021_Mar_13_1442,listening_fmri,3.2.4,59.9902177553541,
0,parcelated_audio/34/34_3.ogg,,,,,,,,,0,0,0,0,0,0,0,0,0,0,0,0,,,,,,,,,,,,,0,0,0,0,0,2,2,2,,,,,,,,,,,,,,,,,,,,,,,,,,,,,,,,,,,,,,,,,,,,,,,,,,,,,,,,,,,,,,,,,,,,,,,,,,,,,,,,,,,,,,,,,,,,,,,,,,,,,55.72575888400024,60.36979264199999,,,,,031321,1,2,1,2,1,1,2,0,44,2021_Mar_13_1442,listening_fmri,3.2.4,59.9902177553541,
0,parcelated_audio/34/34_4.ogg,,,,,,,,,0,0,0,0,0,0,0,0,0,0,0,0,,,,,,,,,,,,,0,0,0,0,0,3,3,3,,,,,,,,,,,,,,,,,,,,,,,,,,,,,,,,,,,,,,,,,,,,,,,,,,,,,,,,,,,,,,,,,,,,,,,,,,,,,,,,,,,,,,,,,,,,,,,,,,,,,60.37068951600031,69.99419812100041,,,,,031321,1,2,1,2,1,1,2,0,44,2021_Mar_13_1442,listening_fmri,3.2.4,59.9902177553541,
0,parcelated_audio/34/34_5.ogg,,,,,,,,,0,0,0,0,0,0,0,0,0,0,0,0,,,,,,,,,,,,,0,0,0,0,0,4,4,4,,,,,,,,,,,,,,,,,,,,,,,,,,,,,,,,,,,,,,,,,,,,,,,,,,,,,,,,,,,,,,,,,,,,,,,,,,,,,,,,,,,,,,,,,,,,,,,,,,,,,69.99450765800066,80.41549495000072,,,,,031321,1,2,1,2,1,1,2,0,44,2021_Mar_13_1442,listening_fmri,3.2.4,59.9902177553541,
0,parcelated_audio/34/34_6.ogg,,,,,,,,,0,0,0,0,0,0,0,0,0,0,0,0,,,,,,,,,,,,,0,0,0,0,0,5,5,5,,,,,,,,,,,,,,,,,,,,,,,,,,,,,,,,,,,,,,,,,,,,,,,,,,,,,,,,,,,,,,,,,,,,,,,,,,,,,,,,,,,,,,,,,,,,,,,,,,,,,80.41577331999997,89.11922155899993,,,,,031321,1,2,1,2,1,1,2,0,44,2021_Mar_13_1442,listening_fmri,3.2.4,59.9902177553541,
0,parcelated_audio/34/34_7.ogg,,,,,,,,,0,0,0,0,0,0,0,0,0,0,0,0,,,,,,,,,,,,,0,0,0,0,0,6,6,6,,,,,,,,,,,,,,,,,,,,,,,,,,,,,,,,,,,,,,,,,,,,,,,,,,,,,,,,,,,,,,,,,,,,,,,,,,,,,,,,,,,,,,,,,,,,,,,,,,,,,89.11957212000016,95.11010410000017,,,,,031321,1,2,1,2,1,1,2,0,44,2021_Mar_13_1442,listening_fmri,3.2.4,59.9902177553541,
0,parcelated_audio/34/34_8.ogg,,,,,,,,,0,0,0,0,0,0,0,0,0,0,0,0,,,,,,,,,,,,,0,0,0,0,0,7,7,7,,,,,,,,,,,,,,,,,,,,,,,,,,,,,,,,,,,,,,,,,,,,,,,,,,,,,,,,,,,,,,,,,,,,,,,,,,,,,,,,,,,,,,,,,,,,,,,,,,,,,95.11065963600049,103.08127544499985,,,,,031321,1,2,1,2,1,1,2,0,44,2021_Mar_13_1442,listening_fmri,3.2.4,59.9902177553541,
0,parcelated_audio/34/34_9.ogg,,,,,,,,,0,0,0,0,0,0,0,0,0,0,0,0,,,,,,,,,,,,,0,0,0,0,0,8,8,8,,,,,,,,,,,,,,,,,,,,,,,,,,,,,,,,,,,,,,,,,,,,,,,,,,,,,,,,,,,,,,,,,,,,,,,,,,,,,,,,,,,,,,,,,,,,,,,,,,,,,103.08163388200046,107.86239791600019,,,,,031321,1,2,1,2,1,1,2,0,44,2021_Mar_13_1442,listening_fmri,3.2.4,59.9902177553541,
0,parcelated_audio/34/34_10.ogg,,,,,,,,,0,0,0,0,0,0,0,0,0,0,0,0,,,,,,,,,,,,,0,0,0,0,0,9,9,9,,,,,,,,,,,,,,,,,,,,,,,,,,,,,,,,,,,,,,,,,,,,,,,,,,,,,,,,,,,,,,,,,,,,,,,,,,,,,,,,,,,,,,,,,,,,,,,,,,,,,107.8627657699999,114.98420572300074,,,,,031321,1,2,1,2,1,1,2,0,44,2021_Mar_13_1442,listening_fmri,3.2.4,59.9902177553541,
0,parcelated_audio/34/34_11.ogg,,,,,,,,,0,0,0,0,0,0,0,0,0,0,0,0,,,,,,,,,,,,,0,0,0,0,0,10,10,10,,,,,,,,,,,,,,,,,,,,,,,,,,,,,,,,,,,,,,,,,,,,,,,,,,,,,,,,,,,,,,,,,,,,,,,,,,,,,,,,,,,,,,,,,,,,,,,,,,,,,114.98457396899994,118.43398633600009,,,,,031321,1,2,1,2,1,1,2,0,44,2021_Mar_13_1442,listening_fmri,3.2.4,59.9902177553541,
0,parcelated_audio/34/34_12.ogg,,,,,,,,,0,0,0,0,0,0,0,0,0,0,0,0,,,,,,,,,,,,,0,0,0,0,0,11,11,11,,,,,,,,,,,,,,,,,,,,,,,,,,,,,,,,,,,,,,,,,,,,,,,,,,,,,,,,,,,,,,,,,,,,,,,,,,,,,,,,,,,,,,,,,,,,,,,,,,,,,118.43456356500064,126.5981014480003,,,,,031321,1,2,1,2,1,1,2,0,44,2021_Mar_13_1442,listening_fmri,3.2.4,59.9902177553541,
0,parcelated_audio/34/34_13.ogg,,,,,,,,,0,0,0,0,0,0,0,0,0,0,0,0,,,,,,,,,,,,,0,0,0,0,0,12,12,12,,,,,,,,,,,,,,,,,,,,,,,,,,,,,,,,,,,,,,,,,,,,,,,,,,,,,,,,,,,,,,,,,,,,,,,,,,,,,,,,,,,,,,,,,,,,,,,,,,,,,126.59845247900012,130.48604283700024,,,,,031321,1,2,1,2,1,1,2,0,44,2021_Mar_13_1442,listening_fmri,3.2.4,59.9902177553541,
0,parcelated_audio/34/34_14.ogg,,,,,,,,,0,0,0,0,0,0,0,0,0,0,0,0,,,,,,,,,,,,,0,0,0,0,0,13,13,13,,,,,,,,,,,,,,,,,,,,,,,,,,,,,,,,,,,,,,,,,,,,,,,,,,,,,,,,,,,,,,,,,,,,,,,,,,,,,,,,,,,,,,,,,,,,,,,,,,,,,130.4864029600003,135.14593158200023,,,,,031321,1,2,1,2,1,1,2,0,44,2021_Mar_13_1442,listening_fmri,3.2.4,59.9902177553541,
0,parcelated_audio/34/34_15.ogg,,,,,,,,,0,0,0,0,0,0,0,0,0,0,0,0,,,,,,,,,,,,,0,0,0,0,0,14,14,14,,,,,,,,,,,,,,,,,,,,,,,,,,,,,,,,,,,,,,,,,,,,,,,,,,,,,,,,,,,,,,,,,,,,,,,,,,,,,,,,,,,,,,,,,,,,,,,,,,,,,135.14666808600032,139.34044440300022,,,,,031321,1,2,1,2,1,1,2,0,44,2021_Mar_13_1442,listening_fmri,3.2.4,59.9902177553541,
0,parcelated_audio/34/34_16.ogg,,,,,,,,,0,0,0,0,0,0,0,0,0,0,0,0,,,,,,,,,,,,,0,0,0,0,0,15,15,15,,,,,,,,,,,,,,,,,,,,,,,,,,,,,,,,,,,,,,,,,,,,,,,,,,,,,,,,,,,,,,,,,,,,,,,,,,,,,,,,,,,,,,,,,,,,,,,,,,,,,139.34080058400014,152.34598957700018,,,,,031321,1,2,1,2,1,1,2,0,44,2021_Mar_13_1442,listening_fmri,3.2.4,59.9902177553541,
0,parcelated_audio/34/34_17.ogg,,,,,,,,,0,0,0,0,0,0,0,0,0,0,0,0,,,,,,,,,,,,,0,0,0,0,0,16,16,16,,,,,,,,,,,,,,,,,,,,,,,,,,,,,,,,,,,,,,,,,,,,,,,,,,,,,,,,,,,,,,,,,,,,,,,,,,,,,,,,,,,,,,,,,,,,,,,,,,,,,152.34646031100056,161.26821976000065,,,,,031321,1,2,1,2,1,1,2,0,44,2021_Mar_13_1442,listening_fmri,3.2.4,59.9902177553541,
0,parcelated_audio/34/34_18.ogg,,,,,,,,,0,0,0,0,0,0,0,0,0,0,0,0,,,,,,,,,,,,,0,0,0,0,0,17,17,17,,,,,,,,,,,,,,,,,,,,,,,,,,,,,,,,,,,,,,,,,,,,,,,,,,,,,,,,,,,,,,,,,,,,,,,,,,,,,,,,,,,,,,,,,,,,,,,,,,,,,161.26857342200037,167.15408435600057,,,,,031321,1,2,1,2,1,1,2,0,44,2021_Mar_13_1442,listening_fmri,3.2.4,59.9902177553541,
0,parcelated_audio/34/34_19.ogg,,,,,,,,,0,0,0,0,0,0,0,0,0,0,0,0,,,,,,,,,,,,,0,0,0,0,0,18,18,18,,,,,,,,,,,,,,,,,,,,,,,,,,,,,,,,,,,,,,,,,,,,,,,,,,,,,,,,,,,,,,,,,,,,,,,,,,,,,,,,,,,,,,,,,,,,,,,,,,,,,167.1544427810004,173.3780296620007,,,,,031321,1,2,1,2,1,1,2,0,44,2021_Mar_13_1442,listening_fmri,3.2.4,59.9902177553541,
0,parcelated_audio/34/34_20.ogg,,,,,,,,,0,0,0,0,0,0,0,0,0,0,0,0,,,,,,,,,,,,,0,0,0,0,0,19,19,19,,,,,,,,,,,,,,,,,,,,,,,,,,,,,,,,,,,,,,,,,,,,,,,,,,,,,,,,,,,,,,,,,,,,,,,,,,,,,,,,,,,,,,,,,,,,,,,,,,,,,173.37860749900028,181.83092030100033,,,,,031321,1,2,1,2,1,1,2,0,44,2021_Mar_13_1442,listening_fmri,3.2.4,59.9902177553541,
0,parcelated_audio/34/34_21.ogg,,,,,,,,,0,0,0,0,0,0,0,0,0,0,0,0,,,,,,,,,,,,,0,0,0,0,0,20,20,20,,,,,,,,,,,,,,,,,,,,,,,,,,,,,,,,,,,,,,,,,,,,,,,,,,,,,,,,,,,,,,,,,,,,,,,,,,,,,,,,,,,,,,,,,,,,,,,,,,,,,181.83127366900044,188.18614091500058,,,,,031321,1,2,1,2,1,1,2,0,44,2021_Mar_13_1442,listening_fmri,3.2.4,59.9902177553541,
0,parcelated_audio/34/34_22.ogg,,,,,,,,,0,0,0,0,0,0,0,0,0,0,0,0,,,,,,,,,,,,,0,0,0,0,0,21,21,21,,,,,,,,,,,,,,,,,,,,,,,,,,,,,,,,,,,,,,,,,,,,,,,,,,,,,,,,,,,,,,,,,,,,,,,,,,,,,,,,,,,,,,,,,,,,,,,,,,,,,188.18645625299996,193.313993062,,,,,031321,1,2,1,2,1,1,2,0,44,2021_Mar_13_1442,listening_fmri,3.2.4,59.9902177553541,
0,parcelated_audio/34/34_23.ogg,,,,,,,,,0,0,0,0,0,0,0,0,0,0,0,0,,,,,,,,,,,,,0,0,0,0,0,22,22,22,,,,,,,,,,,,,,,,,,,,,,,,,,,,,,,,,,,,,,,,,,,,,,,,,,,,,,,,,,,,,,,,,,,,,,,,,,,,,,,,,,,,,,,,,,,,,,,,,,,,,193.31441067700052,201.10180048300026,,,,,031321,1,2,1,2,1,1,2,0,44,2021_Mar_13_1442,listening_fmri,3.2.4,59.9902177553541,
0,parcelated_audio/34/34_24.ogg,,,,,,,,,0,0,0,0,0,0,0,0,0,0,0,0,,,,,,,,,,,,,0,0,0,0,0,23,23,23,,,,,,,,,,,,,,,,,,,,,,,,,,,,,,,,,,,,,,,,,,,,,,,,,,,,,,,,,,,,,,,,,,,,,,,,,,,,,,,,,,,,,,,,,,,,,,,,,,,,,201.10232504600026,206.892511,,,,,031321,1,2,1,2,1,1,2,0,44,2021_Mar_13_1442,listening_fmri,3.2.4,59.9902177553541,
0,parcelated_audio/34/34_25.ogg,,,,,,,,,0,0,0,0,0,0,0,0,0,0,0,0,,,,,,,,,,,,,0,0,0,0,0,24,24,24,,,,,,,,,,,,,,,,,,,,,,,,,,,,,,,,,,,,,,,,,,,,,,,,,,,,,,,,,,,,,,,,,,,,,,,,,,,,,,,,,,,,,,,,,,,,,,,,,,,,,206.89287925100052,213.45217925100042,,,,,031321,1,2,1,2,1,1,2,0,44,2021_Mar_13_1442,listening_fmri,3.2.4,59.9902177553541,
0,parcelated_audio/34/34_26.ogg,,,,,,,,,0,0,0,0,0,0,0,0,0,0,0,0,,,,,,,,,,,,,0,0,0,0,0,25,25,25,,,,,,,,,,,,,,,,,,,,,,,,,,,,,,,,,,,,,,,,,,,,,,,,,,,,,,,,,,,,,,,,,,,,,,,,,,,,,,,,,,,,,,,,,,,,,,,,,,,,,213.45265720800035,223.11281592900013,,,,,031321,1,2,1,2,1,1,2,0,44,2021_Mar_13_1442,listening_fmri,3.2.4,59.9902177553541,
0,parcelated_audio/34/34_27.ogg,,,,,,,,,0,0,0,0,0,0,0,0,0,0,0,0,,,,,,,,,,,,,0,0,0,0,0,26,26,26,,,,,,,,,,,,,,,,,,,,,,,,,,,,,,,,,,,,,,,,,,,,,,,,,,,,,,,,,,,,,,,,,,,,,,,,,,,,,,,,,,,,,,,,,,,,,,,,,,,,,223.11318758900052,230.6152790420001,,,,,031321,1,2,1,2,1,1,2,0,44,2021_Mar_13_1442,listening_fmri,3.2.4,59.9902177553541,
0,,,,,,,,,,0,0,0,0,0,0,0,0,0,0,0,0,,,,,,,,,,,,,0,0,0,0,,,,,,,,,,,,,,,,,,,,,,,,,,,,,,,,,,,,,,,,,,,,,,,,,,,,,,,,,,,,,,,,,,,,,,,,,,,,,,,,,,,,,,,,,,,,,,,,,,,,,,,,,,,,,,,031321,1,2,1,2,1,1,2,0,44,2021_Mar_13_1442,listening_fmri,3.2.4,59.9902177553541,
0,,,,,,,,,,0,0,0,0,0,0,0,0,0,0,0,0,,,,,,,,,,,,,,,,,,,,,,,,,,,,,,,,,,,,,,230.61576833800063,236.61244689600062,273.58509643900015,None,,,,,,,,,,,,,,,,,,,,,,,,,,,,,,,,,,,,,,,,,,,,,,,,,,,,,,,,,,,,,,,,,,,,,,,,,,,,,,,,,,279.5851715709996,None,279.5851715709996,None,031321,1,2,1,2,1,1,2,0,44,2021_Mar_13_1442,listening_fmri,3.2.4,59.9902177553541,
0,,,,,,,,,,0,0,0,0,0,0,0,0,,,,,,,,,,,,,,,,,,,,,,,,,,,,,,,,,,,,,,,,,,,,,,,,,,,,,,,,,,,,,,,,,,,,,,,,,,,,,,,,,,,,,,,,,,,,,,,,,,,,,,,,,,,,,,,,,,,,,,,,,,,,,,,,,,,031321,1,2,1,2,1,1,2,0,44,2021_Mar_13_1442,listening_fmri,3.2.4,59.9902177553541,
1,,,,,,,,,,0,0,0,0,0,1,1,1,0,0,0,0,0,0,0,0,0,0,0,0,,,,,,,,,,,,,,,,,,,,,,,,,,,,,,,,,,280.58552688799955,None,280.58552688799955,None,2,1.0504120800005694,280.58552688799955,None,280.58552688799955,None,281.6523413109999,None,2,1.5255863760003194,281.6523413109999,None,281.6523413109999,None,283.2191169540001,None,283.2191169540001,None,283.2191169540001,None,2,1.6387973820001207,283.2191169540001,None,284.8855132239996,None,2,2.2763184360001105,284.8855132239996,None,284.8855132239996,None,287.2682267529999,None,287.2682267529999,None,287.2682267529999,None,287.2682267529999,None,287.2682267529999,None,287.2682267529999,None,287.2682267529999,None,None,287.2682267529999,None,,,,,,,,,,,,,,,,,,,,,,,,,,,,,,,,,031321,1,2,1,2,1,1,2,0,44,2021_Mar_13_1442,listening_fmri,3.2.4,59.9902177553541,
1,,,,,,,,,,0,0,0,0,0,1,1,1,0,0,0,0,0,0,0,0,,,,,,,,,,,,,,,,,,,,,,,,,,,,,,,,,,,,,,,,,,,,,,,,,,,,,,,,,,,,,,,,,,,,,,,,,,,,,,,,,,,,,,,,,,,301.20210401199984,None,2,1.4687223259998063,301.20210401199984,None,301.20210401199984,None,302.7187286819999,None,302.7187286819999,None,302.7187286819999,None,2,1.2691207329999088,302.7187286819999,None,,,,,,,,,,,,,,,031321,1,2,1,2,1,1,2,0,44,2021_Mar_13_1442,listening_fmri,3.2.4,59.9902177553541,
1,parcelated_audio/21/21_1.ogg,,,,,,,,,0,0,0,0,0,1,1,1,0,0,0,0,,,,,,,,,,,,,0,0,0,0,0,0,0,0,,,,,,,,,,,,,,,,,,,,,,,,,,,,,,,,,,,,,,,,,,,,,,,,,,,,,,,,,,,,,,,,,,,,,,,,,,,,,,,,,,,,,,,,,,,,,304.0186714450001,None,2,1.0951980070003628,304.0186714450001,None,262.1919687210002,265.19510197599993,265.20104840100066,279.4753541250002,,,,,031321,1,2,1,2,1,1,2,0,44,2021_Mar_13_1442,listening_fmri,3.2.4,59.9902177553541,
1,parcelated_audio/21/21_2.ogg,,,,,,,,,0,0,0,0,0,1,1,1,0,0,0,0,,,,,,,,,,,,,0,0,0,0,0,1,1,1,,,,,,,,,,,,,,,,,,,,,,,,,,,,,,,,,,,,,,,,,,,,,,,,,,,,,,,,,,,,,,,,,,,,,,,,,,,,,,,,,,,,,,,,,,,,,,,,,,,,,279.4757072430002,286.9111455400007,,,,,031321,1,2,1,2,1,1,2,0,44,2021_Mar_13_1442,listening_fmri,3.2.4,59.9902177553541,
1,parcelated_audio/21/21_3.ogg,,,,,,,,,0,0,0,0,0,1,1,1,0,0,0,0,,,,,,,,,,,,,0,0,0,0,0,2,2,2,,,,,,,,,,,,,,,,,,,,,,,,,,,,,,,,,,,,,,,,,,,,,,,,,,,,,,,,,,,,,,,,,,,,,,,,,,,,,,,,,,,,,,,,,,,,,,,,,,,,,286.91183593999995,294.6070952760001,,,,,031321,1,2,1,2,1,1,2,0,44,2021_Mar_13_1442,listening_fmri,3.2.4,59.9902177553541,
1,parcelated_audio/21/21_4.ogg,,,,,,,,,0,0,0,0,0,1,1,1,0,0,0,0,,,,,,,,,,,,,0,0,0,0,0,3,3,3,,,,,,,,,,,,,,,,,,,,,,,,,,,,,,,,,,,,,,,,,,,,,,,,,,,,,,,,,,,,,,,,,,,,,,,,,,,,,,,,,,,,,,,,,,,,,,,,,,,,,294.60744743800024,305.64720650800064,,,,,031321,1,2,1,2,1,1,2,0,44,2021_Mar_13_1442,listening_fmri,3.2.4,59.9902177553541,
1,parcelated_audio/21/21_5.ogg,,,,,,,,,0,0,0,0,0,1,1,1,0,0,0,0,,,,,,,,,,,,,0,0,0,0,0,4,4,4,,,,,,,,,,,,,,,,,,,,,,,,,,,,,,,,,,,,,,,,,,,,,,,,,,,,,,,,,,,,,,,,,,,,,,,,,,,,,,,,,,,,,,,,,,,,,,,,,,,,,305.6475715960005,310.70844612100063,,,,,031321,1,2,1,2,1,1,2,0,44,2021_Mar_13_1442,listening_fmri,3.2.4,59.9902177553541,
1,parcelated_audio/21/21_6.ogg,,,,,,,,,0,0,0,0,0,1,1,1,0,0,0,0,,,,,,,,,,,,,0,0,0,0,0,5,5,5,,,,,,,,,,,,,,,,,,,,,,,,,,,,,,,,,,,,,,,,,,,,,,,,,,,,,,,,,,,,,,,,,,,,,,,,,,,,,,,,,,,,,,,,,,,,,,,,,,,,,310.70986615900074,318.87131113099986,,,,,031321,1,2,1,2,1,1,2,0,44,2021_Mar_13_1442,listening_fmri,3.2.4,59.9902177553541,
1,parcelated_audio/21/21_7.ogg,,,,,,,,,0,0,0,0,0,1,1,1,0,0,0,0,,,,,,,,,,,,,0,0,0,0,0,6,6,6,,,,,,,,,,,,,,,,,,,,,,,,,,,,,,,,,,,,,,,,,,,,,,,,,,,,,,,,,,,,,,,,,,,,,,,,,,,,,,,,,,,,,,,,,,,,,,,,,,,,,318.87166946900015,323.3859575000006,,,,,031321,1,2,1,2,1,1,2,0,44,2021_Mar_13_1442,listening_fmri,3.2.4,59.9902177553541,
1,parcelated_audio/21/21_8.ogg,,,,,,,,,0,0,0,0,0,1,1,1,0,0,0,0,,,,,,,,,,,,,0,0,0,0,0,7,7,7,,,,,,,,,,,,,,,,,,,,,,,,,,,,,,,,,,,,,,,,,,,,,,,,,,,,,,,,,,,,,,,,,,,,,,,,,,,,,,,,,,,,,,,,,,,,,,,,,,,,,323.38631719600016,334.2790315660004,,,,,031321,1,2,1,2,1,1,2,0,44,2021_Mar_13_1442,listening_fmri,3.2.4,59.9902177553541,
1,parcelated_audio/21/21_9.ogg,,,,,,,,,0,0,0,0,0,1,1,1,0,0,0,0,,,,,,,,,,,,,0,0,0,0,0,8,8,8,,,,,,,,,,,,,,,,,,,,,,,,,,,,,,,,,,,,,,,,,,,,,,,,,,,,,,,,,,,,,,,,,,,,,,,,,,,,,,,,,,,,,,,,,,,,,,,,,,,,,334.2794506800001,341.670164569,,,,,031321,1,2,1,2,1,1,2,0,44,2021_Mar_13_1442,listening_fmri,3.2.4,59.9902177553541,
1,parcelated_audio/21/21_10.ogg,,,,,,,,,0,0,0,0,0,1,1,1,0,0,0,0,,,,,,,,,,,,,0,0,0,0,0,9,9,9,,,,,,,,,,,,,,,,,,,,,,,,,,,,,,,,,,,,,,,,,,,,,,,,,,,,,,,,,,,,,,,,,,,,,,,,,,,,,,,,,,,,,,,,,,,,,,,,,,,,,341.6705322200005,348.521833025,,,,,031321,1,2,1,2,1,1,2,0,44,2021_Mar_13_1442,listening_fmri,3.2.4,59.9902177553541,
1,parcelated_audio/21/21_11.ogg,,,,,,,,,0,0,0,0,0,1,1,1,0,0,0,0,,,,,,,,,,,,,0,0,0,0,0,10,10,10,,,,,,,,,,,,,,,,,,,,,,,,,,,,,,,,,,,,,,,,,,,,,,,,,,,,,,,,,,,,,,,,,,,,,,,,,,,,,,,,,,,,,,,,,,,,,,,,,,,,,348.5222487690007,355.6177635160002,,,,,031321,1,2,1,2,1,1,2,0,44,2021_Mar_13_1442,listening_fmri,3.2.4,59.9902177553541,
1,parcelated_audio/21/21_12.ogg,,,,,,,,,0,0,0,0,0,1,1,1,0,0,0,0,,,,,,,,,,,,,0,0,0,0,0,11,11,11,,,,,,,,,,,,,,,,,,,,,,,,,,,,,,,,,,,,,,,,,,,,,,,,,,,,,,,,,,,,,,,,,,,,,,,,,,,,,,,,,,,,,,,,,,,,,,,,,,,,,355.61829264800053,363.9179973099999,,,,,031321,1,2,1,2,1,1,2,0,44,2021_Mar_13_1442,listening_fmri,3.2.4,59.9902177553541,
1,parcelated_audio/21/21_13.ogg,,,,,,,,,0,0,0,0,0,1,1,1,0,0,0,0,,,,,,,,,,,,,0,0,0,0,0,12,12,12,,,,,,,,,,,,,,,,,,,,,,,,,,,,,,,,,,,,,,,,,,,,,,,,,,,,,,,,,,,,,,,,,,,,,,,,,,,,,,,,,,,,,,,,,,,,,,,,,,,,,363.9183564969999,367.26182753800003,,,,,031321,1,2,1,2,1,1,2,0,44,2021_Mar_13_1442,listening_fmri,3.2.4,59.9902177553541,
1,parcelated_audio/21/21_14.ogg,,,,,,,,,0,0,0,0,0,1,1,1,0,0,0,0,,,,,,,,,,,,,0,0,0,0,0,13,13,13,,,,,,,,,,,,,,,,,,,,,,,,,,,,,,,,,,,,,,,,,,,,,,,,,,,,,,,,,,,,,,,,,,,,,,,,,,,,,,,,,,,,,,,,,,,,,,,,,,,,,367.26273150900033,372.6699966220003,,,,,031321,1,2,1,2,1,1,2,0,44,2021_Mar_13_1442,listening_fmri,3.2.4,59.9902177553541,
1,parcelated_audio/21/21_15.ogg,,,,,,,,,0,0,0,0,0,1,1,1,0,0,0,0,,,,,,,,,,,,,0,0,0,0,0,14,14,14,,,,,,,,,,,,,,,,,,,,,,,,,,,,,,,,,,,,,,,,,,,,,,,,,,,,,,,,,,,,,,,,,,,,,,,,,,,,,,,,,,,,,,,,,,,,,,,,,,,,,372.6703047990004,379.4791638730003,,,,,031321,1,2,1,2,1,1,2,0,44,2021_Mar_13_1442,listening_fmri,3.2.4,59.9902177553541,
1,parcelated_audio/21/21_16.ogg,,,,,,,,,0,0,0,0,0,1,1,1,0,0,0,0,,,,,,,,,,,,,0,0,0,0,0,15,15,15,,,,,,,,,,,,,,,,,,,,,,,,,,,,,,,,,,,,,,,,,,,,,,,,,,,,,,,,,,,,,,,,,,,,,,,,,,,,,,,,,,,,,,,,,,,,,,,,,,,,,379.4795092280001,385.54223892900063,,,,,031321,1,2,1,2,1,1,2,0,44,2021_Mar_13_1442,listening_fmri,3.2.4,59.9902177553541,
1,parcelated_audio/21/21_17.ogg,,,,,,,,,0,0,0,0,0,1,1,1,0,0,0,0,,,,,,,,,,,,,0,0,0,0,0,16,16,16,,,,,,,,,,,,,,,,,,,,,,,,,,,,,,,,,,,,,,,,,,,,,,,,,,,,,,,,,,,,,,,,,,,,,,,,,,,,,,,,,,,,,,,,,,,,,,,,,,,,,385.5425968770005,387.7055945080001,,,,,031321,1,2,1,2,1,1,2,0,44,2021_Mar_13_1442,listening_fmri,3.2.4,59.9902177553541,
1,parcelated_audio/21/21_18.ogg,,,,,,,,,0,0,0,0,0,1,1,1,0,0,0,0,,,,,,,,,,,,,0,0,0,0,0,17,17,17,,,,,,,,,,,,,,,,,,,,,,,,,,,,,,,,,,,,,,,,,,,,,,,,,,,,,,,,,,,,,,,,,,,,,,,,,,,,,,,,,,,,,,,,,,,,,,,,,,,,,387.70600250999996,400.8537704119999,,,,,031321,1,2,1,2,1,1,2,0,44,2021_Mar_13_1442,listening_fmri,3.2.4,59.9902177553541,
1,parcelated_audio/21/21_19.ogg,,,,,,,,,0,0,0,0,0,1,1,1,0,0,0,0,,,,,,,,,,,,,0,0,0,0,0,18,18,18,,,,,,,,,,,,,,,,,,,,,,,,,,,,,,,,,,,,,,,,,,,,,,,,,,,,,,,,,,,,,,,,,,,,,,,,,,,,,,,,,,,,,,,,,,,,,,,,,,,,,400.8541204000003,403.729092865,,,,,031321,1,2,1,2,1,1,2,0,44,2021_Mar_13_1442,listening_fmri,3.2.4,59.9902177553541,
1,parcelated_audio/21/21_20.ogg,,,,,,,,,0,0,0,0,0,1,1,1,0,0,0,0,,,,,,,,,,,,,0,0,0,0,0,19,19,19,,,,,,,,,,,,,,,,,,,,,,,,,,,,,,,,,,,,,,,,,,,,,,,,,,,,,,,,,,,,,,,,,,,,,,,,,,,,,,,,,,,,,,,,,,,,,,,,,,,,,403.7295123170006,412.45625218400073,,,,,031321,1,2,1,2,1,1,2,0,44,2021_Mar_13_1442,listening_fmri,3.2.4,59.9902177553541,
1,parcelated_audio/21/21_21.ogg,,,,,,,,,0,0,0,0,0,1,1,1,0,0,0,0,,,,,,,,,,,,,0,0,0,0,0,20,20,20,,,,,,,,,,,,,,,,,,,,,,,,,,,,,,,,,,,,,,,,,,,,,,,,,,,,,,,,,,,,,,,,,,,,,,,,,,,,,,,,,,,,,,,,,,,,,,,,,,,,,412.45660549700006,423.5051203769999,,,,,031321,1,2,1,2,1,1,2,0,44,2021_Mar_13_1442,listening_fmri,3.2.4,59.9902177553541,
1,parcelated_audio/21/21_22.ogg,,,,,,,,,0,0,0,0,0,1,1,1,0,0,0,0,,,,,,,,,,,,,0,0,0,0,0,21,21,21,,,,,,,,,,,,,,,,,,,,,,,,,,,,,,,,,,,,,,,,,,,,,,,,,,,,,,,,,,,,,,,,,,,,,,,,,,,,,,,,,,,,,,,,,,,,,,,,,,,,,423.5054857320001,434.40200477300004,,,,,031321,1,2,1,2,1,1,2,0,44,2021_Mar_13_1442,listening_fmri,3.2.4,59.9902177553541,
1,parcelated_audio/21/21_23.ogg,,,,,,,,,0,0,0,0,0,1,1,1,0,0,0,0,,,,,,,,,,,,,0,0,0,0,0,22,22,22,,,,,,,,,,,,,,,,,,,,,,,,,,,,,,,,,,,,,,,,,,,,,,,,,,,,,,,,,,,,,,,,,,,,,,,,,,,,,,,,,,,,,,,,,,,,,,,,,,,,,434.4024641220003,439.37227468699984,,,,,031321,1,2,1,2,1,1,2,0,44,2021_Mar_13_1442,listening_fmri,3.2.4,59.9902177553541,
1,parcelated_audio/21/21_24.ogg,,,,,,,,,0,0,0,0,0,1,1,1,0,0,0,0,,,,,,,,,,,,,0,0,0,0,0,23,23,23,,,,,,,,,,,,,,,,,,,,,,,,,,,,,,,,,,,,,,,,,,,,,,,,,,,,,,,,,,,,,,,,,,,,,,,,,,,,,,,,,,,,,,,,,,,,,,,,,,,,,439.372629255,443.957291103,,,,,031321,1,2,1,2,1,1,2,0,44,2021_Mar_13_1442,listening_fmri,3.2.4,59.9902177553541,
1,parcelated_audio/21/21_25.ogg,,,,,,,,,0,0,0,0,0,1,1,1,0,0,0,0,,,,,,,,,,,,,0,0,0,0,0,24,24,24,,,,,,,,,,,,,,,,,,,,,,,,,,,,,,,,,,,,,,,,,,,,,,,,,,,,,,,,,,,,,,,,,,,,,,,,,,,,,,,,,,,,,,,,,,,,,,,,,,,,,443.95789690499987,453.39813280900034,,,,,031321,1,2,1,2,1,1,2,0,44,2021_Mar_13_1442,listening_fmri,3.2.4,59.9902177553541,
1,parcelated_audio/21/21_26.ogg,,,,,,,,,0,0,0,0,0,1,1,1,0,0,0,0,,,,,,,,,,,,,0,0,0,0,0,25,25,25,,,,,,,,,,,,,,,,,,,,,,,,,,,,,,,,,,,,,,,,,,,,,,,,,,,,,,,,,,,,,,,,,,,,,,,,,,,,,,,,,,,,,,,,,,,,,,,,,,,,,453.39849581100043,457.41196922700055,,,,,031321,1,2,1,2,1,1,2,0,44,2021_Mar_13_1442,listening_fmri,3.2.4,59.9902177553541,
1,parcelated_audio/21/21_27.ogg,,,,,,,,,0,0,0,0,0,1,1,1,0,0,0,0,,,,,,,,,,,,,0,0,0,0,0,26,26,26,,,,,,,,,,,,,,,,,,,,,,,,,,,,,,,,,,,,,,,,,,,,,,,,,,,,,,,,,,,,,,,,,,,,,,,,,,,,,,,,,,,,,,,,,,,,,,,,,,,,,457.41232652100007,464.60434835400065,,,,,031321,1,2,1,2,1,1,2,0,44,2021_Mar_13_1442,listening_fmri,3.2.4,59.9902177553541,
1,parcelated_audio/21/21_28.ogg,,,,,,,,,0,0,0,0,0,1,1,1,0,0,0,0,,,,,,,,,,,,,0,0,0,0,0,27,27,27,,,,,,,,,,,,,,,,,,,,,,,,,,,,,,,,,,,,,,,,,,,,,,,,,,,,,,,,,,,,,,,,,,,,,,,,,,,,,,,,,,,,,,,,,,,,,,,,,,,,,464.6048366470004,470.7217580730003,,,,,031321,1,2,1,2,1,1,2,0,44,2021_Mar_13_1442,listening_fmri,3.2.4,59.9902177553541,
1,parcelated_audio/21/21_29.ogg,,,,,,,,,0,0,0,0,0,1,1,1,0,0,0,0,,,,,,,,,,,,,0,0,0,0,0,28,28,28,,,,,,,,,,,,,,,,,,,,,,,,,,,,,,,,,,,,,,,,,,,,,,,,,,,,,,,,,,,,,,,,,,,,,,,,,,,,,,,,,,,,,,,,,,,,,,,,,,,,,470.72211566900023,474.98214822200043,,,,,031321,1,2,1,2,1,1,2,0,44,2021_Mar_13_1442,listening_fmri,3.2.4,59.9902177553541,
1,parcelated_audio/21/21_30.ogg,,,,,,,,,0,0,0,0,0,1,1,1,0,0,0,0,,,,,,,,,,,,,0,0,0,0,0,29,29,29,,,,,,,,,,,,,,,,,,,,,,,,,,,,,,,,,,,,,,,,,,,,,,,,,,,,,,,,,,,,,,,,,,,,,,,,,,,,,,,,,,,,,,,,,,,,,,,,,,,,,474.98272432700014,480.2447099660003,,,,,031321,1,2,1,2,1,1,2,0,44,2021_Mar_13_1442,listening_fmri,3.2.4,59.9902177553541,
1,,,,,,,,,,0,0,0,0,0,1,1,1,0,0,0,0,,,,,,,,,,,,,0,0,0,0,,,,,,,,,,,,,,,,,,,,,,,,,,,,,,,,,,,,,,,,,,,,,,,,,,,,,,,,,,,,,,,,,,,,,,,,,,,,,,,,,,,,,,,,,,,,,,,,,,,,,,,,,,,,,,,031321,1,2,1,2,1,1,2,0,44,2021_Mar_13_1442,listening_fmri,3.2.4,59.9902177553541,
1,,,,,,,,,,0,0,0,0,0,1,1,1,0,0,0,0,,,,,,,,,,,,,,,,,,,,,,,,,,,,,,,,,,,,,,480.2452349820005,486.2407181870003,523.2191911310001,None,,,,,,,,,,,,,,,,,,,,,,,,,,,,,,,,,,,,,,,,,,,,,,,,,,,,,,,,,,,,,,,,,,,,,,,,,,,,,,,,,,529.2194505090001,None,529.2194505090001,None,031321,1,2,1,2,1,1,2,0,44,2021_Mar_13_1442,listening_fmri,3.2.4,59.9902177553541,
1,,,,,,,,,,0,0,0,0,0,1,1,1,,,,,,,,,,,,,,,,,,,,,,,,,,,,,,,,,,,,,,,,,,,,,,,,,,,,,,,,,,,,,,,,,,,,,,,,,,,,,,,,,,,,,,,,,,,,,,,,,,,,,,,,,,,,,,,,,,,,,,,,,,,,,,,,,,,031321,1,2,1,2,1,1,2,0,44,2021_Mar_13_1442,listening_fmri,3.2.4,59.9902177553541,
2,parcelated_audio/14/14_1.ogg,,,,,,,,,0,0,0,0,0,2,2,2,0,0,0,0,,,,,,,,,,,,,0,0,0,0,0,0,0,0,,,,,,,,,,,,,,,,,,,,,,530.235469925,None,530.235469925,None,2,1.0304104490005557,530.235469925,None,530.235469925,None,,,,,,,,,,,,,,,,,,,,,,,,,,,,,,,,,,,,,,,,,,,,,,,,,,,,,,,,,,,,,,531.2861211689997,None,2,1.0968160769998576,531.2861211689997,None,489.4342686480004,492.44080388900056,492.45019081400005,499.30276094200053,,,,,031321,1,2,1,2,1,1,2,0,44,2021_Mar_13_1442,listening_fmri,3.2.4,59.9902177553541,
2,parcelated_audio/14/14_2.ogg,,,,,,,,,0,0,0,0,0,2,2,2,0,0,0,0,,,,,,,,,,,,,0,0,0,0,0,1,1,1,,,,,,,,,,,,,,,,,,,,,,,,,,,,,,,,,,,,,,,,,,,,,,,,,,,,,,,,,,,,,,,,,,,,,,,,,,,,,,,,,,,,,,,,,,,,,,,,,,,,,499.3036641839999,505.8562047310006,,,,,031321,1,2,1,2,1,1,2,0,44,2021_Mar_13_1442,listening_fmri,3.2.4,59.9902177553541,
2,parcelated_audio/14/14_3.ogg,,,,,,,,,0,0,0,0,0,2,2,2,0,0,0,0,,,,,,,,,,,,,0,0,0,0,0,2,2,2,,,,,,,,,,,,,,,,,,,,,,,,,,,,,,,,,,,,,,,,,,,,,,,,,,,,,,,,,,,,,,,,,,,,,,,,,,,,,,,,,,,,,,,,,,,,,,,,,,,,,505.85662084200067,509.5770234900001,,,,,031321,1,2,1,2,1,1,2,0,44,2021_Mar_13_1442,listening_fmri,3.2.4,59.9902177553541,
2,parcelated_audio/14/14_4.ogg,,,,,,,,,0,0,0,0,0,2,2,2,0,0,0,0,,,,,,,,,,,,,0,0,0,0,0,3,3,3,,,,,,,,,,,,,,,,,,,,,,,,,,,,,,,,,,,,,,,,,,,,,,,,,,,,,,,,,,,,,,,,,,,,,,,,,,,,,,,,,,,,,,,,,,,,,,,,,,,,,509.57737702400027,517.5201120060001,,,,,031321,1,2,1,2,1,1,2,0,44,2021_Mar_13_1442,listening_fmri,3.2.4,59.9902177553541,
2,parcelated_audio/14/14_5.ogg,,,,,,,,,0,0,0,0,0,2,2,2,0,0,0,0,,,,,,,,,,,,,0,0,0,0,0,4,4,4,,,,,,,,,,,,,,,,,,,,,,,,,,,,,,,,,,,,,,,,,,,,,,,,,,,,,,,,,,,,,,,,,,,,,,,,,,,,,,,,,,,,,,,,,,,,,,,,,,,,,517.5204799600006,522.3760376119999,,,,,031321,1,2,1,2,1,1,2,0,44,2021_Mar_13_1442,listening_fmri,3.2.4,59.9902177553541,
2,parcelated_audio/14/14_6.ogg,,,,,,,,,0,0,0,0,0,2,2,2,0,0,0,0,,,,,,,,,,,,,0,0,0,0,0,5,5,5,,,,,,,,,,,,,,,,,,,,,,,,,,,,,,,,,,,,,,,,,,,,,,,,,,,,,,,,,,,,,,,,,,,,,,,,,,,,,,,,,,,,,,,,,,,,,,,,,,,,,522.3763949439999,528.2235974940004,,,,,031321,1,2,1,2,1,1,2,0,44,2021_Mar_13_1442,listening_fmri,3.2.4,59.9902177553541,
2,parcelated_audio/14/14_7.ogg,,,,,,,,,0,0,0,0,0,2,2,2,0,0,0,0,,,,,,,,,,,,,0,0,0,0,0,6,6,6,,,,,,,,,,,,,,,,,,,,,,,,,,,,,,,,,,,,,,,,,,,,,,,,,,,,,,,,,,,,,,,,,,,,,,,,,,,,,,,,,,,,,,,,,,,,,,,,,,,,,528.2241928210005,537.864606356,,,,,031321,1,2,1,2,1,1,2,0,44,2021_Mar_13_1442,listening_fmri,3.2.4,59.9902177553541,
2,parcelated_audio/14/14_8.ogg,,,,,,,,,0,0,0,0,0,2,2,2,0,0,0,0,,,,,,,,,,,,,0,0,0,0,0,7,7,7,,,,,,,,,,,,,,,,,,,,,,,,,,,,,,,,,,,,,,,,,,,,,,,,,,,,,,,,,,,,,,,,,,,,,,,,,,,,,,,,,,,,,,,,,,,,,,,,,,,,,537.8650282660001,543.0690215740005,,,,,031321,1,2,1,2,1,1,2,0,44,2021_Mar_13_1442,listening_fmri,3.2.4,59.9902177553541,
2,parcelated_audio/14/14_9.ogg,,,,,,,,,0,0,0,0,0,2,2,2,0,0,0,0,,,,,,,,,,,,,0,0,0,0,0,8,8,8,,,,,,,,,,,,,,,,,,,,,,,,,,,,,,,,,,,,,,,,,,,,,,,,,,,,,,,,,,,,,,,,,,,,,,,,,,,,,,,,,,,,,,,,,,,,,,,,,,,,,543.0699686309999,546.8152153970004,,,,,031321,1,2,1,2,1,1,2,0,44,2021_Mar_13_1442,listening_fmri,3.2.4,59.9902177553541,
2,parcelated_audio/14/14_10.ogg,,,,,,,,,0,0,0,0,0,2,2,2,0,0,0,0,,,,,,,,,,,,,0,0,0,0,0,9,9,9,,,,,,,,,,,,,,,,,,,,,,,,,,,,,,,,,,,,,,,,,,,,,,,,,,,,,,,,,,,,,,,,,,,,,,,,,,,,,,,,,,,,,,,,,,,,,,,,,,,,,546.8155695750002,558.0646391330001,,,,,031321,1,2,1,2,1,1,2,0,44,2021_Mar_13_1442,listening_fmri,3.2.4,59.9902177553541,
2,parcelated_audio/14/14_11.ogg,,,,,,,,,0,0,0,0,0,2,2,2,0,0,0,0,,,,,,,,,,,,,0,0,0,0,0,10,10,10,,,,,,,,,,,,,,,,,,,,,,,,,,,,,,,,,,,,,,,,,,,,,,,,,,,,,,,,,,,,,,,,,,,,,,,,,,,,,,,,,,,,,,,,,,,,,,,,,,,,,558.0651528970002,565.312036761,,,,,031321,1,2,1,2,1,1,2,0,44,2021_Mar_13_1442,listening_fmri,3.2.4,59.9902177553541,
2,parcelated_audio/14/14_12.ogg,,,,,,,,,0,0,0,0,0,2,2,2,0,0,0,0,,,,,,,,,,,,,0,0,0,0,0,11,11,11,,,,,,,,,,,,,,,,,,,,,,,,,,,,,,,,,,,,,,,,,,,,,,,,,,,,,,,,,,,,,,,,,,,,,,,,,,,,,,,,,,,,,,,,,,,,,,,,,,,,,565.3123879499999,573.3242675380006,,,,,031321,1,2,1,2,1,1,2,0,44,2021_Mar_13_1442,listening_fmri,3.2.4,59.9902177553541,
2,parcelated_audio/14/14_13.ogg,,,,,,,,,0,0,0,0,0,2,2,2,0,0,0,0,,,,,,,,,,,,,0,0,0,0,0,12,12,12,,,,,,,,,,,,,,,,,,,,,,,,,,,,,,,,,,,,,,,,,,,,,,,,,,,,,,,,,,,,,,,,,,,,,,,,,,,,,,,,,,,,,,,,,,,,,,,,,,,,,573.3246266679998,579.4392095880003,,,,,031321,1,2,1,2,1,1,2,0,44,2021_Mar_13_1442,listening_fmri,3.2.4,59.9902177553541,
2,parcelated_audio/14/14_14.ogg,,,,,,,,,0,0,0,0,0,2,2,2,0,0,0,0,,,,,,,,,,,,,0,0,0,0,0,13,13,13,,,,,,,,,,,,,,,,,,,,,,,,,,,,,,,,,,,,,,,,,,,,,,,,,,,,,,,,,,,,,,,,,,,,,,,,,,,,,,,,,,,,,,,,,,,,,,,,,,,,,579.4396898190007,585.9966604460005,,,,,031321,1,2,1,2,1,1,2,0,44,2021_Mar_13_1442,listening_fmri,3.2.4,59.9902177553541,
2,parcelated_audio/14/14_15.ogg,,,,,,,,,0,0,0,0,0,2,2,2,0,0,0,0,,,,,,,,,,,,,0,0,0,0,0,14,14,14,,,,,,,,,,,,,,,,,,,,,,,,,,,,,,,,,,,,,,,,,,,,,,,,,,,,,,,,,,,,,,,,,,,,,,,,,,,,,,,,,,,,,,,,,,,,,,,,,,,,,585.997097982,593.1100879390006,,,,,031321,1,2,1,2,1,1,2,0,44,2021_Mar_13_1442,listening_fmri,3.2.4,59.9902177553541,
2,parcelated_audio/14/14_16.ogg,,,,,,,,,0,0,0,0,0,2,2,2,0,0,0,0,,,,,,,,,,,,,0,0,0,0,0,15,15,15,,,,,,,,,,,,,,,,,,,,,,,,,,,,,,,,,,,,,,,,,,,,,,,,,,,,,,,,,,,,,,,,,,,,,,,,,,,,,,,,,,,,,,,,,,,,,,,,,,,,,593.1104592990005,598.5275401560002,,,,,031321,1,2,1,2,1,1,2,0,44,2021_Mar_13_1442,listening_fmri,3.2.4,59.9902177553541,
2,parcelated_audio/14/14_17.ogg,,,,,,,,,0,0,0,0,0,2,2,2,0,0,0,0,,,,,,,,,,,,,0,0,0,0,0,16,16,16,,,,,,,,,,,,,,,,,,,,,,,,,,,,,,,,,,,,,,,,,,,,,,,,,,,,,,,,,,,,,,,,,,,,,,,,,,,,,,,,,,,,,,,,,,,,,,,,,,,,,598.527858378,608.2218666200006,,,,,031321,1,2,1,2,1,1,2,0,44,2021_Mar_13_1442,listening_fmri,3.2.4,59.9902177553541,
2,parcelated_audio/14/14_18.ogg,,,,,,,,,0,0,0,0,0,2,2,2,0,0,0,0,,,,,,,,,,,,,0,0,0,0,0,17,17,17,,,,,,,,,,,,,,,,,,,,,,,,,,,,,,,,,,,,,,,,,,,,,,,,,,,,,,,,,,,,,,,,,,,,,,,,,,,,,,,,,,,,,,,,,,,,,,,,,,,,,608.2222206860006,615.8072096660007,,,,,031321,1,2,1,2,1,1,2,0,44,2021_Mar_13_1442,listening_fmri,3.2.4,59.9902177553541,
2,parcelated_audio/14/14_19.ogg,,,,,,,,,0,0,0,0,0,2,2,2,0,0,0,0,,,,,,,,,,,,,0,0,0,0,0,18,18,18,,,,,,,,,,,,,,,,,,,,,,,,,,,,,,,,,,,,,,,,,,,,,,,,,,,,,,,,,,,,,,,,,,,,,,,,,,,,,,,,,,,,,,,,,,,,,,,,,,,,,615.8076736880002,618.6619969250005,,,,,031321,1,2,1,2,1,1,2,0,44,2021_Mar_13_1442,listening_fmri,3.2.4,59.9902177553541,
2,parcelated_audio/14/14_20.ogg,,,,,,,,,0,0,0,0,0,2,2,2,0,0,0,0,,,,,,,,,,,,,0,0,0,0,0,19,19,19,,,,,,,,,,,,,,,,,,,,,,,,,,,,,,,,,,,,,,,,,,,,,,,,,,,,,,,,,,,,,,,,,,,,,,,,,,,,,,,,,,,,,,,,,,,,,,,,,,,,,618.662355204,620.8123030790002,,,,,031321,1,2,1,2,1,1,2,0,44,2021_Mar_13_1442,listening_fmri,3.2.4,59.9902177553541,
2,parcelated_audio/14/14_21.ogg,,,,,,,,,0,0,0,0,0,2,2,2,0,0,0,0,,,,,,,,,,,,,0,0,0,0,0,20,20,20,,,,,,,,,,,,,,,,,,,,,,,,,,,,,,,,,,,,,,,,,,,,,,,,,,,,,,,,,,,,,,,,,,,,,,,,,,,,,,,,,,,,,,,,,,,,,,,,,,,,,620.8126567240006,630.3903793469999,,,,,031321,1,2,1,2,1,1,2,0,44,2021_Mar_13_1442,listening_fmri,3.2.4,59.9902177553541,
2,parcelated_audio/14/14_22.ogg,,,,,,,,,0,0,0,0,0,2,2,2,0,0,0,0,,,,,,,,,,,,,0,0,0,0,0,21,21,21,,,,,,,,,,,,,,,,,,,,,,,,,,,,,,,,,,,,,,,,,,,,,,,,,,,,,,,,,,,,,,,,,,,,,,,,,,,,,,,,,,,,,,,,,,,,,,,,,,,,,630.3907494640007,636.7361580249999,,,,,031321,1,2,1,2,1,1,2,0,44,2021_Mar_13_1442,listening_fmri,3.2.4,59.9902177553541,
2,parcelated_audio/14/14_23.ogg,,,,,,,,,0,0,0,0,0,2,2,2,0,0,0,0,,,,,,,,,,,,,0,0,0,0,0,22,22,22,,,,,,,,,,,,,,,,,,,,,,,,,,,,,,,,,,,,,,,,,,,,,,,,,,,,,,,,,,,,,,,,,,,,,,,,,,,,,,,,,,,,,,,,,,,,,,,,,,,,,636.737077234,641.799229278,,,,,031321,1,2,1,2,1,1,2,0,44,2021_Mar_13_1442,listening_fmri,3.2.4,59.9902177553541,
2,parcelated_audio/14/14_24.ogg,,,,,,,,,0,0,0,0,0,2,2,2,0,0,0,0,,,,,,,,,,,,,0,0,0,0,0,23,23,23,,,,,,,,,,,,,,,,,,,,,,,,,,,,,,,,,,,,,,,,,,,,,,,,,,,,,,,,,,,,,,,,,,,,,,,,,,,,,,,,,,,,,,,,,,,,,,,,,,,,,641.799868819,652.7132750820001,,,,,031321,1,2,1,2,1,1,2,0,44,2021_Mar_13_1442,listening_fmri,3.2.4,59.9902177553541,
2,parcelated_audio/14/14_25.ogg,,,,,,,,,0,0,0,0,0,2,2,2,0,0,0,0,,,,,,,,,,,,,0,0,0,0,0,24,24,24,,,,,,,,,,,,,,,,,,,,,,,,,,,,,,,,,,,,,,,,,,,,,,,,,,,,,,,,,,,,,,,,,,,,,,,,,,,,,,,,,,,,,,,,,,,,,,,,,,,,,652.7138921250007,659.3639276920003,,,,,031321,1,2,1,2,1,1,2,0,44,2021_Mar_13_1442,listening_fmri,3.2.4,59.9902177553541,
2,parcelated_audio/14/14_26.ogg,,,,,,,,,0,0,0,0,0,2,2,2,0,0,0,0,,,,,,,,,,,,,0,0,0,0,0,25,25,25,,,,,,,,,,,,,,,,,,,,,,,,,,,,,,,,,,,,,,,,,,,,,,,,,,,,,,,,,,,,,,,,,,,,,,,,,,,,,,,,,,,,,,,,,,,,,,,,,,,,,659.3642148110002,661.5360539070007,,,,,031321,1,2,1,2,1,1,2,0,44,2021_Mar_13_1442,listening_fmri,3.2.4,59.9902177553541,
2,parcelated_audio/14/14_27.ogg,,,,,,,,,0,0,0,0,0,2,2,2,0,0,0,0,,,,,,,,,,,,,0,0,0,0,0,26,26,26,,,,,,,,,,,,,,,,,,,,,,,,,,,,,,,,,,,,,,,,,,,,,,,,,,,,,,,,,,,,,,,,,,,,,,,,,,,,,,,,,,,,,,,,,,,,,,,,,,,,,661.5366041980005,667.555246897,,,,,031321,1,2,1,2,1,1,2,0,44,2021_Mar_13_1442,listening_fmri,3.2.4,59.9902177553541,
2,parcelated_audio/14/14_28.ogg,,,,,,,,,0,0,0,0,0,2,2,2,0,0,0,0,,,,,,,,,,,,,0,0,0,0,0,27,27,27,,,,,,,,,,,,,,,,,,,,,,,,,,,,,,,,,,,,,,,,,,,,,,,,,,,,,,,,,,,,,,,,,,,,,,,,,,,,,,,,,,,,,,,,,,,,,,,,,,,,,667.5556095410002,670.5350245540003,,,,,031321,1,2,1,2,1,1,2,0,44,2021_Mar_13_1442,listening_fmri,3.2.4,59.9902177553541,
2,parcelated_audio/14/14_29.ogg,,,,,,,,,0,0,0,0,0,2,2,2,0,0,0,0,,,,,,,,,,,,,0,0,0,0,0,28,28,28,,,,,,,,,,,,,,,,,,,,,,,,,,,,,,,,,,,,,,,,,,,,,,,,,,,,,,,,,,,,,,,,,,,,,,,,,,,,,,,,,,,,,,,,,,,,,,,,,,,,,670.5353828180005,672.9016609740002,,,,,031321,1,2,1,2,1,1,2,0,44,2021_Mar_13_1442,listening_fmri,3.2.4,59.9902177553541,
2,parcelated_audio/14/14_30.ogg,,,,,,,,,0,0,0,0,0,2,2,2,0,0,0,0,,,,,,,,,,,,,0,0,0,0,0,29,29,29,,,,,,,,,,,,,,,,,,,,,,,,,,,,,,,,,,,,,,,,,,,,,,,,,,,,,,,,,,,,,,,,,,,,,,,,,,,,,,,,,,,,,,,,,,,,,,,,,,,,,672.9020033890001,677.1563448470006,,,,,031321,1,2,1,2,1,1,2,0,44,2021_Mar_13_1442,listening_fmri,3.2.4,59.9902177553541,
2,parcelated_audio/14/14_31.ogg,,,,,,,,,0,0,0,0,0,2,2,2,0,0,0,0,,,,,,,,,,,,,0,0,0,0,0,30,30,30,,,,,,,,,,,,,,,,,,,,,,,,,,,,,,,,,,,,,,,,,,,,,,,,,,,,,,,,,,,,,,,,,,,,,,,,,,,,,,,,,,,,,,,,,,,,,,,,,,,,,677.156699704,684.4379681580003,,,,,031321,1,2,1,2,1,1,2,0,44,2021_Mar_13_1442,listening_fmri,3.2.4,59.9902177553541,
2,parcelated_audio/14/14_32.ogg,,,,,,,,,0,0,0,0,0,2,2,2,0,0,0,0,,,,,,,,,,,,,0,0,0,0,0,31,31,31,,,,,,,,,,,,,,,,,,,,,,,,,,,,,,,,,,,,,,,,,,,,,,,,,,,,,,,,,,,,,,,,,,,,,,,,,,,,,,,,,,,,,,,,,,,,,,,,,,,,,684.438316707,691.5860132050002,,,,,031321,1,2,1,2,1,1,2,0,44,2021_Mar_13_1442,listening_fmri,3.2.4,59.9902177553541,
2,parcelated_audio/14/14_33.ogg,,,,,,,,,0,0,0,0,0,2,2,2,0,0,0,0,,,,,,,,,,,,,0,0,0,0,0,32,32,32,,,,,,,,,,,,,,,,,,,,,,,,,,,,,,,,,,,,,,,,,,,,,,,,,,,,,,,,,,,,,,,,,,,,,,,,,,,,,,,,,,,,,,,,,,,,,,,,,,,,,691.5863611920004,698.1452015069999,,,,,031321,1,2,1,2,1,1,2,0,44,2021_Mar_13_1442,listening_fmri,3.2.4,59.9902177553541,
2,,,,,,,,,,0,0,0,0,0,2,2,2,0,0,0,0,,,,,,,,,,,,,0,0,0,0,,,,,,,,,,,,,,,,,,,,,,,,,,,,,,,,,,,,,,,,,,,,,,,,,,,,,,,,,,,,,,,,,,,,,,,,,,,,,,,,,,,,,,,,,,,,,,,,,,,,,,,,,,,,,,,031321,1,2,1,2,1,1,2,0,44,2021_Mar_13_1442,listening_fmri,3.2.4,59.9902177553541,
,,,,,,,,,,,,,,,,,,,,,,,,,,,,,,,,,,,,,,,,,,,,,,,,,,,,,,,,,,,698.145693769,704.1399953830005,741.1189839979997,None,,,,,,,,,,,,,,,,,,,,,,,,,,,,,,,,,,,,,,,,,,,,,,,,,,,,,,,,,,,,,,,,,,,,,,,,,,,,,,,,,,747.1186755870003,None,747.1186755870003,None,,,,,,,,,,,,,,,
﻿count,audio,trials_14.thisRepN,trials_14.thisTrialN,trials_14.thisN,trials_14.thisIndex,trials_3.thisRepN,trials_3.thisTrialN,trials_3.thisN,trials_3.thisIndex,trials_4.thisRepN,trials_4.thisTrialN,trials_4.thisN,trials_4.thisIndex,trials_6.thisRepN,trials_6.thisTrialN,trials_6.thisN,trials_6.thisIndex,trials_9.thisRepN,trials_9.thisTrialN,trials_9.thisN,trials_9.thisIndex,trials_10.thisRepN,trials_10.thisTrialN,trials_10.thisN,trials_10.thisIndex,trials_11.thisRepN,trials_11.thisTrialN,trials_11.thisN,trials_11.thisIndex,trials_12.thisRepN,trials_12.thisTrialN,trials_12.thisN,trials_12.thisIndex,trials_25.thisRepN,trials_25.thisTrialN,trials_25.thisN,trials_25.thisIndex,trials_15.thisRepN,trials_15.thisTrialN,trials_15.thisN,trials_15.thisIndex,trials_26.thisRepN,trials_26.thisTrialN,trials_26.thisN,trials_26.thisIndex,story_list_block2,action_list_block2,textTrigger.started,textTrigger.stopped,getTrigger.keys,getTrigger.rt,getTrigger.started,getTrigger.stopped,triggerTime,text_76.started,text_76.stopped,text_77.started,text_77.stopped,startWait,endWait,image_23.started,image_23.stopped,text_55.started,text_55.stopped,text_56.started,text_56.stopped,key_resp_2.keys,key_resp_2.rt,key_resp_2.started,key_resp_2.stopped,text_82.started,text_82.stopped,text_57.started,text_57.stopped,key_resp_17.keys,key_resp_17.rt,key_resp_17.started,key_resp_17.stopped,text_83.started,text_83.stopped,text_60.started,text_60.stopped,image_2.started,image_2.stopped,text_58.started,text_58.stopped,key_resp_23.keys,key_resp_23.rt,key_resp_23.started,key_resp_23.stopped,text_62.started,text_62.stopped,key_resp_18.keys,key_resp_18.rt,key_resp_18.started,key_resp_18.stopped,text_84.started,text_84.stopped,question1_2.started,question1_2.stopped,question2_2.started,question2_2.stopped,question3_2.started,question3_2.stopped,question4_2.started,question4_2.stopped,question5_2.started,question5_2.stopped,question6_2.started,question6_2.stopped,image_15.started,image_15.stopped,key_resp.keys,key_resp.started,key_resp.stopped,text_59.started,text_59.stopped,key_resp_19.keys,key_resp_19.rt,key_resp_19.started,key_resp_19.stopped,text_85.started,text_85.stopped,text_61.started,text_61.stopped,image_17.started,image_17.stopped,text_63.started,text_63.stopped,key_resp_24.keys,key_resp_24.rt,key_resp_24.started,key_resp_24.stopped,text_64.started,text_64.stopped,key_resp_20.keys,key_resp_20.rt,key_resp_20.started,key_resp_20.stopped,storyImage_StartTime,storyImage_EndTime,clip_StartTime,clip_EndTime,text_67.started,text_67.stopped,text_68.started,text_68.stopped,participant,sA,sB,lA,lB,block_struct,play_stories,block,behavioral,random_seed,date,expName,psychopyVersion,frameRate,
0,,,,,,,,,,0,0,0,0,0,0,0,0,0,0,0,0,0,0,0,0,0,0,0,0,,,,,,,,,,,,,,,,,[34 21 14 12 32 43 41 23],[1 1 4 2 3 2 4 3],14.812135934999787,None,equal,28.144746705000216,14.812135934999787,None,28.16787506899982,14.812135934999787,None,14.812135934999787,None,0.0003240180003558635,6.0155861890007145,42.97713784200005,None,49.00163752200024,None,49.00163752200024,None,2,1.6763094930001898,49.00163752200024,None,49.00163752200024,None,50.701668568999594,None,2,1.3562748319991442,50.701668568999594,None,50.701668568999594,None,52.10169940000014,None,52.10169940000014,None,52.10169940000014,None,2,2.327218321000146,52.10169940000014,None,54.4518062369998,None,2,2.782002521999857,54.4518062369998,None,54.4518062369998,None,57.32727670999975,None,57.32727670999975,None,57.32727670999975,None,57.32727670999975,None,57.32727670999975,None,57.32727670999975,None,57.32727670999975,None,None,57.32727670999975,None,,,,,,,,,,,,,,,,,,,,,,,,,,,,,,,,,031321,1,2,1,2,1,1,2,0,44,2021_Mar_13_1442,listening_fmri,3.2.4,59.9902177553541,
0,,,,,,,,,,0,0,0,0,0,0,0,0,0,0,0,0,0,0,0,0,,,,,,,,,,,,,,,,,,,,,,,,,,,,,,,,,,,,,,,,,,,,,,,,,,,,,,,,,,,,,,,,,,,,,,,,,,,,,,,,,,,,,,,,,,,78.65239112899962,None,3,1.2525355540001328,78.65239112899962,None,78.65239112899962,None,79.94368974699955,None,79.94368974699955,None,79.94368974699955,None,3,1.0532455619995744,79.94368974699955,None,,,,,,,,,,,,,,,031321,1,2,1,2,1,1,2,0,44,2021_Mar_13_1442,listening_fmri,3.2.4,59.9902177553541,
0,parcelated_audio/34/34_1.ogg,,,,,,,,,0,0,0,0,0,0,0,0,0,0,0,0,,,,,,,,,,,,,0,0,0,0,0,0,0,0,,,,,,,,,,,,,,,,,,,,,,,,,,,,,,,,,,,,,,,,,,,,,,,,,,,,,,,,,,,,,,,,,,,,,,,,,,,,,,,,,,,,,,,,,,,,,81.01838972200039,None,3,1.350410009999905,81.01838972200039,None,39.43106075100059,42.44850377400053,42.459392579999985,51.169927648999874,,,,,031321,1,2,1,2,1,1,2,0,44,2021_Mar_13_1442,listening_fmri,3.2.4,59.9902177553541,
0,parcelated_audio/34/34_2.ogg,,,,,,,,,0,0,0,0,0,0,0,0,0,0,0,0,,,,,,,,,,,,,0,0,0,0,0,1,1,1,,,,,,,,,,,,,,,,,,,,,,,,,,,,,,,,,,,,,,,,,,,,,,,,,,,,,,,,,,,,,,,,,,,,,,,,,,,,,,,,,,,,,,,,,,,,,,,,,,,,,51.17045803700057,55.72496423700068,,,,,031321,1,2,1,2,1,1,2,0,44,2021_Mar_13_1442,listening_fmri,3.2.4,59.9902177553541,
0,parcelated_audio/34/34_3.ogg,,,,,,,,,0,0,0,0,0,0,0,0,0,0,0,0,,,,,,,,,,,,,0,0,0,0,0,2,2,2,,,,,,,,,,,,,,,,,,,,,,,,,,,,,,,,,,,,,,,,,,,,,,,,,,,,,,,,,,,,,,,,,,,,,,,,,,,,,,,,,,,,,,,,,,,,,,,,,,,,,55.72575888400024,60.36979264199999,,,,,031321,1,2,1,2,1,1,2,0,44,2021_Mar_13_1442,listening_fmri,3.2.4,59.9902177553541,
0,parcelated_audio/34/34_4.ogg,,,,,,,,,0,0,0,0,0,0,0,0,0,0,0,0,,,,,,,,,,,,,0,0,0,0,0,3,3,3,,,,,,,,,,,,,,,,,,,,,,,,,,,,,,,,,,,,,,,,,,,,,,,,,,,,,,,,,,,,,,,,,,,,,,,,,,,,,,,,,,,,,,,,,,,,,,,,,,,,,60.37068951600031,69.99419812100041,,,,,031321,1,2,1,2,1,1,2,0,44,2021_Mar_13_1442,listening_fmri,3.2.4,59.9902177553541,
0,parcelated_audio/34/34_5.ogg,,,,,,,,,0,0,0,0,0,0,0,0,0,0,0,0,,,,,,,,,,,,,0,0,0,0,0,4,4,4,,,,,,,,,,,,,,,,,,,,,,,,,,,,,,,,,,,,,,,,,,,,,,,,,,,,,,,,,,,,,,,,,,,,,,,,,,,,,,,,,,,,,,,,,,,,,,,,,,,,,69.99450765800066,80.41549495000072,,,,,031321,1,2,1,2,1,1,2,0,44,2021_Mar_13_1442,listening_fmri,3.2.4,59.9902177553541,
0,parcelated_audio/34/34_6.ogg,,,,,,,,,0,0,0,0,0,0,0,0,0,0,0,0,,,,,,,,,,,,,0,0,0,0,0,5,5,5,,,,,,,,,,,,,,,,,,,,,,,,,,,,,,,,,,,,,,,,,,,,,,,,,,,,,,,,,,,,,,,,,,,,,,,,,,,,,,,,,,,,,,,,,,,,,,,,,,,,,80.41577331999997,89.11922155899993,,,,,031321,1,2,1,2,1,1,2,0,44,2021_Mar_13_1442,listening_fmri,3.2.4,59.9902177553541,
0,parcelated_audio/34/34_7.ogg,,,,,,,,,0,0,0,0,0,0,0,0,0,0,0,0,,,,,,,,,,,,,0,0,0,0,0,6,6,6,,,,,,,,,,,,,,,,,,,,,,,,,,,,,,,,,,,,,,,,,,,,,,,,,,,,,,,,,,,,,,,,,,,,,,,,,,,,,,,,,,,,,,,,,,,,,,,,,,,,,89.11957212000016,95.11010410000017,,,,,031321,1,2,1,2,1,1,2,0,44,2021_Mar_13_1442,listening_fmri,3.2.4,59.9902177553541,
0,parcelated_audio/34/34_8.ogg,,,,,,,,,0,0,0,0,0,0,0,0,0,0,0,0,,,,,,,,,,,,,0,0,0,0,0,7,7,7,,,,,,,,,,,,,,,,,,,,,,,,,,,,,,,,,,,,,,,,,,,,,,,,,,,,,,,,,,,,,,,,,,,,,,,,,,,,,,,,,,,,,,,,,,,,,,,,,,,,,95.11065963600049,103.08127544499985,,,,,031321,1,2,1,2,1,1,2,0,44,2021_Mar_13_1442,listening_fmri,3.2.4,59.9902177553541,
0,parcelated_audio/34/34_9.ogg,,,,,,,,,0,0,0,0,0,0,0,0,0,0,0,0,,,,,,,,,,,,,0,0,0,0,0,8,8,8,,,,,,,,,,,,,,,,,,,,,,,,,,,,,,,,,,,,,,,,,,,,,,,,,,,,,,,,,,,,,,,,,,,,,,,,,,,,,,,,,,,,,,,,,,,,,,,,,,,,,103.08163388200046,107.86239791600019,,,,,031321,1,2,1,2,1,1,2,0,44,2021_Mar_13_1442,listening_fmri,3.2.4,59.9902177553541,
0,parcelated_audio/34/34_10.ogg,,,,,,,,,0,0,0,0,0,0,0,0,0,0,0,0,,,,,,,,,,,,,0,0,0,0,0,9,9,9,,,,,,,,,,,,,,,,,,,,,,,,,,,,,,,,,,,,,,,,,,,,,,,,,,,,,,,,,,,,,,,,,,,,,,,,,,,,,,,,,,,,,,,,,,,,,,,,,,,,,107.8627657699999,114.98420572300074,,,,,031321,1,2,1,2,1,1,2,0,44,2021_Mar_13_1442,listening_fmri,3.2.4,59.9902177553541,
0,parcelated_audio/34/34_11.ogg,,,,,,,,,0,0,0,0,0,0,0,0,0,0,0,0,,,,,,,,,,,,,0,0,0,0,0,10,10,10,,,,,,,,,,,,,,,,,,,,,,,,,,,,,,,,,,,,,,,,,,,,,,,,,,,,,,,,,,,,,,,,,,,,,,,,,,,,,,,,,,,,,,,,,,,,,,,,,,,,,114.98457396899994,118.43398633600009,,,,,031321,1,2,1,2,1,1,2,0,44,2021_Mar_13_1442,listening_fmri,3.2.4,59.9902177553541,
0,parcelated_audio/34/34_12.ogg,,,,,,,,,0,0,0,0,0,0,0,0,0,0,0,0,,,,,,,,,,,,,0,0,0,0,0,11,11,11,,,,,,,,,,,,,,,,,,,,,,,,,,,,,,,,,,,,,,,,,,,,,,,,,,,,,,,,,,,,,,,,,,,,,,,,,,,,,,,,,,,,,,,,,,,,,,,,,,,,,118.43456356500064,126.5981014480003,,,,,031321,1,2,1,2,1,1,2,0,44,2021_Mar_13_1442,listening_fmri,3.2.4,59.9902177553541,
0,parcelated_audio/34/34_13.ogg,,,,,,,,,0,0,0,0,0,0,0,0,0,0,0,0,,,,,,,,,,,,,0,0,0,0,0,12,12,12,,,,,,,,,,,,,,,,,,,,,,,,,,,,,,,,,,,,,,,,,,,,,,,,,,,,,,,,,,,,,,,,,,,,,,,,,,,,,,,,,,,,,,,,,,,,,,,,,,,,,126.59845247900012,130.48604283700024,,,,,031321,1,2,1,2,1,1,2,0,44,2021_Mar_13_1442,listening_fmri,3.2.4,59.9902177553541,
0,parcelated_audio/34/34_14.ogg,,,,,,,,,0,0,0,0,0,0,0,0,0,0,0,0,,,,,,,,,,,,,0,0,0,0,0,13,13,13,,,,,,,,,,,,,,,,,,,,,,,,,,,,,,,,,,,,,,,,,,,,,,,,,,,,,,,,,,,,,,,,,,,,,,,,,,,,,,,,,,,,,,,,,,,,,,,,,,,,,130.4864029600003,135.14593158200023,,,,,031321,1,2,1,2,1,1,2,0,44,2021_Mar_13_1442,listening_fmri,3.2.4,59.9902177553541,
0,parcelated_audio/34/34_15.ogg,,,,,,,,,0,0,0,0,0,0,0,0,0,0,0,0,,,,,,,,,,,,,0,0,0,0,0,14,14,14,,,,,,,,,,,,,,,,,,,,,,,,,,,,,,,,,,,,,,,,,,,,,,,,,,,,,,,,,,,,,,,,,,,,,,,,,,,,,,,,,,,,,,,,,,,,,,,,,,,,,135.14666808600032,139.34044440300022,,,,,031321,1,2,1,2,1,1,2,0,44,2021_Mar_13_1442,listening_fmri,3.2.4,59.9902177553541,
0,parcelated_audio/34/34_16.ogg,,,,,,,,,0,0,0,0,0,0,0,0,0,0,0,0,,,,,,,,,,,,,0,0,0,0,0,15,15,15,,,,,,,,,,,,,,,,,,,,,,,,,,,,,,,,,,,,,,,,,,,,,,,,,,,,,,,,,,,,,,,,,,,,,,,,,,,,,,,,,,,,,,,,,,,,,,,,,,,,,139.34080058400014,152.34598957700018,,,,,031321,1,2,1,2,1,1,2,0,44,2021_Mar_13_1442,listening_fmri,3.2.4,59.9902177553541,
0,parcelated_audio/34/34_17.ogg,,,,,,,,,0,0,0,0,0,0,0,0,0,0,0,0,,,,,,,,,,,,,0,0,0,0,0,16,16,16,,,,,,,,,,,,,,,,,,,,,,,,,,,,,,,,,,,,,,,,,,,,,,,,,,,,,,,,,,,,,,,,,,,,,,,,,,,,,,,,,,,,,,,,,,,,,,,,,,,,,152.34646031100056,161.26821976000065,,,,,031321,1,2,1,2,1,1,2,0,44,2021_Mar_13_1442,listening_fmri,3.2.4,59.9902177553541,
0,parcelated_audio/34/34_18.ogg,,,,,,,,,0,0,0,0,0,0,0,0,0,0,0,0,,,,,,,,,,,,,0,0,0,0,0,17,17,17,,,,,,,,,,,,,,,,,,,,,,,,,,,,,,,,,,,,,,,,,,,,,,,,,,,,,,,,,,,,,,,,,,,,,,,,,,,,,,,,,,,,,,,,,,,,,,,,,,,,,161.26857342200037,167.15408435600057,,,,,031321,1,2,1,2,1,1,2,0,44,2021_Mar_13_1442,listening_fmri,3.2.4,59.9902177553541,
0,parcelated_audio/34/34_19.ogg,,,,,,,,,0,0,0,0,0,0,0,0,0,0,0,0,,,,,,,,,,,,,0,0,0,0,0,18,18,18,,,,,,,,,,,,,,,,,,,,,,,,,,,,,,,,,,,,,,,,,,,,,,,,,,,,,,,,,,,,,,,,,,,,,,,,,,,,,,,,,,,,,,,,,,,,,,,,,,,,,167.1544427810004,173.3780296620007,,,,,031321,1,2,1,2,1,1,2,0,44,2021_Mar_13_1442,listening_fmri,3.2.4,59.9902177553541,
0,parcelated_audio/34/34_20.ogg,,,,,,,,,0,0,0,0,0,0,0,0,0,0,0,0,,,,,,,,,,,,,0,0,0,0,0,19,19,19,,,,,,,,,,,,,,,,,,,,,,,,,,,,,,,,,,,,,,,,,,,,,,,,,,,,,,,,,,,,,,,,,,,,,,,,,,,,,,,,,,,,,,,,,,,,,,,,,,,,,173.37860749900028,181.83092030100033,,,,,031321,1,2,1,2,1,1,2,0,44,2021_Mar_13_1442,listening_fmri,3.2.4,59.9902177553541,
0,parcelated_audio/34/34_21.ogg,,,,,,,,,0,0,0,0,0,0,0,0,0,0,0,0,,,,,,,,,,,,,0,0,0,0,0,20,20,20,,,,,,,,,,,,,,,,,,,,,,,,,,,,,,,,,,,,,,,,,,,,,,,,,,,,,,,,,,,,,,,,,,,,,,,,,,,,,,,,,,,,,,,,,,,,,,,,,,,,,181.83127366900044,188.18614091500058,,,,,031321,1,2,1,2,1,1,2,0,44,2021_Mar_13_1442,listening_fmri,3.2.4,59.9902177553541,
0,parcelated_audio/34/34_22.ogg,,,,,,,,,0,0,0,0,0,0,0,0,0,0,0,0,,,,,,,,,,,,,0,0,0,0,0,21,21,21,,,,,,,,,,,,,,,,,,,,,,,,,,,,,,,,,,,,,,,,,,,,,,,,,,,,,,,,,,,,,,,,,,,,,,,,,,,,,,,,,,,,,,,,,,,,,,,,,,,,,188.18645625299996,193.313993062,,,,,031321,1,2,1,2,1,1,2,0,44,2021_Mar_13_1442,listening_fmri,3.2.4,59.9902177553541,
0,parcelated_audio/34/34_23.ogg,,,,,,,,,0,0,0,0,0,0,0,0,0,0,0,0,,,,,,,,,,,,,0,0,0,0,0,22,22,22,,,,,,,,,,,,,,,,,,,,,,,,,,,,,,,,,,,,,,,,,,,,,,,,,,,,,,,,,,,,,,,,,,,,,,,,,,,,,,,,,,,,,,,,,,,,,,,,,,,,,193.31441067700052,201.10180048300026,,,,,031321,1,2,1,2,1,1,2,0,44,2021_Mar_13_1442,listening_fmri,3.2.4,59.9902177553541,
0,parcelated_audio/34/34_24.ogg,,,,,,,,,0,0,0,0,0,0,0,0,0,0,0,0,,,,,,,,,,,,,0,0,0,0,0,23,23,23,,,,,,,,,,,,,,,,,,,,,,,,,,,,,,,,,,,,,,,,,,,,,,,,,,,,,,,,,,,,,,,,,,,,,,,,,,,,,,,,,,,,,,,,,,,,,,,,,,,,,201.10232504600026,206.892511,,,,,031321,1,2,1,2,1,1,2,0,44,2021_Mar_13_1442,listening_fmri,3.2.4,59.9902177553541,
0,parcelated_audio/34/34_25.ogg,,,,,,,,,0,0,0,0,0,0,0,0,0,0,0,0,,,,,,,,,,,,,0,0,0,0,0,24,24,24,,,,,,,,,,,,,,,,,,,,,,,,,,,,,,,,,,,,,,,,,,,,,,,,,,,,,,,,,,,,,,,,,,,,,,,,,,,,,,,,,,,,,,,,,,,,,,,,,,,,,206.89287925100052,213.45217925100042,,,,,031321,1,2,1,2,1,1,2,0,44,2021_Mar_13_1442,listening_fmri,3.2.4,59.9902177553541,
0,parcelated_audio/34/34_26.ogg,,,,,,,,,0,0,0,0,0,0,0,0,0,0,0,0,,,,,,,,,,,,,0,0,0,0,0,25,25,25,,,,,,,,,,,,,,,,,,,,,,,,,,,,,,,,,,,,,,,,,,,,,,,,,,,,,,,,,,,,,,,,,,,,,,,,,,,,,,,,,,,,,,,,,,,,,,,,,,,,,213.45265720800035,223.11281592900013,,,,,031321,1,2,1,2,1,1,2,0,44,2021_Mar_13_1442,listening_fmri,3.2.4,59.9902177553541,
0,parcelated_audio/34/34_27.ogg,,,,,,,,,0,0,0,0,0,0,0,0,0,0,0,0,,,,,,,,,,,,,0,0,0,0,0,26,26,26,,,,,,,,,,,,,,,,,,,,,,,,,,,,,,,,,,,,,,,,,,,,,,,,,,,,,,,,,,,,,,,,,,,,,,,,,,,,,,,,,,,,,,,,,,,,,,,,,,,,,223.11318758900052,230.6152790420001,,,,,031321,1,2,1,2,1,1,2,0,44,2021_Mar_13_1442,listening_fmri,3.2.4,59.9902177553541,
0,,,,,,,,,,0,0,0,0,0,0,0,0,0,0,0,0,,,,,,,,,,,,,0,0,0,0,,,,,,,,,,,,,,,,,,,,,,,,,,,,,,,,,,,,,,,,,,,,,,,,,,,,,,,,,,,,,,,,,,,,,,,,,,,,,,,,,,,,,,,,,,,,,,,,,,,,,,,,,,,,,,,031321,1,2,1,2,1,1,2,0,44,2021_Mar_13_1442,listening_fmri,3.2.4,59.9902177553541,
0,,,,,,,,,,0,0,0,0,0,0,0,0,0,0,0,0,,,,,,,,,,,,,,,,,,,,,,,,,,,,,,,,,,,,,,230.61576833800063,236.61244689600062,273.58509643900015,None,,,,,,,,,,,,,,,,,,,,,,,,,,,,,,,,,,,,,,,,,,,,,,,,,,,,,,,,,,,,,,,,,,,,,,,,,,,,,,,,,,279.5851715709996,None,279.5851715709996,None,031321,1,2,1,2,1,1,2,0,44,2021_Mar_13_1442,listening_fmri,3.2.4,59.9902177553541,
0,,,,,,,,,,0,0,0,0,0,0,0,0,,,,,,,,,,,,,,,,,,,,,,,,,,,,,,,,,,,,,,,,,,,,,,,,,,,,,,,,,,,,,,,,,,,,,,,,,,,,,,,,,,,,,,,,,,,,,,,,,,,,,,,,,,,,,,,,,,,,,,,,,,,,,,,,,,,031321,1,2,1,2,1,1,2,0,44,2021_Mar_13_1442,listening_fmri,3.2.4,59.9902177553541,
1,,,,,,,,,,0,0,0,0,0,1,1,1,0,0,0,0,0,0,0,0,0,0,0,0,,,,,,,,,,,,,,,,,,,,,,,,,,,,,,,,,,280.58552688799955,None,280.58552688799955,None,2,1.0504120800005694,280.58552688799955,None,280.58552688799955,None,281.6523413109999,None,2,1.5255863760003194,281.6523413109999,None,281.6523413109999,None,283.2191169540001,None,283.2191169540001,None,283.2191169540001,None,2,1.6387973820001207,283.2191169540001,None,284.8855132239996,None,2,2.2763184360001105,284.8855132239996,None,284.8855132239996,None,287.2682267529999,None,287.2682267529999,None,287.2682267529999,None,287.2682267529999,None,287.2682267529999,None,287.2682267529999,None,287.2682267529999,None,None,287.2682267529999,None,,,,,,,,,,,,,,,,,,,,,,,,,,,,,,,,,031321,1,2,1,2,1,1,2,0,44,2021_Mar_13_1442,listening_fmri,3.2.4,59.9902177553541,
1,,,,,,,,,,0,0,0,0,0,1,1,1,0,0,0,0,0,0,0,0,,,,,,,,,,,,,,,,,,,,,,,,,,,,,,,,,,,,,,,,,,,,,,,,,,,,,,,,,,,,,,,,,,,,,,,,,,,,,,,,,,,,,,,,,,,301.20210401199984,None,2,1.4687223259998063,301.20210401199984,None,301.20210401199984,None,302.7187286819999,None,302.7187286819999,None,302.7187286819999,None,2,1.2691207329999088,302.7187286819999,None,,,,,,,,,,,,,,,031321,1,2,1,2,1,1,2,0,44,2021_Mar_13_1442,listening_fmri,3.2.4,59.9902177553541,
1,parcelated_audio/21/21_1.ogg,,,,,,,,,0,0,0,0,0,1,1,1,0,0,0,0,,,,,,,,,,,,,0,0,0,0,0,0,0,0,,,,,,,,,,,,,,,,,,,,,,,,,,,,,,,,,,,,,,,,,,,,,,,,,,,,,,,,,,,,,,,,,,,,,,,,,,,,,,,,,,,,,,,,,,,,,304.0186714450001,None,2,1.0951980070003628,304.0186714450001,None,262.1919687210002,265.19510197599993,265.20104840100066,279.4753541250002,,,,,031321,1,2,1,2,1,1,2,0,44,2021_Mar_13_1442,listening_fmri,3.2.4,59.9902177553541,
1,parcelated_audio/21/21_2.ogg,,,,,,,,,0,0,0,0,0,1,1,1,0,0,0,0,,,,,,,,,,,,,0,0,0,0,0,1,1,1,,,,,,,,,,,,,,,,,,,,,,,,,,,,,,,,,,,,,,,,,,,,,,,,,,,,,,,,,,,,,,,,,,,,,,,,,,,,,,,,,,,,,,,,,,,,,,,,,,,,,279.4757072430002,286.9111455400007,,,,,031321,1,2,1,2,1,1,2,0,44,2021_Mar_13_1442,listening_fmri,3.2.4,59.9902177553541,
1,parcelated_audio/21/21_3.ogg,,,,,,,,,0,0,0,0,0,1,1,1,0,0,0,0,,,,,,,,,,,,,0,0,0,0,0,2,2,2,,,,,,,,,,,,,,,,,,,,,,,,,,,,,,,,,,,,,,,,,,,,,,,,,,,,,,,,,,,,,,,,,,,,,,,,,,,,,,,,,,,,,,,,,,,,,,,,,,,,,286.91183593999995,294.6070952760001,,,,,031321,1,2,1,2,1,1,2,0,44,2021_Mar_13_1442,listening_fmri,3.2.4,59.9902177553541,
1,parcelated_audio/21/21_4.ogg,,,,,,,,,0,0,0,0,0,1,1,1,0,0,0,0,,,,,,,,,,,,,0,0,0,0,0,3,3,3,,,,,,,,,,,,,,,,,,,,,,,,,,,,,,,,,,,,,,,,,,,,,,,,,,,,,,,,,,,,,,,,,,,,,,,,,,,,,,,,,,,,,,,,,,,,,,,,,,,,,294.60744743800024,305.64720650800064,,,,,031321,1,2,1,2,1,1,2,0,44,2021_Mar_13_1442,listening_fmri,3.2.4,59.9902177553541,
1,parcelated_audio/21/21_5.ogg,,,,,,,,,0,0,0,0,0,1,1,1,0,0,0,0,,,,,,,,,,,,,0,0,0,0,0,4,4,4,,,,,,,,,,,,,,,,,,,,,,,,,,,,,,,,,,,,,,,,,,,,,,,,,,,,,,,,,,,,,,,,,,,,,,,,,,,,,,,,,,,,,,,,,,,,,,,,,,,,,305.6475715960005,310.70844612100063,,,,,031321,1,2,1,2,1,1,2,0,44,2021_Mar_13_1442,listening_fmri,3.2.4,59.9902177553541,
1,parcelated_audio/21/21_6.ogg,,,,,,,,,0,0,0,0,0,1,1,1,0,0,0,0,,,,,,,,,,,,,0,0,0,0,0,5,5,5,,,,,,,,,,,,,,,,,,,,,,,,,,,,,,,,,,,,,,,,,,,,,,,,,,,,,,,,,,,,,,,,,,,,,,,,,,,,,,,,,,,,,,,,,,,,,,,,,,,,,310.70986615900074,318.87131113099986,,,,,031321,1,2,1,2,1,1,2,0,44,2021_Mar_13_1442,listening_fmri,3.2.4,59.9902177553541,
1,parcelated_audio/21/21_7.ogg,,,,,,,,,0,0,0,0,0,1,1,1,0,0,0,0,,,,,,,,,,,,,0,0,0,0,0,6,6,6,,,,,,,,,,,,,,,,,,,,,,,,,,,,,,,,,,,,,,,,,,,,,,,,,,,,,,,,,,,,,,,,,,,,,,,,,,,,,,,,,,,,,,,,,,,,,,,,,,,,,318.87166946900015,323.3859575000006,,,,,031321,1,2,1,2,1,1,2,0,44,2021_Mar_13_1442,listening_fmri,3.2.4,59.9902177553541,
1,parcelated_audio/21/21_8.ogg,,,,,,,,,0,0,0,0,0,1,1,1,0,0,0,0,,,,,,,,,,,,,0,0,0,0,0,7,7,7,,,,,,,,,,,,,,,,,,,,,,,,,,,,,,,,,,,,,,,,,,,,,,,,,,,,,,,,,,,,,,,,,,,,,,,,,,,,,,,,,,,,,,,,,,,,,,,,,,,,,323.38631719600016,334.2790315660004,,,,,031321,1,2,1,2,1,1,2,0,44,2021_Mar_13_1442,listening_fmri,3.2.4,59.9902177553541,
1,parcelated_audio/21/21_9.ogg,,,,,,,,,0,0,0,0,0,1,1,1,0,0,0,0,,,,,,,,,,,,,0,0,0,0,0,8,8,8,,,,,,,,,,,,,,,,,,,,,,,,,,,,,,,,,,,,,,,,,,,,,,,,,,,,,,,,,,,,,,,,,,,,,,,,,,,,,,,,,,,,,,,,,,,,,,,,,,,,,334.2794506800001,341.670164569,,,,,031321,1,2,1,2,1,1,2,0,44,2021_Mar_13_1442,listening_fmri,3.2.4,59.9902177553541,
1,parcelated_audio/21/21_10.ogg,,,,,,,,,0,0,0,0,0,1,1,1,0,0,0,0,,,,,,,,,,,,,0,0,0,0,0,9,9,9,,,,,,,,,,,,,,,,,,,,,,,,,,,,,,,,,,,,,,,,,,,,,,,,,,,,,,,,,,,,,,,,,,,,,,,,,,,,,,,,,,,,,,,,,,,,,,,,,,,,,341.6705322200005,348.521833025,,,,,031321,1,2,1,2,1,1,2,0,44,2021_Mar_13_1442,listening_fmri,3.2.4,59.9902177553541,
1,parcelated_audio/21/21_11.ogg,,,,,,,,,0,0,0,0,0,1,1,1,0,0,0,0,,,,,,,,,,,,,0,0,0,0,0,10,10,10,,,,,,,,,,,,,,,,,,,,,,,,,,,,,,,,,,,,,,,,,,,,,,,,,,,,,,,,,,,,,,,,,,,,,,,,,,,,,,,,,,,,,,,,,,,,,,,,,,,,,348.5222487690007,355.6177635160002,,,,,031321,1,2,1,2,1,1,2,0,44,2021_Mar_13_1442,listening_fmri,3.2.4,59.9902177553541,
1,parcelated_audio/21/21_12.ogg,,,,,,,,,0,0,0,0,0,1,1,1,0,0,0,0,,,,,,,,,,,,,0,0,0,0,0,11,11,11,,,,,,,,,,,,,,,,,,,,,,,,,,,,,,,,,,,,,,,,,,,,,,,,,,,,,,,,,,,,,,,,,,,,,,,,,,,,,,,,,,,,,,,,,,,,,,,,,,,,,355.61829264800053,363.9179973099999,,,,,031321,1,2,1,2,1,1,2,0,44,2021_Mar_13_1442,listening_fmri,3.2.4,59.9902177553541,
1,parcelated_audio/21/21_13.ogg,,,,,,,,,0,0,0,0,0,1,1,1,0,0,0,0,,,,,,,,,,,,,0,0,0,0,0,12,12,12,,,,,,,,,,,,,,,,,,,,,,,,,,,,,,,,,,,,,,,,,,,,,,,,,,,,,,,,,,,,,,,,,,,,,,,,,,,,,,,,,,,,,,,,,,,,,,,,,,,,,363.9183564969999,367.26182753800003,,,,,031321,1,2,1,2,1,1,2,0,44,2021_Mar_13_1442,listening_fmri,3.2.4,59.9902177553541,
1,parcelated_audio/21/21_14.ogg,,,,,,,,,0,0,0,0,0,1,1,1,0,0,0,0,,,,,,,,,,,,,0,0,0,0,0,13,13,13,,,,,,,,,,,,,,,,,,,,,,,,,,,,,,,,,,,,,,,,,,,,,,,,,,,,,,,,,,,,,,,,,,,,,,,,,,,,,,,,,,,,,,,,,,,,,,,,,,,,,367.26273150900033,372.6699966220003,,,,,031321,1,2,1,2,1,1,2,0,44,2021_Mar_13_1442,listening_fmri,3.2.4,59.9902177553541,
1,parcelated_audio/21/21_15.ogg,,,,,,,,,0,0,0,0,0,1,1,1,0,0,0,0,,,,,,,,,,,,,0,0,0,0,0,14,14,14,,,,,,,,,,,,,,,,,,,,,,,,,,,,,,,,,,,,,,,,,,,,,,,,,,,,,,,,,,,,,,,,,,,,,,,,,,,,,,,,,,,,,,,,,,,,,,,,,,,,,372.6703047990004,379.4791638730003,,,,,031321,1,2,1,2,1,1,2,0,44,2021_Mar_13_1442,listening_fmri,3.2.4,59.9902177553541,
1,parcelated_audio/21/21_16.ogg,,,,,,,,,0,0,0,0,0,1,1,1,0,0,0,0,,,,,,,,,,,,,0,0,0,0,0,15,15,15,,,,,,,,,,,,,,,,,,,,,,,,,,,,,,,,,,,,,,,,,,,,,,,,,,,,,,,,,,,,,,,,,,,,,,,,,,,,,,,,,,,,,,,,,,,,,,,,,,,,,379.4795092280001,385.54223892900063,,,,,031321,1,2,1,2,1,1,2,0,44,2021_Mar_13_1442,listening_fmri,3.2.4,59.9902177553541,
1,parcelated_audio/21/21_17.ogg,,,,,,,,,0,0,0,0,0,1,1,1,0,0,0,0,,,,,,,,,,,,,0,0,0,0,0,16,16,16,,,,,,,,,,,,,,,,,,,,,,,,,,,,,,,,,,,,,,,,,,,,,,,,,,,,,,,,,,,,,,,,,,,,,,,,,,,,,,,,,,,,,,,,,,,,,,,,,,,,,385.5425968770005,387.7055945080001,,,,,031321,1,2,1,2,1,1,2,0,44,2021_Mar_13_1442,listening_fmri,3.2.4,59.9902177553541,
1,parcelated_audio/21/21_18.ogg,,,,,,,,,0,0,0,0,0,1,1,1,0,0,0,0,,,,,,,,,,,,,0,0,0,0,0,17,17,17,,,,,,,,,,,,,,,,,,,,,,,,,,,,,,,,,,,,,,,,,,,,,,,,,,,,,,,,,,,,,,,,,,,,,,,,,,,,,,,,,,,,,,,,,,,,,,,,,,,,,387.70600250999996,400.8537704119999,,,,,031321,1,2,1,2,1,1,2,0,44,2021_Mar_13_1442,listening_fmri,3.2.4,59.9902177553541,
1,parcelated_audio/21/21_19.ogg,,,,,,,,,0,0,0,0,0,1,1,1,0,0,0,0,,,,,,,,,,,,,0,0,0,0,0,18,18,18,,,,,,,,,,,,,,,,,,,,,,,,,,,,,,,,,,,,,,,,,,,,,,,,,,,,,,,,,,,,,,,,,,,,,,,,,,,,,,,,,,,,,,,,,,,,,,,,,,,,,400.8541204000003,403.729092865,,,,,031321,1,2,1,2,1,1,2,0,44,2021_Mar_13_1442,listening_fmri,3.2.4,59.9902177553541,
1,parcelated_audio/21/21_20.ogg,,,,,,,,,0,0,0,0,0,1,1,1,0,0,0,0,,,,,,,,,,,,,0,0,0,0,0,19,19,19,,,,,,,,,,,,,,,,,,,,,,,,,,,,,,,,,,,,,,,,,,,,,,,,,,,,,,,,,,,,,,,,,,,,,,,,,,,,,,,,,,,,,,,,,,,,,,,,,,,,,403.7295123170006,412.45625218400073,,,,,031321,1,2,1,2,1,1,2,0,44,2021_Mar_13_1442,listening_fmri,3.2.4,59.9902177553541,
1,parcelated_audio/21/21_21.ogg,,,,,,,,,0,0,0,0,0,1,1,1,0,0,0,0,,,,,,,,,,,,,0,0,0,0,0,20,20,20,,,,,,,,,,,,,,,,,,,,,,,,,,,,,,,,,,,,,,,,,,,,,,,,,,,,,,,,,,,,,,,,,,,,,,,,,,,,,,,,,,,,,,,,,,,,,,,,,,,,,412.45660549700006,423.5051203769999,,,,,031321,1,2,1,2,1,1,2,0,44,2021_Mar_13_1442,listening_fmri,3.2.4,59.9902177553541,
1,parcelated_audio/21/21_22.ogg,,,,,,,,,0,0,0,0,0,1,1,1,0,0,0,0,,,,,,,,,,,,,0,0,0,0,0,21,21,21,,,,,,,,,,,,,,,,,,,,,,,,,,,,,,,,,,,,,,,,,,,,,,,,,,,,,,,,,,,,,,,,,,,,,,,,,,,,,,,,,,,,,,,,,,,,,,,,,,,,,423.5054857320001,434.40200477300004,,,,,031321,1,2,1,2,1,1,2,0,44,2021_Mar_13_1442,listening_fmri,3.2.4,59.9902177553541,
1,parcelated_audio/21/21_23.ogg,,,,,,,,,0,0,0,0,0,1,1,1,0,0,0,0,,,,,,,,,,,,,0,0,0,0,0,22,22,22,,,,,,,,,,,,,,,,,,,,,,,,,,,,,,,,,,,,,,,,,,,,,,,,,,,,,,,,,,,,,,,,,,,,,,,,,,,,,,,,,,,,,,,,,,,,,,,,,,,,,434.4024641220003,439.37227468699984,,,,,031321,1,2,1,2,1,1,2,0,44,2021_Mar_13_1442,listening_fmri,3.2.4,59.9902177553541,
1,parcelated_audio/21/21_24.ogg,,,,,,,,,0,0,0,0,0,1,1,1,0,0,0,0,,,,,,,,,,,,,0,0,0,0,0,23,23,23,,,,,,,,,,,,,,,,,,,,,,,,,,,,,,,,,,,,,,,,,,,,,,,,,,,,,,,,,,,,,,,,,,,,,,,,,,,,,,,,,,,,,,,,,,,,,,,,,,,,,439.372629255,443.957291103,,,,,031321,1,2,1,2,1,1,2,0,44,2021_Mar_13_1442,listening_fmri,3.2.4,59.9902177553541,
1,parcelated_audio/21/21_25.ogg,,,,,,,,,0,0,0,0,0,1,1,1,0,0,0,0,,,,,,,,,,,,,0,0,0,0,0,24,24,24,,,,,,,,,,,,,,,,,,,,,,,,,,,,,,,,,,,,,,,,,,,,,,,,,,,,,,,,,,,,,,,,,,,,,,,,,,,,,,,,,,,,,,,,,,,,,,,,,,,,,443.95789690499987,453.39813280900034,,,,,031321,1,2,1,2,1,1,2,0,44,2021_Mar_13_1442,listening_fmri,3.2.4,59.9902177553541,
1,parcelated_audio/21/21_26.ogg,,,,,,,,,0,0,0,0,0,1,1,1,0,0,0,0,,,,,,,,,,,,,0,0,0,0,0,25,25,25,,,,,,,,,,,,,,,,,,,,,,,,,,,,,,,,,,,,,,,,,,,,,,,,,,,,,,,,,,,,,,,,,,,,,,,,,,,,,,,,,,,,,,,,,,,,,,,,,,,,,453.39849581100043,457.41196922700055,,,,,031321,1,2,1,2,1,1,2,0,44,2021_Mar_13_1442,listening_fmri,3.2.4,59.9902177553541,
1,parcelated_audio/21/21_27.ogg,,,,,,,,,0,0,0,0,0,1,1,1,0,0,0,0,,,,,,,,,,,,,0,0,0,0,0,26,26,26,,,,,,,,,,,,,,,,,,,,,,,,,,,,,,,,,,,,,,,,,,,,,,,,,,,,,,,,,,,,,,,,,,,,,,,,,,,,,,,,,,,,,,,,,,,,,,,,,,,,,457.41232652100007,464.60434835400065,,,,,031321,1,2,1,2,1,1,2,0,44,2021_Mar_13_1442,listening_fmri,3.2.4,59.9902177553541,
1,parcelated_audio/21/21_28.ogg,,,,,,,,,0,0,0,0,0,1,1,1,0,0,0,0,,,,,,,,,,,,,0,0,0,0,0,27,27,27,,,,,,,,,,,,,,,,,,,,,,,,,,,,,,,,,,,,,,,,,,,,,,,,,,,,,,,,,,,,,,,,,,,,,,,,,,,,,,,,,,,,,,,,,,,,,,,,,,,,,464.6048366470004,470.7217580730003,,,,,031321,1,2,1,2,1,1,2,0,44,2021_Mar_13_1442,listening_fmri,3.2.4,59.9902177553541,
1,parcelated_audio/21/21_29.ogg,,,,,,,,,0,0,0,0,0,1,1,1,0,0,0,0,,,,,,,,,,,,,0,0,0,0,0,28,28,28,,,,,,,,,,,,,,,,,,,,,,,,,,,,,,,,,,,,,,,,,,,,,,,,,,,,,,,,,,,,,,,,,,,,,,,,,,,,,,,,,,,,,,,,,,,,,,,,,,,,,470.72211566900023,474.98214822200043,,,,,031321,1,2,1,2,1,1,2,0,44,2021_Mar_13_1442,listening_fmri,3.2.4,59.9902177553541,
1,parcelated_audio/21/21_30.ogg,,,,,,,,,0,0,0,0,0,1,1,1,0,0,0,0,,,,,,,,,,,,,0,0,0,0,0,29,29,29,,,,,,,,,,,,,,,,,,,,,,,,,,,,,,,,,,,,,,,,,,,,,,,,,,,,,,,,,,,,,,,,,,,,,,,,,,,,,,,,,,,,,,,,,,,,,,,,,,,,,474.98272432700014,480.2447099660003,,,,,031321,1,2,1,2,1,1,2,0,44,2021_Mar_13_1442,listening_fmri,3.2.4,59.9902177553541,
1,,,,,,,,,,0,0,0,0,0,1,1,1,0,0,0,0,,,,,,,,,,,,,0,0,0,0,,,,,,,,,,,,,,,,,,,,,,,,,,,,,,,,,,,,,,,,,,,,,,,,,,,,,,,,,,,,,,,,,,,,,,,,,,,,,,,,,,,,,,,,,,,,,,,,,,,,,,,,,,,,,,,031321,1,2,1,2,1,1,2,0,44,2021_Mar_13_1442,listening_fmri,3.2.4,59.9902177553541,
1,,,,,,,,,,0,0,0,0,0,1,1,1,0,0,0,0,,,,,,,,,,,,,,,,,,,,,,,,,,,,,,,,,,,,,,480.2452349820005,486.2407181870003,523.2191911310001,None,,,,,,,,,,,,,,,,,,,,,,,,,,,,,,,,,,,,,,,,,,,,,,,,,,,,,,,,,,,,,,,,,,,,,,,,,,,,,,,,,,529.2194505090001,None,529.2194505090001,None,031321,1,2,1,2,1,1,2,0,44,2021_Mar_13_1442,listening_fmri,3.2.4,59.9902177553541,
1,,,,,,,,,,0,0,0,0,0,1,1,1,,,,,,,,,,,,,,,,,,,,,,,,,,,,,,,,,,,,,,,,,,,,,,,,,,,,,,,,,,,,,,,,,,,,,,,,,,,,,,,,,,,,,,,,,,,,,,,,,,,,,,,,,,,,,,,,,,,,,,,,,,,,,,,,,,,031321,1,2,1,2,1,1,2,0,44,2021_Mar_13_1442,listening_fmri,3.2.4,59.9902177553541,
