instruct_text,count,Q1,Q2,Q3,Q4,D1,D2,roleName,rolePic,instruct1.thisRepN,instruct1.thisTrialN,instruct1.thisN,instruct1.thisIndex,instruct3.thisRepN,instruct3.thisTrialN,instruct3.thisN,instruct3.thisIndex,instruct4.thisRepN,instruct4.thisTrialN,instruct4.thisN,instruct4.thisIndex,instruct5.thisRepN,instruct5.thisTrialN,instruct5.thisN,instruct5.thisIndex,count_4.thisRepN,count_4.thisTrialN,count_4.thisN,count_4.thisIndex,trials_5.thisRepN,trials_5.thisTrialN,trials_5.thisN,trials_5.thisIndex,instruct6.thisRepN,instruct6.thisTrialN,instruct6.thisN,instruct6.thisIndex,trials.thisRepN,trials.thisTrialN,trials.thisN,trials.thisIndex,trials_2.thisRepN,trials_2.thisTrialN,trials_2.thisN,trials_2.thisIndex,trials_4.thisRepN,trials_4.thisTrialN,trials_4.thisN,trials_4.thisIndex,trials_3.thisRepN,trials_3.thisTrialN,trials_3.thisN,trials_3.thisIndex,text.started,text.stopped,key_resp.keys,key_resp.rt,key_resp.started,key_resp.stopped,key_resp_6.keys,key_resp_6.rt,key_resp_6.started,key_resp_6.stopped,text_12.started,text_12.stopped,image_11.started,image_11.stopped,image_12.started,image_12.stopped,text_17.started,text_17.stopped,key_resp_7.keys,key_resp_7.rt,key_resp_7.started,key_resp_7.stopped,text_18.started,text_18.stopped,image_9.started,image_9.stopped,key_resp_14.keys,key_resp_14.rt,key_resp_14.started,key_resp_14.stopped,text_8.started,text_8.stopped,text_9.started,text_9.stopped,image_5.started,image_5.stopped,key_resp_10.keys,key_resp_10.rt,key_resp_10.started,key_resp_10.stopped,text_10.started,text_10.stopped,text_11.started,text_11.stopped,image_6.started,image_6.stopped,key_resp_11.keys,key_resp_11.rt,key_resp_11.started,key_resp_11.stopped,text_13.started,text_13.stopped,text_14.started,text_14.stopped,image_7.started,image_7.stopped,key_resp_12.keys,key_resp_12.rt,key_resp_12.started,key_resp_12.stopped,text_15.started,text_15.stopped,text_16.started,text_16.stopped,image_8.started,image_8.stopped,key_resp_13.keys,key_resp_13.rt,key_resp_13.started,key_resp_13.stopped,text_5.started,text_5.stopped,key_resp_4.keys,key_resp_4.rt,key_resp_4.started,key_resp_4.stopped,question1_2.started,question1_2.stopped,question2_2.started,question2_2.stopped,question3_2.started,question3_2.stopped,question4_2.started,question4_2.stopped,question5_2.started,question5_2.stopped,question6_2.started,question6_2.stopped,image_3.started,image_3.stopped,text_3.started,text_3.stopped,image_2.started,image_2.stopped,key_resp_3.keys,key_resp_3.rt,key_resp_3.started,key_resp_3.stopped,text_4.started,text_4.stopped,question1_3.started,question1_3.stopped,question2_3.started,question2_3.stopped,question3_3.started,question3_3.stopped,question4_3.started,question4_3.stopped,question5_3.started,question5_3.stopped,question6_3.started,question6_3.stopped,image_4.started,image_4.stopped,text_2.started,text_2.stopped,participant,sA,sB,lA,lB,date,expName,psychopyVersion,frameRate,
Welcome to the job simulator task! ,,,,,,,,,,0,0,0,0,,,,,,,,,,,,,,,,,,,,,,,,,,,,,,,,,,,,,,,,,26.62520031300005,None,space,2.894478452000044,26.62520031300005,None,,,,,,,,,,,,,,,,,,,,,,,,,,,,,,,,,,,,,,,,,,,,,,,,,,,,,,,,,,,,,,,,,,,,,,,,,,,,,,,,,,,,,,,,,,,,,,,,,,,,,,,,,,,,,,,090321,1,2,2,3,2021_Sep_03_1039,training_fmri,3.2.4,59.92153155598619,
In this experiment you will listen to 12 short stories. ,,,,,,,,,,0,1,1,1,,,,,,,,,,,,,,,,,,,,,,,,,,,,,,,,,,,,,,,,,29.577339206000033,None,space,3.1509978610000644,29.577339206000033,None,,,,,,,,,,,,,,,,,,,,,,,,,,,,,,,,,,,,,,,,,,,,,,,,,,,,,,,,,,,,,,,,,,,,,,,,,,,,,,,,,,,,,,,,,,,,,,,,,,,,,,,,,,,,,,,090321,1,2,2,3,2021_Sep_03_1039,training_fmri,3.2.4,59.92153155598619,
"During some of these stories, we will ask you to take on the perspective of a type of job. ",,,,,,,,,,0,2,2,2,,,,,,,,,,,,,,,,,,,,,,,,,,,,,,,,,,,,,,,,,32.77572787400004,None,space,4.520758577000038,32.77572787400004,None,,,,,,,,,,,,,,,,,,,,,,,,,,,,,,,,,,,,,,,,,,,,,,,,,,,,,,,,,,,,,,,,,,,,,,,,,,,,,,,,,,,,,,,,,,,,,,,,,,,,,,,,,,,,,,,090321,1,2,2,3,2021_Sep_03_1039,training_fmri,3.2.4,59.92153155598619,
"In other words, you should try to listen to the story from the perspective of that job. This is called “job simulation.”",,,,,,,,,,0,3,3,3,,,,,,,,,,,,,,,,,,,,,,,,,,,,,,,,,,,,,,,,,37.342251162000025,None,space,5.681209502999991,37.342251162000025,None,,,,,,,,,,,,,,,,,,,,,,,,,,,,,,,,,,,,,,,,,,,,,,,,,,,,,,,,,,,,,,,,,,,,,,,,,,,,,,,,,,,,,,,,,,,,,,,,,,,,,,,,,,,,,,,090321,1,2,2,3,2021_Sep_03_1039,training_fmri,3.2.4,59.92153155598619,
You will be told the job to simulate before each story. ,,,,,,,,,,0,4,4,4,,,,,,,,,,,,,,,,,,,,,,,,,,,,,,,,,,,,,,,,,43.05843688900006,None,space,3.6050779099999772,43.05843688900006,None,,,,,,,,,,,,,,,,,,,,,,,,,,,,,,,,,,,,,,,,,,,,,,,,,,,,,,,,,,,,,,,,,,,,,,,,,,,,,,,,,,,,,,,,,,,,,,,,,,,,,,,,,,,,,,,090321,1,2,2,3,2021_Sep_03_1039,training_fmri,3.2.4,59.92153155598619,
"Some stories, however, will not have any job assigned to them, and you can simply listen to the story.",,,,,,,,,,,,,,0,0,0,0,,,,,,,,,,,,,,,,,,,,,,,,,,,,,,,,,,,,,46.72620680400007,None,space,4.432172180000066,46.72620680400007,None,,,,,,,,,,,,,,,,,,,,,,,,,,,,,,,,,,,,,,,,,,,,,,,,,,,,,,,,,,,,,,,,,,,,,,,,,,,,,,,,,,,,,,,,,,,,,,,,,,,,,,,,,,,,,,,090321,1,2,2,3,2021_Sep_03_1039,training_fmri,3.2.4,59.92153155598619,
"In this part of the experiment outside of the scanner, we will introduce you to four perspectives you will be asked to take on.",,,,,,,,,,,,,,0,1,1,1,,,,,,,,,,,,,,,,,,,,,,,,,,,,,,,,,,,,,51.20847747799996,None,space,6.065664802000015,51.20847747799996,None,,,,,,,,,,,,,,,,,,,,,,,,,,,,,,,,,,,,,,,,,,,,,,,,,,,,,,,,,,,,,,,,,,,,,,,,,,,,,,,,,,,,,,,,,,,,,,,,,,,,,,,,,,,,,,,090321,1,2,2,3,2021_Sep_03_1039,training_fmri,3.2.4,59.92153155598619,
"For each perspective, you'll also learn 4 questions associated with it to use when listening to a story.",,,,,,,,,,,,,,0,2,2,2,,,,,,,,,,,,,,,,,,,,,,,,,,,,,,,,,,,,,57.30827298400004,None,space,5.646252767000078,57.30827298400004,None,,,,,,,,,,,,,,,,,,,,,,,,,,,,,,,,,,,,,,,,,,,,,,,,,,,,,,,,,,,,,,,,,,,,,,,,,,,,,,,,,,,,,,,,,,,,,,,,,,,,,,,,,,,,,,,090321,1,2,2,3,2021_Sep_03_1039,training_fmri,3.2.4,59.92153155598619,
We encourage you to keep these questions in mind while listening to the story and simulating the associated perspective.,,,,,,,,,,,,,,,,,,0,0,0,0,,,,,,,,,,,,,,,,,,,,,,,,,,,,,,,,,62.99223131200006,None,space,6.014692320999984,62.99223131200006,None,,,,,,,,,,,,,,,,,,,,,,,,,,,,,,,,,,,,,,,,,,,,,,,,,,,,,,,,,,,,,,,,,,,,,,,,,,,,,,,,,,,,,,,,,,,,,,,,,,,,,,,,,,,,,,,090321,1,2,2,3,2021_Sep_03_1039,training_fmri,3.2.4,59.92153155598619,
"When you are in the scanner, you will listen to the 12 short stories.",,,,,,,,,,,,,,,,,,0,1,1,1,,,,,,,,,,,,,,,,,,,,,,,,,,,,,,,,,69.04224345800003,None,space,3.0832875140000624,69.04224345800003,None,,,,,,,,,,,,,,,,,,,,,,,,,,,,,,,,,,,,,,,,,,,,,,,,,,,,,,,,,,,,,,,,,,,,,,,,,,,,,,,,,,,,,,,,,,,,,,,,,,,,,,,,,,,,,,,090321,1,2,2,3,2021_Sep_03_1039,training_fmri,3.2.4,59.92153155598619,
,,,,,,,,,,,,,,,,,,,,,,,,,,,,,,,,,,,,,,,,,,,,,,,,,,,,,,,,,,,,space,9.151648754999997,72.15894871399996,None,,,,,,,,,,,,,,,,,,,,,,,,,,,,,,,,,,,,,,,,,,,,,,,,,,,,,,,,,,,,,,,,,,,,,,,,,,,,,,,,,,,,,,,,,,,,,,,,,,,,,,,,,,,090321,1,2,2,3,2021_Sep_03_1039,training_fmri,3.2.4,59.92153155598619,
"Before listening to each story, you may be assigned one of the perspectives to take on while listening to it.",,,,,,,,,,,,,,,,,,,,,,0,0,0,0,,,,,,,,,,,,,,,,,,,,,,,,,,,,,81.35797680799999,None,space,5.462991379000073,81.35797680799999,None,,,,,72.15894871399996,None,72.15894871399996,None,,,,,,,,,,,,,,,,,,,,,,,,,,,,,,,,,,,,,,,,,,,,,,,,,,,,,,,,,,,,,,,,,,,,,,,,,,,,,,,,,,,,,,,,,,,,,,,,,,,,,,,090321,1,2,2,3,2021_Sep_03_1039,training_fmri,3.2.4,59.92153155598619,
"If a perspective is assigned, you’ll be quizzed on the 4 questions associated with it before listening.",,,,,,,,,,,,,,,,,,,,,,0,1,1,1,,,,,,,,,,,,,,,,,,,,,,,,,,,,,86.85836984000002,None,space,5.381585806999965,86.85836984000002,None,,,,,,,,,,,,,,,,,,,,,,,,,,,,,,,,,,,,,,,,,,,,,,,,,,,,,,,,,,,,,,,,,,,,,,,,,,,,,,,,,,,,,,,,,,,,,,,,,,,,,,,,,,,,,,,090321,1,2,2,3,2021_Sep_03_1039,training_fmri,3.2.4,59.92153155598619,
You must pass this quiz to move on to the story.,,,,,,,,,,,,,,,,,,,,,,0,2,2,2,,,,,,,,,,,,,,,,,,,,,,,,,,,,,92.25808688000006,None,space,3.3766167280000445,92.25808688000006,None,,,,,,,,,,,,,,,,,,,,,,,,,,,,,,,,,,,,,,,,,,,,,,,,,,,,,,,,,,,,,,,,,,,,,,,,,,,,,,,,,,,,,,,,,,,,,,,,,,,,,,,,,,,,,,,090321,1,2,2,3,2021_Sep_03_1039,training_fmri,3.2.4,59.92153155598619,
"There will be additional tasks after the story listening, but we will explain them when we come to them.",,,,,,,,,,,,,,,,,,,,,,0,3,3,3,,,,,,,,,,,,,,,,,,,,,,,,,,,,,95.67540528699999,None,space,5.7559051350000345,95.67540528699999,None,,,,,,,,,,,,,,,,,,,,,,,,,,,,,,,,,,,,,,,,,,,,,,,,,,,,,,,,,,,,,,,,,,,,,,,,,,,,,,,,,,,,,,,,,,,,,,,,,,,,,,,,,,,,,,,090321,1,2,2,3,2021_Sep_03_1039,training_fmri,3.2.4,59.92153155598619,
Are you reading to begin the training on the perspectives?,,,,,,,,,,,,,,,,,,,,,,0,4,4,4,,,,,,,,,,,,,,,,,,,,,,,,,,,,,101.47490826299997,None,space,3.9127920799999174,101.47490826299997,None,,,,,,,,,,,,,,,,,,,,,,,,,,,,,,,,,,,,,,,,,,,,,,,,,,,,,,,,,,,,,,,,,,,,,,,,,,,,,,,,,,,,,,,,,,,,,,,,,,,,,,,,,,,,,,,090321,1,2,2,3,2021_Sep_03_1039,training_fmri,3.2.4,59.92153155598619,
The four perspectives are as follows:,,,,,,,,,,,,,,,,,,,,,,0,5,5,5,,,,,,,,,,,,,,,,,,,,,,,,,,,,,105.407341159,None,space,1.5863118859999759,105.407341159,None,,,,,,,,,,,,,,,,,,,,,,,,,,,,,,,,,,,,,,,,,,,,,,,,,,,,,,,,,,,,,,,,,,,,,,,,,,,,,,,,,,,,,,,,,,,,,,,,,,,,,,,,,,,,,,,090321,1,2,2,3,2021_Sep_03_1039,training_fmri,3.2.4,59.92153155598619,
,1,What is each business person’s job title?,"How much money is at stake in the initial offer made?
",What is the name of the other industry competitor? ,With what gesture do the business partners secure the deal?,What is each business person’s salary?,How much money is at stake in the final offer made?,Business Reporter,jobphotos/business_reporter.jpg,,,,,,,,,,,,,,,,,0,0,0,1,0,0,0,0,,,,,,,,,,,,,,,,,,,,,,,,,,,,,,,,,,,107.07589329100006,None,107.07589329100006,None,space,1.9976912589999074,107.07589329100006,None,,,,,,,,,,,,,,,,,,,,,,,,,,,,,,,,,,,,,,,,,,,,,,,,,,,,,,,,,,,,,,,,,,,,,,,,,,,,,,,,,,,,,,,,,,,,,,,090321,1,2,2,3,2021_Sep_03_1039,training_fmri,3.2.4,59.92153155598619,
,1,,,,,,,,,,,,,,,,,,,,,,,,,0,0,0,1,,,,,,,,,,,,,,,,,,,,,,,,,,,,,,,,,,,,,,,,,,,,,,,,,,,,,,,,,,,,,,,,,,,,,,,,,,,,,,,,,,,,,,,,,,,,,,,,,,,,,,,,,,,,,,,,,,,,,,,,,,,,,,,,,,,,,,,,,,,,,090321,1,2,2,3,2021_Sep_03_1039,training_fmri,3.2.4,59.92153155598619,
,0,For how long has the couple been dating?,"How many diamonds are on the ring, and what is the diamond color?","In/on what item is the ring presented?
","Who does the new fiancee text first?
",For how long has the couple known the other was going to propose?,Who does the new fiancee hug first?,Wedding Planner,jobphotos/weddingplanner.jpg,,,,,,,,,,,,,,,,,0,1,1,0,0,0,0,0,,,,,,,,,,,,,,,,,,,,,,,,,,,,,,,,,,,109.174992589,None,109.174992589,None,space,1.8304065739999942,109.174992589,None,,,,,,,,,,,,,,,,,,,,,,,,,,,,,,,,,,,,,,,,,,,,,,,,,,,,,,,,,,,,,,,,,,,,,,,,,,,,,,,,,,,,,,,,,,,,,,,090321,1,2,2,3,2021_Sep_03_1039,training_fmri,3.2.4,59.92153155598619,
,0,,,,,,,,,,,,,,,,,,,,,,,,,0,1,1,0,,,,,,,,,,,,,,,,,,,,,,,,,,,,,,,,,,,,,,,,,,,,,,,,,,,,,,,,,,,,,,,,,,,,,,,,,,,,,,,,,,,,,,,,,,,,,,,,,,,,,,,,,,,,,,,,,,,,,,,,,,,,,,,,,,,,,,,,,,,,,090321,1,2,2,3,2021_Sep_03_1039,training_fmri,3.2.4,59.92153155598619,
,2,"What is the grocery store like upon entering?
",What items do the clients pick out to buy?,"How many checkout lanes are open, and which one do the clients step into?
","How much are the groceries, and what method of payment do the clients use?
",What is the grocery store like when the clients leave?,"How many checkout lanes are closed, and which one do the clients step into?","Grocery Store Customer Experience Manager
",jobphotos/gscem.jpg,,,,,,,,,,,,,,,,,0,2,2,2,0,0,0,0,,,,,,,,,,,,,,,,,,,,,,,,,,,,,,,,,,,111.07515997899998,None,111.07515997899998,None,space,3.298367141999961,111.07515997899998,None,,,,,,,,,,,,,,,,,,,,,,,,,,,,,,,,,,,,,,,,,,,,,,,,,,,,,,,,,,,,,,,,,,,,,,,,,,,,,,,,,,,,,,,,,,,,,,,090321,1,2,2,3,2021_Sep_03_1039,training_fmri,3.2.4,59.92153155598619,
,2,,,,,,,,,,,,,,,,,,,,,,,,,0,2,2,2,,,,,,,,,,,,,,,,,,,,,,,,,,,,,,,,,,,,,,,,,,,,,,,,,,,,,,,,,,,,,,,,,,,,,,,,,,,,,,,,,,,,,,,,,,,,,,,,,,,,,,,,,,,,,,,,,,,,,,,,,,,,,,,,,,,,,,,,,,,,,090321,1,2,2,3,2021_Sep_03_1039,training_fmri,3.2.4,59.92153155598619,
,3,"What is the lecture hall like?
","What class are the students in, and what is the day’s lecture about?
","What is something taught in lecture?
","What is the next assessment/assignment for the class, and when is it scheduled/due?","What class are the students in, and what was yesterday’s lecture about?","What is the lecture hall’s max capacity?
",Dean of Academic Studies,jobphotos/dean.jpg,,,,,,,,,,,,,,,,,0,3,3,3,0,0,0,0,,,,,,,,,,,,,,,,,,,,,,,,,,,,,,,,,,,114.42510624500005,None,114.42510624500005,None,space,1.9340937629999644,114.42510624500005,None,,,,,,,,,,,,,,,,,,,,,,,,,,,,,,,,,,,,,,,,,,,,,,,,,,,,,,,,,,,,,,,,,,,,,,,,,,,,,,,,,,,,,,,,,,,,,,,090321,1,2,2,3,2021_Sep_03_1039,training_fmri,3.2.4,59.92153155598619,
,3,,,,,,,,,,,,,,,,,,,,,,,,,0,3,3,3,,,,,,,,,,,,,,,,,,,,,,,,,,,,,,,,,,,,,,,,,,,,,,,,,,,,,,,,,,,,,,,,,,,,,,,,,,,,,,,,,,,,,,,,,,,,,,,,,,,,,,,,,,,,,,,,,,,,,,,,,,,,,,,,,,,,,,,,,,,,,090321,1,2,2,3,2021_Sep_03_1039,training_fmri,3.2.4,59.92153155598619,
You’ll become acquainted with them more in learning the 4 questions associated with each perspective.,,,,,,,,,,,,,,,,,,,,,,,,,,,,,,,,,,0,0,0,0,,,,,,,,,,,,,,,,,116.40694779600005,None,space,4.422621306999986,116.40694779600005,None,,,,,,,,,,,,,,,,,,,,,,,,,,,,,,,,,,,,,,,,,,,,,,,,,,,,,,,,,,,,,,,,,,,,,,,,,,,,,,,,,,,,,,,,,,,,,,,,,,,,,,,,,,,,,,,090321,1,2,2,3,2021_Sep_03_1039,training_fmri,3.2.4,59.92153155598619,
"For each perspective, you'll go through all four questions in a sequence.",,,,,,,,,,,,,,,,,,,,,,,,,,,,,,,,,,0,1,1,1,,,,,,,,,,,,,,,,,120.87417864500003,None,space,3.7863784219999843,120.87417864500003,None,,,,,,,,,,,,,,,,,,,,,,,,,,,,,,,,,,,,,,,,,,,,,,,,,,,,,,,,,,,,,,,,,,,,,,,,,,,,,,,,,,,,,,,,,,,,,,,,,,,,,,,,,,,,,,,090321,1,2,2,3,2021_Sep_03_1039,training_fmri,3.2.4,59.92153155598619,
Then you'll be presented with a quiz and have to indicate which questions you saw in the order in which they appeared in the sequence.,,,,,,,,,,,,,,,,,,,,,,,,,,,,,,,,,,0,2,2,2,,,,,,,,,,,,,,,,,124.70840010699999,None,space,7.049720164000064,124.70840010699999,None,,,,,,,,,,,,,,,,,,,,,,,,,,,,,,,,,,,,,,,,,,,,,,,,,,,,,,,,,,,,,,,,,,,,,,,,,,,,,,,,,,,,,,,,,,,,,,,,,,,,,,,,,,,,,,,090321,1,2,2,3,2021_Sep_03_1039,training_fmri,3.2.4,59.92153155598619,
You'll indicate the question you select by pressing the number key corresponding to the number in front of the question.,,,,,,,,,,,,,,,,,,,,,,,,,,,,,,,,,,0,3,3,3,,,,,,,,,,,,,,,,,131.80774646600003,None,space,7.77724106900007,131.80774646600003,None,,,,,,,,,,,,,,,,,,,,,,,,,,,,,,,,,,,,,,,,,,,,,,,,,,,,,,,,,,,,,,,,,,,,,,,,,,,,,,,,,,,,,,,,,,,,,,,,,,,,,,,,,,,,,,,090321,1,2,2,3,2021_Sep_03_1039,training_fmri,3.2.4,59.92153155598619,
"If you make the wrong selection, you'll get the 4 questions presented in the correct order again and restart the quiz.",,,,,,,,,,,,,,,,,,,,,,,,,,,,,,,,,,0,4,4,4,,,,,,,,,,,,,,,,,139.62414369500004,None,space,5.91803909500004,139.62414369500004,None,,,,,,,,,,,,,,,,,,,,,,,,,,,,,,,,,,,,,,,,,,,,,,,,,,,,,,,,,,,,,,,,,,,,,,,,,,,,,,,,,,,,,,,,,,,,,,,,,,,,,,,,,,,,,,,090321,1,2,2,3,2021_Sep_03_1039,training_fmri,3.2.4,59.92153155598619,
"After you've passed the quizzes for each perspective, you'll do all of them a final time, but without seeing the correct order of the questions beforehand.",,,,,,,,,,,,,,,,,,,,,,,,,,,,,,,,,,0,5,5,5,,,,,,,,,,,,,,,,,145.59006118900004,None,space,5.314563211000063,145.59006118900004,None,,,,,,,,,,,,,,,,,,,,,,,,,,,,,,,,,,,,,,,,,,,,,,,,,,,,,,,,,,,,,,,,,,,,,,,,,,,,,,,,,,,,,,,,,,,,,,,,,,,,,,,,,,,,,,,090321,1,2,2,3,2021_Sep_03_1039,training_fmri,3.2.4,59.92153155598619,
Press space to begin!,,,,,,,,,,,,,,,,,,,,,,,,,,,,,,,,,,0,6,6,6,,,,,,,,,,,,,,,,,150.92444765900007,None,space,1.6552077989999816,150.92444765900007,None,,,,,,,,,,,,,,,,,,,,,,,,,,,,,,,,,,,,,,,,,,,,,,,,,,,,,,,,,,,,,,,,,,,,,,,,,,,,,,,,,,,,,,,,,,,,,,,,,,,,,,,,,,,,,,,090321,1,2,2,3,2021_Sep_03_1039,training_fmri,3.2.4,59.92153155598619,
,3,"What is the lecture hall like?
","What class are the students in, and what is the day’s lecture about?
","What is something taught in lecture?
","What is the next assessment/assignment for the class, and when is it scheduled/due?","What class are the students in, and what was yesterday’s lecture about?","What is the lecture hall’s max capacity?
",Dean of Academic Studies,jobphotos/dean.jpg,,,,,,,,,,,,,,,,,,,,,,,,,,,,,0,0,0,3,0,0,0,0,,,,,,,,,,,,,,,,,,,,,,,,,,,,,,,152.64043801900004,None,152.64043801900004,None,space,9.067315194000003,152.64043801900004,None,161.77463927400004,None,161.77463927400004,None,161.77463927400004,None,space,1.7828192059999992,161.77463927400004,None,163.60779793200004,None,163.60779793200004,None,163.60779793200004,None,space,2.9887146859999802,163.60779793200004,None,166.65706025300005,None,166.65706025300005,None,166.65706025300005,None,space,1.869102454999961,166.65706025300005,None,168.60799348199998,None,168.60799348199998,None,168.60799348199998,None,space,6.543941580000023,168.60799348199998,None,175.17378094000003,None,space,1.6367521879999458,175.17378094000003,None,176.940146498,None,176.940146498,None,176.940146498,None,176.940146498,None,176.940146498,None,176.940146498,None,176.940146498,None,,,,,,,,,,,,,,,,,,,,,,,,,,,090321,1,2,2,3,2021_Sep_03_1039,training_fmri,3.2.4,59.92153155598619,
,3,"What is the lecture hall like?
","What class are the students in, and what is the day’s lecture about?
","What is something taught in lecture?
","What is the next assessment/assignment for the class, and when is it scheduled/due?","What class are the students in, and what was yesterday’s lecture about?","What is the lecture hall’s max capacity?
",Dean of Academic Studies,jobphotos/dean.jpg,,,,,,,,,,,,,,,,,,,,,,,,,,,,,0,0,0,3,1,0,1,0,,,,,,,,,,,,,,,,,,,,,,,,,,,,,,,202.30649603899997,None,202.30649603899997,None,space,5.513347400999919,202.30649603899997,None,207.857067336,None,207.857067336,None,207.857067336,None,space,2.644285565999894,207.857067336,None,210.54056031799996,None,210.54056031799996,None,210.54056031799996,None,space,3.36755330699998,210.54056031799996,None,213.95642705900002,None,213.95642705900002,None,213.95642705900002,None,space,2.4175229029999628,213.95642705900002,None,216.423850518,None,216.423850518,None,216.423850518,None,space,2.9310433170001033,216.423850518,None,219.37344165700006,None,space,0.6145269939999025,219.37344165700006,None,220.07247486100005,None,220.07247486100005,None,220.07247486100005,None,220.07247486100005,None,220.07247486100005,None,220.07247486100005,None,220.07247486100005,None,,,,,,,,,,,,,,,,,,,,,,,,,,,090321,1,2,2,3,2021_Sep_03_1039,training_fmri,3.2.4,59.92153155598619,
,3,"What is the lecture hall like?
","What class are the students in, and what is the day’s lecture about?
","What is something taught in lecture?
","What is the next assessment/assignment for the class, and when is it scheduled/due?","What class are the students in, and what was yesterday’s lecture about?","What is the lecture hall’s max capacity?
",Dean of Academic Studies,jobphotos/dean.jpg,,,,,,,,,,,,,,,,,,,,,,,,,,,,,0,0,0,3,2,0,2,0,,,,,,,,,,,,,,,,,,,,,,,,,,,,,,,224.52361096000004,None,224.52361096000004,None,space,0.5262669420000066,224.52361096000004,None,225.08997505700006,None,225.08997505700006,None,225.08997505700006,None,space,3.4617130149999866,225.08997505700006,None,228.58975430400005,None,228.58975430400005,None,228.58975430400005,None,space,3.192947108999988,228.58975430400005,None,231.82349541500002,None,231.82349541500002,None,231.82349541500002,None,space,1.0998943789999203,231.82349541500002,None,232.97325353899998,None,232.97325353899998,None,232.97325353899998,None,space,1.5992218549999961,232.97325353899998,None,234.58995695600004,None,space,0.7823412239999925,234.58995695600004,None,235.49072433800006,None,235.49072433800006,None,235.49072433800006,None,235.49072433800006,None,235.49072433800006,None,235.49072433800006,None,235.49072433800006,None,,,,,,,,,,,,,,,,,,,,,,,,,,,090321,1,2,2,3,2021_Sep_03_1039,training_fmri,3.2.4,59.92153155598619,
,3,"What is the lecture hall like?
","What class are the students in, and what is the day’s lecture about?
","What is something taught in lecture?
","What is the next assessment/assignment for the class, and when is it scheduled/due?","What class are the students in, and what was yesterday’s lecture about?","What is the lecture hall’s max capacity?
",Dean of Academic Studies,jobphotos/dean.jpg,,,,,,,,,,,,,,,,,,,,,,,,,,,,,0,0,0,3,3,0,3,0,,,,,,,,,,,,,,,,,,,,,,,,,,,,,,,247.72335993499996,None,247.72335993499996,None,space,0.17819000200006485,247.72335993499996,None,247.93969621500003,None,247.93969621500003,None,247.93969621500003,None,space,1.4918282410000074,247.93969621500003,None,249.47299891800003,None,249.47299891800003,None,249.47299891800003,None,space,1.6022606270000779,249.47299891800003,None,251.12351349100004,None,251.12351349100004,None,251.12351349100004,None,space,2.8230053969999744,251.12351349100004,None,253.98950026800003,None,253.98950026800003,None,253.98950026800003,None,space,1.2176151970001001,253.98950026800003,None,255.23859183499997,None,space,0.5617740149998554,255.23859183499997,None,255.90645210700006,None,255.90645210700006,None,255.90645210700006,None,255.90645210700006,None,255.90645210700006,None,255.90645210700006,None,255.90645210700006,None,,,,,,,,,,,,,,,,,,,,,,,,,,,090321,1,2,2,3,2021_Sep_03_1039,training_fmri,3.2.4,59.92153155598619,
,3,"What is the lecture hall like?
","What class are the students in, and what is the day’s lecture about?
","What is something taught in lecture?
","What is the next assessment/assignment for the class, and when is it scheduled/due?","What class are the students in, and what was yesterday’s lecture about?","What is the lecture hall’s max capacity?
",Dean of Academic Studies,jobphotos/dean.jpg,,,,,,,,,,,,,,,,,,,,,,,,,,,,,0,0,0,3,4,0,4,0,,,,,,,,,,,,,,,,,,,,,,,,,,,,,,,262.405943888,None,262.405943888,None,space,0.4742066449998674,262.405943888,None,262.921950414,None,262.921950414,None,262.921950414,None,space,0.39307333300007485,262.921950414,None,263.356163672,None,263.356163672,None,263.356163672,None,space,5.6220854559999225,263.356163672,None,269.022457614,None,269.022457614,None,269.022457614,None,space,1.453773037000019,269.022457614,None,270.5226572969999,None,270.5226572969999,None,270.5226572969999,None,space,1.1427461989999301,270.5226572969999,None,271.68919816100004,None,space,0.6030634169999303,271.68919816100004,None,272.40699161400005,None,272.40699161400005,None,272.40699161400005,None,272.40699161400005,None,272.40699161400005,None,272.40699161400005,None,272.40699161400005,None,,,,,,,,,,,,,,,,,,,,,,,,,,,090321,1,2,2,3,2021_Sep_03_1039,training_fmri,3.2.4,59.92153155598619,
,3,,,,,,,,,,,,,,,,,,,,,,,,,,,,,,,,,,,,,0,0,0,3,,,,,,,,,,,,,,,,,,,,,,,,,,,,,,,,,,,,,,,,,,,,,,,,,,,,,,,,,,,,,,,,,,,,,,,,,,,,,,,,,,,,,,,,,,,,,,,,,,,,,,,,,,,,,,,,,,,,,,,,,,,,,,,,,090321,1,2,2,3,2021_Sep_03_1039,training_fmri,3.2.4,59.92153155598619,
,1,What is each business person’s job title?,"How much money is at stake in the initial offer made?
",What is the name of the other industry competitor? ,With what gesture do the business partners secure the deal?,What is each business person’s salary?,How much money is at stake in the final offer made?,Business Reporter,jobphotos/business_reporter.jpg,,,,,,,,,,,,,,,,,,,,,,,,,,,,,0,1,1,1,0,0,0,0,,,,,,,,,,,,,,,,,,,,,,,,,,,,,,,289.55657877400006,None,289.55657877400006,None,space,0.85572590400011,289.55657877400006,None,290.47309056899996,None,290.47309056899996,None,290.47309056899996,None,space,3.168179235000025,290.47309056899996,None,293.7057710580001,None,293.7057710580001,None,293.7057710580001,None,space,3.5093097860001308,293.7057710580001,None,297.27208983699995,None,297.27208983699995,None,297.27208983699995,None,space,2.8120221169999695,297.27208983699995,None,300.14004863799994,None,300.14004863799994,None,300.14004863799994,None,space,2.031845923999981,300.14004863799994,None,302.188818299,None,space,0.9140262319999692,302.188818299,None,303.2049215170001,None,303.2049215170001,None,303.2049215170001,None,303.2049215170001,None,303.2049215170001,None,303.2049215170001,None,303.2049215170001,None,,,,,,,,,,,,,,,,,,,,,,,,,,,090321,1,2,2,3,2021_Sep_03_1039,training_fmri,3.2.4,59.92153155598619,
,1,What is each business person’s job title?,"How much money is at stake in the initial offer made?
",What is the name of the other industry competitor? ,With what gesture do the business partners secure the deal?,What is each business person’s salary?,How much money is at stake in the final offer made?,Business Reporter,jobphotos/business_reporter.jpg,,,,,,,,,,,,,,,,,,,,,,,,,,,,,0,1,1,1,1,0,1,0,,,,,,,,,,,,,,,,,,,,,,,,,,,,,,,317.6549298210001,None,317.6549298210001,None,space,0.4284459279999737,317.6549298210001,None,318.12125383399996,None,318.12125383399996,None,318.12125383399996,None,space,1.512078296000027,318.12125383399996,None,319.6719121970001,None,319.6719121970001,None,319.6719121970001,None,space,2.0989651239999603,319.6719121970001,None,321.80539533500007,None,321.80539533500007,None,321.80539533500007,None,space,1.0889172340000641,321.80539533500007,None,322.9384109020001,None,322.9384109020001,None,322.9384109020001,None,space,0.6217786700001398,322.9384109020001,None,323.58869428900005,None,space,2.390467293000029,323.58869428900005,None,326.0894389030001,None,326.0894389030001,None,326.0894389030001,None,326.0894389030001,None,326.0894389030001,None,326.0894389030001,None,326.0894389030001,None,,,,,,,,,,,,,,,,,,,,,,,,,,,090321,1,2,2,3,2021_Sep_03_1039,training_fmri,3.2.4,59.92153155598619,
,1,,,,,,,,,,,,,,,,,,,,,,,,,,,,,,,,,,,,,0,1,1,1,,,,,,,,,,,,,,,,,,,,,,,,,,,,,,,,,,,,,,,,,,,,,,,,,,,,,,,,,,,,,,,,,,,,,,,,,,,,,,,,,,,,,,,,,,,,,,,,,,,,,,,,,,,,,,,,,,,,,,,,,,,,,,,,,090321,1,2,2,3,2021_Sep_03_1039,training_fmri,3.2.4,59.92153155598619,
,0,For how long has the couple been dating?,"How many diamonds are on the ring, and what is the diamond color?","In/on what item is the ring presented?
","Who does the new fiancee text first?
",For how long has the couple known the other was going to propose?,Who does the new fiancee hug first?,Wedding Planner,jobphotos/weddingplanner.jpg,,,,,,,,,,,,,,,,,,,,,,,,,,,,,0,2,2,0,0,0,0,0,,,,,,,,,,,,,,,,,,,,,,,,,,,,,,,338.1881961800001,None,338.1881961800001,None,space,0.04358758100011073,338.1881961800001,None,338.288310283,None,338.288310283,None,338.288310283,None,space,2.1841722199999367,338.288310283,None,340.5393592470001,None,340.5393592470001,None,340.5393592470001,None,space,6.171293666999873,340.5393592470001,None,346.77241580700013,None,346.77241580700013,None,346.77241580700013,None,space,6.055999418000056,346.77241580700013,None,352.889641117,None,352.889641117,None,352.889641117,None,space,2.82252351000011,352.889641117,None,355.738606045,None,space,0.6473779739999372,355.738606045,None,356.489466872,None,356.489466872,None,356.489466872,None,356.489466872,None,356.489466872,None,356.489466872,None,356.489466872,None,,,,,,,,,,,,,,,,,,,,,,,,,,,090321,1,2,2,3,2021_Sep_03_1039,training_fmri,3.2.4,59.92153155598619,
,0,For how long has the couple been dating?,"How many diamonds are on the ring, and what is the diamond color?","In/on what item is the ring presented?
","Who does the new fiancee text first?
",For how long has the couple known the other was going to propose?,Who does the new fiancee hug first?,Wedding Planner,jobphotos/weddingplanner.jpg,,,,,,,,,,,,,,,,,,,,,,,,,,,,,0,2,2,0,1,0,1,0,,,,,,,,,,,,,,,,,,,,,,,,,,,,,,,372.8218702610001,None,372.8218702610001,None,space,0.9116673589999209,372.8218702610001,None,373.7712390749999,None,373.7712390749999,None,373.7712390749999,None,space,0.9933904060001169,373.7712390749999,None,374.8037678490001,None,374.8037678490001,None,374.8037678490001,None,space,2.931539276999956,374.8037678490001,None,377.771602489,None,377.771602489,None,377.771602489,None,space,0.8487321060001705,377.771602489,None,378.672419011,None,378.672419011,None,378.672419011,None,space,0.4619407620000402,378.672419011,None,379.15369493900005,None,space,0.607660037999949,379.15369493900005,None,379.8721969469999,None,379.8721969469999,None,379.8721969469999,None,379.8721969469999,None,379.8721969469999,None,379.8721969469999,None,379.8721969469999,None,,,,,,,,,,,,,,,,,,,,,,,,,,,090321,1,2,2,3,2021_Sep_03_1039,training_fmri,3.2.4,59.92153155598619,
,0,,,,,,,,,,,,,,,,,,,,,,,,,,,,,,,,,,,,,0,2,2,0,,,,,,,,,,,,,,,,,,,,,,,,,,,,,,,,,,,,,,,,,,,,,,,,,,,,,,,,,,,,,,,,,,,,,,,,,,,,,,,,,,,,,,,,,,,,,,,,,,,,,,,,,,,,,,,,,,,,,,,,,,,,,,,,,090321,1,2,2,3,2021_Sep_03_1039,training_fmri,3.2.4,59.92153155598619,
,2,"What is the grocery store like upon entering?
",What items do the clients pick out to buy?,"How many checkout lanes are open, and which one do the clients step into?
","How much are the groceries, and what method of payment do the clients use?
",What is the grocery store like when the clients leave?,"How many checkout lanes are closed, and which one do the clients step into?","Grocery Store Customer Experience Manager
",jobphotos/gscem.jpg,,,,,,,,,,,,,,,,,,,,,,,,,,,,,0,3,3,2,0,0,0,0,,,,,,,,,,,,,,,,,,,,,,,,,,,,,,,395.7550040929999,None,395.7550040929999,None,space,1.3777885199999673,395.7550040929999,None,397.1888833460001,None,397.1888833460001,None,397.1888833460001,None,space,1.8187909790001413,397.1888833460001,None,399.072041902,None,399.072041902,None,399.072041902,None,space,3.679476560000012,399.072041902,None,402.8042064499999,None,402.8042064499999,None,402.8042064499999,None,space,2.3272859300000164,402.8042064499999,None,405.1879508380001,None,405.1879508380001,None,405.1879508380001,None,space,2.250386400000025,405.1879508380001,None,407.470671638,None,space,0.5906674580000981,407.470671638,None,408.16998182300006,None,408.16998182300006,None,408.16998182300006,None,408.16998182300006,None,408.16998182300006,None,408.16998182300006,None,408.16998182300006,None,,,,,,,,,,,,,,,,,,,,,,,,,,,090321,1,2,2,3,2021_Sep_03_1039,training_fmri,3.2.4,59.92153155598619,
,2,"What is the grocery store like upon entering?
",What items do the clients pick out to buy?,"How many checkout lanes are open, and which one do the clients step into?
","How much are the groceries, and what method of payment do the clients use?
",What is the grocery store like when the clients leave?,"How many checkout lanes are closed, and which one do the clients step into?","Grocery Store Customer Experience Manager
",jobphotos/gscem.jpg,,,,,,,,,,,,,,,,,,,,,,,,,,,,,0,3,3,2,1,0,1,0,,,,,,,,,,,,,,,,,,,,,,,,,,,,,,,417.45367405600007,None,417.45367405600007,None,space,0.43179978399984975,417.45367405600007,None,417.9209336560001,None,417.9209336560001,None,417.9209336560001,None,space,0.6845508549999977,417.9209336560001,None,418.654259345,None,418.654259345,None,418.654259345,None,space,1.3763585889998922,418.654259345,None,420.07128921800006,None,420.07128921800006,None,420.07128921800006,None,space,1.5393092960000558,420.07128921800006,None,421.65422373600006,None,421.65422373600006,None,421.65422373600006,None,space,1.1701886229998308,421.65422373600006,None,422.85398729299993,None,space,2.430280815999822,422.85398729299993,None,425.38672262600005,None,425.38672262600005,None,425.38672262600005,None,425.38672262600005,None,425.38672262600005,None,425.38672262600005,None,425.38672262600005,None,,,,,,,,,,,,,,,,,,,,,,,,,,,090321,1,2,2,3,2021_Sep_03_1039,training_fmri,3.2.4,59.92153155598619,
,2,,,,,,,,,,,,,,,,,,,,,,,,,,,,,,,,,,,,,0,3,3,2,,,,,,,,,,,,,,,,,,,,,,,,,,,,,,,,,,,,,,,,,,,,,,,,,,,,,,,,,,,,,,,,,,,,,,,,,,,,,,,,,,,,,,,,,,,,,,,,,,,,,,,,,,,,,,,,,,,,,,,,,,,,,,,,,090321,1,2,2,3,2021_Sep_03_1039,training_fmri,3.2.4,59.92153155598619,
,1,What is each business person’s job title?,"How much money is at stake in the initial offer made?
",What is the name of the other industry competitor? ,With what gesture do the business partners secure the deal?,What is each business person’s salary?,How much money is at stake in the final offer made?,Business Reporter,jobphotos/business_reporter.jpg,,,,,,,,,,,,,,,,,,,,,,,,,,,,,,,,,,,,,0,0,0,1,0,0,0,0,,,,,,,,,,,,,,,,,,,,,,,,,,,,,,,,,,,,,,,,,,,,,,,,,,,,,,,,,,,,,,,,,,,,,,,,,,,,,,,,,,,,,,,,,,,440.703555572,None,441.73709350499996,None,space,1.1104296539999723,441.73709350499996,None,441.73709350499996,None,442.95451007500003,None,442.95451007500003,None,442.95451007500003,None,442.95451007500003,None,442.95451007500003,None,442.95451007500003,None,442.95451007500003,None,,,090321,1,2,2,3,2021_Sep_03_1039,training_fmri,3.2.4,59.92153155598619,
,1,,,,,,,,,,,,,,,,,,,,,,,,,,,,,,,,,,,,,,,,,,,,,0,0,0,1,,,,,,,,,,,,,,,,,,,,,,,,,,,,,,,,,,,,,,,,,,,,,,,,,,,,,,,,,,,,,,,,,,,,,,,,,,,,,,,,,,,,,,,,,,,,,,,,,,,,,,,,,,,,,,,,,,,,,,,,,090321,1,2,2,3,2021_Sep_03_1039,training_fmri,3.2.4,59.92153155598619,
,2,"What is the grocery store like upon entering?
",What items do the clients pick out to buy?,"How many checkout lanes are open, and which one do the clients step into?
","How much are the groceries, and what method of payment do the clients use?
",What is the grocery store like when the clients leave?,"How many checkout lanes are closed, and which one do the clients step into?","Grocery Store Customer Experience Manager
",jobphotos/gscem.jpg,,,,,,,,,,,,,,,,,,,,,,,,,,,,,,,,,,,,,0,1,1,2,0,0,0,0,,,,,,,,,,,,,,,,,,,,,,,,,,,,,,,,,,,,,,,,,,,,,,,,,,,,,,,,,,,,,,,,,,,,,,,,,,,,,,,,,,,,,,,,,,,,,464.3365055600001,None,space,0.8903240550000646,464.3365055600001,None,464.3365055600001,None,465.3373353559999,None,465.3373353559999,None,465.3373353559999,None,465.3373353559999,None,465.3373353559999,None,465.3373353559999,None,465.3373353559999,None,,,090321,1,2,2,3,2021_Sep_03_1039,training_fmri,3.2.4,59.92153155598619,
,2,,,,,,,,,,,,,,,,,,,,,,,,,,,,,,,,,,,,,,,,,,,,,0,1,1,2,,,,,,,,,,,,,,,,,,,,,,,,,,,,,,,,,,,,,,,,,,,,,,,,,,,,,,,,,,,,,,,,,,,,,,,,,,,,,,,,,,,,,,,,,,,,,,,,,,,,,,,,,,,,,,,,,,,,,,,,,090321,1,2,2,3,2021_Sep_03_1039,training_fmri,3.2.4,59.92153155598619,
,3,"What is the lecture hall like?
","What class are the students in, and what is the day’s lecture about?
","What is something taught in lecture?
","What is the next assessment/assignment for the class, and when is it scheduled/due?","What class are the students in, and what was yesterday’s lecture about?","What is the lecture hall’s max capacity?
",Dean of Academic Studies,jobphotos/dean.jpg,,,,,,,,,,,,,,,,,,,,,,,,,,,,,,,,,,,,,0,2,2,3,0,0,0,0,,,,,,,,,,,,,,,,,,,,,,,,,,,,,,,,,,,,,,,,,,,,,,,,,,,,,,,,,,,,,,,,,,,,,,,,,,,,,,,,,,,,,,,,,,,,,479.3041453689999,None,space,0.7573636160000206,479.3041453689999,None,479.3041453689999,None,480.169763729,None,480.169763729,None,480.169763729,None,480.169763729,None,480.169763729,None,480.169763729,None,480.169763729,None,,,090321,1,2,2,3,2021_Sep_03_1039,training_fmri,3.2.4,59.92153155598619,
,3,,,,,,,,,,,,,,,,,,,,,,,,,,,,,,,,,,,,,,,,,,,,,0,2,2,3,,,,,,,,,,,,,,,,,,,,,,,,,,,,,,,,,,,,,,,,,,,,,,,,,,,,,,,,,,,,,,,,,,,,,,,,,,,,,,,,,,,,,,,,,,,,,,,,,,,,,,,,,,,,,,,,,,,,,,,,,090321,1,2,2,3,2021_Sep_03_1039,training_fmri,3.2.4,59.92153155598619,
,0,For how long has the couple been dating?,"How many diamonds are on the ring, and what is the diamond color?","In/on what item is the ring presented?
","Who does the new fiancee text first?
",For how long has the couple known the other was going to propose?,Who does the new fiancee hug first?,Wedding Planner,jobphotos/weddingplanner.jpg,,,,,,,,,,,,,,,,,,,,,,,,,,,,,,,,,,,,,0,3,3,0,0,0,0,0,,,,,,,,,,,,,,,,,,,,,,,,,,,,,,,,,,,,,,,,,,,,,,,,,,,,,,,,,,,,,,,,,,,,,,,,,,,,,,,,,,,,,,,,,,,,,504.3202474169999,None,space,0.6286652670000876,504.3202474169999,None,504.3202474169999,None,505.053553009,None,505.053553009,None,505.053553009,None,505.053553009,None,505.053553009,None,505.053553009,None,505.053553009,None,,,090321,1,2,2,3,2021_Sep_03_1039,training_fmri,3.2.4,59.92153155598619,
,0,,,,,,,,,,,,,,,,,,,,,,,,,,,,,,,,,,,,,,,,,,,,,0,3,3,0,,,,,,,,,,,,,,,,,,,,,,,,,,,,,,,,,,,,,,,,,,,,,,,,,,,,,,,,,,,,,,,,,,,,,,,,,,,,,,,,,,,,,,,,,,,,,,,,,,,,,,,,,,,,,,,,,,,,,,,,,090321,1,2,2,3,2021_Sep_03_1039,training_fmri,3.2.4,59.92153155598619,
,,,,,,,,,,,,,,,,,,,,,,,,,,,,,,,,,,,,,,,,,,,,,,,,,,,,,,,,,,,,,,,,,,,,,,,,,,,,,,,,,,,,,,,,,,,,,,,,,,,,,,,,,,,,,,,,,,,,,,,,,,,,,,,,,,,,,,,,,,,,,,,,,,,,,,,,,,,,,,,,,,,,,,,,520.168449444,None,,,,,,,,,,
