instructText,count,trials_5.thisRepN,trials_5.thisTrialN,trials_5.thisN,trials_5.thisIndex,trials_6.thisRepN,trials_6.thisTrialN,trials_6.thisN,trials_6.thisIndex,trials.thisRepN,trials.thisTrialN,trials.thisN,trials.thisIndex,trials_8.thisRepN,trials_8.thisTrialN,trials_8.thisN,trials_8.thisIndex,story_list_block1,action_list_block1,story_list_block2,action_list_block2,key_resp_3.keys,key_resp_3.rt,key_resp_3.started,key_resp_3.stopped,text_13.started,text_13.stopped,text_23.started,text_23.stopped,text_43.started,text_43.stopped,key_resp_11.keys,key_resp_11.rt,key_resp_11.started,key_resp_11.stopped,text_44.started,text_44.stopped,text_53.started,text_53.stopped,image_10.started,image_10.stopped,text_22.started,text_22.stopped,recall,question1_answer,order of question,text_14.started,text_14.stopped,text_15.started,text_15.stopped,image_6.started,image_6.stopped,polygon_3.started,polygon_3.stopped,bottom_line_3.started,bottom_line_3.stopped,right_line_3.started,right_line_3.stopped,left_line_3.started,left_line_3.stopped,question2_answer,text_16.started,text_16.stopped,text_17.started,text_17.stopped,image_7.started,image_7.stopped,polygon_4.started,polygon_4.stopped,bottom_line_4.started,bottom_line_4.stopped,right_line_4.started,right_line_4.stopped,left_line_4.started,left_line_4.stopped,question3_answer,text_18.started,text_18.stopped,text_19.started,text_19.stopped,image_8.started,image_8.stopped,polygon_5.started,polygon_5.stopped,bottom_line_5.started,bottom_line_5.stopped,right_line_5.started,right_line_5.stopped,left_line_5.started,left_line_5.stopped,question4_answer,text_20.started,text_20.stopped,text_21.started,text_21.stopped,image_9.started,image_9.stopped,polygon_6.started,polygon_6.stopped,bottom_line_6.started,bottom_line_6.stopped,right_line_6.started,right_line_6.stopped,left_line_6.started,left_line_6.stopped,question5_answer,text_25.started,text_25.stopped,text_26.started,text_26.stopped,image_11.started,image_11.stopped,polygon_7.started,polygon_7.stopped,bottom_line_7.started,bottom_line_7.stopped,right_line_7.started,right_line_7.stopped,left_line_7.started,left_line_7.stopped,question6_answer,text_27.started,text_27.stopped,text_28.started,text_28.stopped,image_12.started,image_12.stopped,polygon_8.started,polygon_8.stopped,bottom_line_8.started,bottom_line_8.stopped,right_line_8.started,right_line_8.stopped,left_line_8.started,left_line_8.stopped,question7_answer,text_29.started,text_29.stopped,text_30.started,text_30.stopped,image_13.started,image_13.stopped,polygon_9.started,polygon_9.stopped,bottom_line_9.started,bottom_line_9.stopped,right_line_9.started,right_line_9.stopped,left_line_9.started,left_line_9.stopped,question8_answer,text_31.started,text_31.stopped,text_32.started,text_32.stopped,image_14.started,image_14.stopped,polygon_10.started,polygon_10.stopped,bottom_line_10.started,bottom_line_10.stopped,right_line_10.started,right_line_10.stopped,left_line_10.started,left_line_10.stopped,text_36.started,text_36.stopped,participant,sA,sB,lA,lB,block_struct,random_seed,date,expName,psychopyVersion,frameRate,
"In the final part of the experiment, please answer 8 questions about each story.",,0,0,0,0,,,,,,,,,,,,,[14 34 12 43 21 32 23 41],[2 3 4 4 3 1 1 2],[24 44 33 42 22 13 11 31],[3 2 1 4 1 4 2 3],space,4.977584298001600,6.628717282001160,None,6.628717282001160,None,6.628717282001160,None,,,,,,,,,,,,,,,,,,,,,,,,,,,,,,,,,,,,,,,,,,,,,,,,,,,,,,,,,,,,,,,,,,,,,,,,,,,,,,,,,,,,,,,,,,,,,,,,,,,,,,,,,,,,,,,,,,,,,,,,,,,,,,,,,,,,,,,,,,,11821,1,2,0,3,0,42,2022_Jan_18_1136,short_answer,3.2.4,60.153700403194100,
"We did not tell you to think of all or some of these questions during the story, but please do your best to answer them.",,0,1,1,1,,,,,,,,,,,,,,,,,space,5.681745517998930,11.64500416899680,None,11.64500416899680,None,11.64500416899680,None,,,,,,,,,,,,,,,,,,,,,,,,,,,,,,,,,,,,,,,,,,,,,,,,,,,,,,,,,,,,,,,,,,,,,,,,,,,,,,,,,,,,,,,,,,,,,,,,,,,,,,,,,,,,,,,,,,,,,,,,,,,,,,,,,,,,,,,,,,,11821,1,2,0,3,0,42,2022_Jan_18_1136,short_answer,3.2.4,60.153700403194100,
"Answer as much as you remember, and be specific and concrete in your answers. It is best to try to be as faithful as possible to what the story actually said.
",,0,2,2,2,,,,,,,,,,,,,,,,,space,9.139583683994720,17.360903232001900,None,17.360903232001900,None,17.360903232001900,None,,,,,,,,,,,,,,,,,,,,,,,,,,,,,,,,,,,,,,,,,,,,,,,,,,,,,,,,,,,,,,,,,,,,,,,,,,,,,,,,,,,,,,,,,,,,,,,,,,,,,,,,,,,,,,,,,,,,,,,,,,,,,,,,,,,,,,,,,,,11821,1,2,0,3,0,42,2022_Jan_18_1136,short_answer,3.2.4,60.153700403194100,
"When you have finished typing your answer, hit ‘return’ to submit your answer and move onto the next question. ",,0,3,3,3,,,,,,,,,,,,,,,,,space,5.198718817999180,26.545912481000400,None,26.545912481000400,None,26.545912481000400,None,,,,,,,,,,,,,,,,,,,,,,,,,,,,,,,,,,,,,,,,,,,,,,,,,,,,,,,,,,,,,,,,,,,,,,,,,,,,,,,,,,,,,,,,,,,,,,,,,,,,,,,,,,,,,,,,,,,,,,,,,,,,,,,,,,,,,,,,,,,11821,1,2,0,3,0,42,2022_Jan_18_1136,short_answer,3.2.4,60.153700403194100,
,0,,,,,0,0,0,0,0,0,0,0,,,,,,,,,,,,,,,,,31.762239126997900,None,space,28.80838976600350,31.762239126997900,None,31.762239126997900,None,31.762239126997900,None,60.68013381600030,None,60.68013381600030,None,Maria wants her alpaca sweater back that she left in henry's dorm,Rows of desks,"[2, 1]",63.84516483399780,None,63.84516483399780,None,63.84516483399780,None,63.84516483399780,None,63.84516483399780,None,63.84516483399780,None,63.84516483399780,None,Introduction to philosophy and they were focusing on aristotle,92.06238499299800,None,92.06238499299800,None,92.06238499299800,None,92.06238499299800,None,92.06238499299800,None,92.06238499299800,None,92.06238499299800,None,,134.14414586200300,None,134.14414586200300,None,134.14414586200300,None,134.14414586200300,None,134.14414586200300,None,134.14414586200300,None,134.14414586200300,None,"The next assignment was over pre-aristotle, plato, and socrates and was on the coming thursday",151.82777752699600,None,151.82777752699600,None,151.82777752699600,None,151.82777752699600,None,151.82777752699600,None,151.82777752699600,None,151.82777752699600,None,1 week,192.9432708519960,None,192.9432708519960,None,192.9432708519960,None,192.9432708519960,None,192.9432708519960,None,192.9432708519960,None,192.9432708519960,None,Maria ia studying aboard and thinks that long distance is too hard for them and that she wont have time,201.99425894799800,None,201.99425894799800,None,201.99425894799800,None,201.99425894799800,None,201.99425894799800,None,201.99425894799800,None,201.99425894799800,None,Henry does not want to break up and he thinks they can make it work because he'll come and visit her.,231.6271852409990,None,231.6271852409990,None,231.6271852409990,None,231.6271852409990,None,231.6271852409990,None,231.6271852409990,None,231.6271852409990,None,Maria wants her alpaca sweater back that she left in henry's dorm,262.2273026280020,None,262.2273026280020,None,262.2273026280020,None,262.2273026280020,None,262.2273026280020,None,262.2273026280020,None,262.2273026280020,None,,,11821,1,2,0,3,0,42,2022_Jan_18_1136,short_answer,3.2.4,60.153700403194100,
,0,,,,,0,0,0,0,,,,,,,,,,,,,,,,,,,,,,,,,,,,,,,,,,,,,,,,,,,,,,,,,,,,,,,,,,,,,,,,,,,,,,,,,,,,,,,,,,,,,,,,,,,,,,,,,,,,,,,,,,,,,,,,,,,,,,,,,,,,,,,,,,,,,,,,,,,,,,,,,,,,,,,,,,,,,,,11821,1,2,0,3,0,42,2022_Jan_18_1136,short_answer,3.2.4,60.153700403194100,
,1,,,,,0,1,1,1,,,,,,,,,,,,,,,,,,,,,,,,,,,,,,,,,,,,,,,,,,,,,,,,,,,,,,,,,,,,,,,,,,,,,,,,,,,,,,,,,,,,,,,,,,,,,,,,,,,,,,,,,,,,,,,,,,,,,,,,,,,,,,,,,,,,,,,,,,,,,,,,,,,,,,,,,,,,,,,11821,1,2,0,3,0,42,2022_Jan_18_1136,short_answer,3.2.4,60.153700403194100,
,2,,,,,0,2,2,2,0,0,0,0,,,,,,,,,,,,,,,,,287.8254949609980,None,space,2.249067404001840,287.8254949609980,None,287.8254949609980,None,287.8254949609980,None,290.10919126000200,None,290.10919126000200,None,,45 minutes,"[2, 1]",292.97539701299700,None,292.97539701299700,None,292.97539701299700,None,292.97539701299700,None,292.97539701299700,None,292.97539701299700,None,292.97539701299700,None,,305.3763686149980,None,305.3763686149980,None,305.3763686149980,None,305.3763686149980,None,305.3763686149980,None,305.3763686149980,None,305.3763686149980,None,,321.15915019399800,None,321.15915019399800,None,321.15915019399800,None,321.15915019399800,None,321.15915019399800,None,321.15915019399800,None,321.15915019399800,None,Jessie is in 34a and calvin is 36f and both are in economy,329.27566562099700,None,329.27566562099700,None,329.27566562099700,None,329.27566562099700,None,329.27566562099700,None,329.27566562099700,None,329.27566562099700,None,Jessie has been thinking about it for 5 months,359.12531264699600,None,359.12531264699600,None,359.12531264699600,None,359.12531264699600,None,359.12531264699600,None,359.12531264699600,None,359.12531264699600,None,Jessie says that their personalities don't match,380.17516592399600,None,380.17516592399600,None,380.17516592399600,None,380.17516592399600,None,380.17516592399600,None,380.17516592399600,None,380.17516592399600,None,Calvin agrees with the break up even though he is mad because hes been trying to please her the whole trip and its gone unappreciated,402.35721174199700,None,402.35721174199700,None,402.35721174199700,None,402.35721174199700,None,402.35721174199700,None,402.35721174199700,None,402.35721174199700,None,,443.55753699199700,None,443.55753699199700,None,443.55753699199700,None,443.55753699199700,None,443.55753699199700,None,443.55753699199700,None,443.55753699199700,None,,,11821,1,2,0,3,0,42,2022_Jan_18_1136,short_answer,3.2.4,60.153700403194100,
,2,,,,,0,2,2,2,,,,,,,,,,,,,,,,,,,,,,,,,,,,,,,,,,,,,,,,,,,,,,,,,,,,,,,,,,,,,,,,,,,,,,,,,,,,,,,,,,,,,,,,,,,,,,,,,,,,,,,,,,,,,,,,,,,,,,,,,,,,,,,,,,,,,,,,,,,,,,,,,,,,,,,,,,,,,,,11821,1,2,0,3,0,42,2022_Jan_18_1136,short_answer,3.2.4,60.153700403194100,
,3,,,,,0,3,3,3,0,0,0,0,,,,,,,,,,,,,,,,,458.756877834996,None,space,1.301923925995650,458.756877834996,None,458.756877834996,None,458.756877834996,None,460.10752710799700,None,460.10752710799700,None,The groceries are 45 dollars total between both of them and simon pays in card,Carina is holding meat,"[1, 2]",463.0407891270010,None,463.0407891270010,None,463.0407891270010,None,463.0407891270010,None,463.0407891270010,None,463.0407891270010,None,463.0407891270010,None,Carina says to simon that this meat is cute,482.0072310530010,None,482.0072310530010,None,482.0072310530010,None,482.0072310530010,None,482.0072310530010,None,482.0072310530010,None,482.0072310530010,None,They are meeting on sunday for dinner,517.3735511290000,None,517.3735511290000,None,517.3735511290000,None,517.3735511290000,None,517.3735511290000,None,517.3735511290000,None,517.3735511290000,None,Four thirty,533.2232170840000,None,533.2232170840000,None,533.2232170840000,None,533.2232170840000,None,533.2232170840000,None,533.2232170840000,None,533.2232170840000,None,,545.7397009139970,None,545.7397009139970,None,545.7397009139970,None,545.7397009139970,None,545.7397009139970,None,545.7397009139970,None,545.7397009139970,None,Food for their barbeques. simon gets vegetebles and spices and carina gets meat,558.9400117010010,None,558.9400117010010,None,558.9400117010010,None,558.9400117010010,None,558.9400117010010,None,558.9400117010010,None,558.9400117010010,None,There is one open,611.4557088660000,None,611.4557088660000,None,611.4557088660000,None,611.4557088660000,None,611.4557088660000,None,611.4557088660000,None,611.4557088660000,None,The groceries are 45 dollars total between both of them and simon pays in card,622.672124425997,None,622.672124425997,None,622.672124425997,None,622.672124425997,None,622.672124425997,None,622.672124425997,None,622.672124425997,None,,,11821,1,2,0,3,0,42,2022_Jan_18_1136,short_answer,3.2.4,60.153700403194100,
,3,,,,,0,3,3,3,,,,,,,,,,,,,,,,,,,,,,,,,,,,,,,,,,,,,,,,,,,,,,,,,,,,,,,,,,,,,,,,,,,,,,,,,,,,,,,,,,,,,,,,,,,,,,,,,,,,,,,,,,,,,,,,,,,,,,,,,,,,,,,,,,,,,,,,,,,,,,,,,,,,,,,,,,,,,,,11821,1,2,0,3,0,42,2022_Jan_18_1136,short_answer,3.2.4,60.153700403194100,
,4,,,,,0,4,4,4,,,,,,,,,,,,,,,,,,,,,,,,,,,,,,,,,,,,,,,,,,,,,,,,,,,,,,,,,,,,,,,,,,,,,,,,,,,,,,,,,,,,,,,,,,,,,,,,,,,,,,,,,,,,,,,,,,,,,,,,,,,,,,,,,,,,,,,,,,,,,,,,,,,,,,,,,,,,,,,11821,1,2,0,3,0,42,2022_Jan_18_1136,short_answer,3.2.4,60.153700403194100,
,5,,,,,0,5,5,5,0,0,0,0,,,,,,,,,,,,,,,,,654.6884112650010,None,space,1.92738091499632,654.6884112650010,None,654.6884112650010,None,654.6884112650010,None,656.6551788599970,None,656.6551788599970,None,They secure the deal with a handshake.,2 hours,"[2, 1]",658.4887636299970,None,658.4887636299970,None,658.4887636299970,None,658.4887636299970,None,658.4887636299970,None,658.4887636299970,None,658.4887636299970,None,,662.7882859390010,None,662.7882859390010,None,662.7882859390010,None,662.7882859390010,None,662.7882859390010,None,662.7882859390010,None,662.7882859390010,None,Jeff's gate,667.921947650997,None,667.921947650997,None,667.921947650997,None,667.921947650997,None,667.921947650997,None,667.921947650997,None,667.921947650997,None,,680.604665134997,None,680.604665134997,None,680.604665134997,None,680.604665134997,None,680.604665134997,None,680.604665134997,None,680.604665134997,None,Jeff is a sales associate for a winery and william is a wine buyer for a company,683.1217387259970,None,683.1217387259970,None,683.1217387259970,None,683.1217387259970,None,683.1217387259970,None,683.1217387259970,None,683.1217387259970,None,The initial offer is buying jeff's sampling wines at 50 percent off for 800 dollars,708.4881983279990,None,708.4881983279990,None,708.4881983279990,None,708.4881983279990,None,708.4881983279990,None,708.4881983279990,None,708.4881983279990,None,,736.0045710339980,None,736.0045710339980,None,736.0045710339980,None,736.0045710339980,None,736.0045710339980,None,736.0045710339980,None,736.0045710339980,None,They secure the deal with a handshake.,739.3710147550010,None,739.3710147550010,None,739.3710147550010,None,739.3710147550010,None,739.3710147550010,None,739.3710147550010,None,739.3710147550010,None,,,11821,1,2,0,3,0,42,2022_Jan_18_1136,short_answer,3.2.4,60.153700403194100,
,5,,,,,0,5,5,5,,,,,,,,,,,,,,,,,,,,,,,,,,,,,,,,,,,,,,,,,,,,,,,,,,,,,,,,,,,,,,,,,,,,,,,,,,,,,,,,,,,,,,,,,,,,,,,,,,,,,,,,,,,,,,,,,,,,,,,,,,,,,,,,,,,,,,,,,,,,,,,,,,,,,,,,,,,,,,,11821,1,2,0,3,0,42,2022_Jan_18_1136,short_answer,3.2.4,60.153700403194100,
,6,,,,,0,6,6,6,0,0,0,0,,,,,,,,,,,,,,,,,749.9540008010010,None,space,1.267571163996760,749.9540008010010,None,749.9540008010010,None,749.9540008010010,None,751.2697089529980,None,751.2697089529980,None,Alex pays for the 14 dollar groceries in cash.,23 months,"[1, 2]",756.6205197050000,None,756.6205197050000,None,756.6205197050000,None,756.6205197050000,None,756.6205197050000,None,756.6205197050000,None,756.6205197050000,None,1 white diamond,760.437181948997,None,760.437181948997,None,760.437181948997,None,760.437181948997,None,760.437181948997,None,760.437181948997,None,760.437181948997,None,,770.2536627219960,None,770.2536627219960,None,770.2536627219960,None,770.2536627219960,None,770.2536627219960,None,770.2536627219960,None,770.2536627219960,None,Chloe texts her mom,776.0202936150020,None,776.0202936150020,None,776.0202936150020,None,776.0202936150020,None,776.0202936150020,None,776.0202936150020,None,776.0202936150020,None,Its crowded because people are shopping for thanksgiving,783.986950393999,None,783.986950393999,None,783.986950393999,None,783.986950393999,None,783.986950393999,None,783.986950393999,None,783.986950393999,None,,807.8870086820030,None,807.8870086820030,None,807.8870086820030,None,807.8870086820030,None,807.8870086820030,None,807.8870086820030,None,807.8870086820030,None,,811.6702357199970,None,811.6702357199970,None,811.6702357199970,None,811.6702357199970,None,811.6702357199970,None,811.6702357199970,None,811.6702357199970,None,Alex pays for the 14 dollar groceries in cash.,816.9875399759990,None,816.9875399759990,None,816.9875399759990,None,816.9875399759990,None,816.9875399759990,None,816.9875399759990,None,816.9875399759990,None,,,11821,1,2,0,3,0,42,2022_Jan_18_1136,short_answer,3.2.4,60.153700403194100,
,6,,,,,0,6,6,6,,,,,,,,,,,,,,,,,,,,,,,,,,,,,,,,,,,,,,,,,,,,,,,,,,,,,,,,,,,,,,,,,,,,,,,,,,,,,,,,,,,,,,,,,,,,,,,,,,,,,,,,,,,,,,,,,,,,,,,,,,,,,,,,,,,,,,,,,,,,,,,,,,,,,,,,,,,,,,,11821,1,2,0,3,0,42,2022_Jan_18_1136,short_answer,3.2.4,60.153700403194100,
,7,,,,,0,7,7,7,0,0,0,0,,,,,,,,,,,,,,,,,835.4522881529990,None,space,1.082308358993030,835.4522881529990,None,835.4522881529990,None,835.4522881529990,None,836.5689243149970,None,836.5689243149970,None,,,"[2, 1]",838.570345881999,None,838.570345881999,None,838.570345881999,None,838.570345881999,None,838.570345881999,None,838.570345881999,None,838.570345881999,None,Neon yellow,844.6852232719980,None,844.6852232719980,None,844.6852232719980,None,844.6852232719980,None,844.6852232719980,None,844.6852232719980,None,844.6852232719980,None,Teresa orders a salmon roll and japanese beer. james orders a tuna roll and a vegetable roll,856.5360605399980,None,856.5360605399980,None,856.5360605399980,None,856.5360605399980,None,856.5360605399980,None,856.5360605399980,None,856.5360605399980,None,They both really liked what they ordered.,902.0184468239970,None,902.0184468239970,None,902.0184468239970,None,902.0184468239970,None,902.0184468239970,None,902.0184468239970,None,902.0184468239970,None,,917.3857599280020,None,917.3857599280020,None,917.3857599280020,None,917.3857599280020,None,917.3857599280020,None,917.3857599280020,None,917.3857599280020,None,James asks teresa if her forehead is okay,933.9855139319990,None,933.9855139319990,None,933.9855139319990,None,933.9855139319990,None,933.9855139319990,None,933.9855139319990,None,933.9855139319990,None,The couple will be meeting later that night to go to an egypt concert,949.4185743429990,None,949.4185743429990,None,949.4185743429990,None,949.4185743429990,None,949.4185743429990,None,949.4185743429990,None,949.4185743429990,None,,1018.3499577340000,None,1018.3499577340000,None,1018.3499577340000,None,1018.3499577340000,None,1018.3499577340000,None,1018.3499577340000,None,1018.3499577340000,None,,,11821,1,2,0,3,0,42,2022_Jan_18_1136,short_answer,3.2.4,60.153700403194100,
,7,,,,,0,7,7,7,,,,,,,,,,,,,,,,,,,,,,,,,,,,,,,,,,,,,,,,,,,,,,,,,,,,,,,,,,,,,,,,,,,,,,,,,,,,,,,,,,,,,,,,,,,,,,,,,,,,,,,,,,,,,,,,,,,,,,,,,,,,,,,,,,,,,,,,,,,,,,,,,,,,,,,,,,,,,,,11821,1,2,0,3,0,42,2022_Jan_18_1136,short_answer,3.2.4,60.153700403194100,
,8,,,,,0,8,8,8,,,,,,,,,,,,,,,,,,,,,,,,,,,,,,,,,,,,,,,,,,,,,,,,,,,,,,,,,,,,,,,,,,,,,,,,,,,,,,,,,,,,,,,,,,,,,,,,,,,,,,,,,,,,,,,,,,,,,,,,,,,,,,,,,,,,,,,,,,,,,,,,,,,,,,,,,,,,,,,11821,1,2,0,3,0,42,2022_Jan_18_1136,short_answer,3.2.4,60.153700403194100,
,9,,,,,0,9,9,9,0,0,0,0,,,,,,,,,,,,,,,,,1021.3830259070000,None,space,1.222340095002440,1021.3830259070000,None,1021.3830259070000,None,1021.3830259070000,None,1022.6501610060000,None,1022.6501610060000,None,The next assessment is friday over mummification.,,"[1, 2]",1025.0681361270000,None,1025.0681361270000,None,1025.0681361270000,None,1025.0681361270000,None,1025.0681361270000,None,1025.0681361270000,None,1025.0681361270000,None,Leon asks ariana on a note if she is from la because she looks familiar,1033.3505967070000,None,1033.3505967070000,None,1033.3505967070000,None,1033.3505967070000,None,1033.3505967070000,None,1033.3505967070000,None,1033.3505967070000,None,They will be going on a walk in the evening.,1058.9335417610000,None,1058.9335417610000,None,1058.9335417610000,None,1058.9335417610000,None,1058.9335417610000,None,1058.9335417610000,None,1058.9335417610000,None,It is almost noon,1080.200332140000,None,1080.200332140000,None,1080.200332140000,None,1080.200332140000,None,1080.200332140000,None,1080.200332140000,None,1080.200332140000,None,Rows of desks and the desks are foldable and theres a chalk board at the front. the lecture hall is also in the basement,1093.983094080000,None,1093.983094080000,None,1093.983094080000,None,1093.983094080000,None,1093.983094080000,None,1093.983094080000,None,1093.983094080000,None,History of egypt and mummification,1129.7833605320000,None,1129.7833605320000,None,1129.7833605320000,None,1129.7833605320000,None,1129.7833605320000,None,1129.7833605320000,None,1129.7833605320000,None,"Mummification happens before, during and after death. it takes several trained professionals 70 days to do.",1161.431972599000,None,1161.431972599000,None,1161.431972599000,None,1161.431972599000,None,1161.431972599000,None,1161.431972599000,None,1161.431972599000,None,The next assessment is friday over mummification.,1199.232432649000,None,1199.232432649000,None,1199.232432649000,None,1199.232432649000,None,1199.232432649000,None,1199.232432649000,None,1199.232432649000,None,,,11821,1,2,0,3,0,42,2022_Jan_18_1136,short_answer,3.2.4,60.153700403194100,
,9,,,,,0,9,9,9,,,,,,,,,,,,,,,,,,,,,,,,,,,,,,,,,,,,,,,,,,,,,,,,,,,,,,,,,,,,,,,,,,,,,,,,,,,,,,,,,,,,,,,,,,,,,,,,,,,,,,,,,,,,,,,,,,,,,,,,,,,,,,,,,,,,,,,,,,,,,,,,,,,,,,,,,,,,,,,11821,1,2,0,3,0,42,2022_Jan_18_1136,short_answer,3.2.4,60.153700403194100,
,10,,,,,0,10,10,10,0,0,0,0,,,,,,,,,,,,,,,,,1223.8466474720000,None,space,1.4738126520023800,1223.8466474720000,None,1223.8466474720000,None,1223.8466474720000,None,1225.3644283060000,None,1225.3644283060000,None,Popping a bottle of champange,,"[2, 1]",1228.4817455260000,None,1228.4817455260000,None,1228.4817455260000,None,1228.4817455260000,None,1228.4817455260000,None,1228.4817455260000,None,1228.4817455260000,None,"Crackers, ketchup and sparkling water",1235.5151702020000,None,1235.5151702020000,None,1235.5151702020000,None,1235.5151702020000,None,1235.5151702020000,None,1235.5151702020000,None,1235.5151702020000,None,One lane,1262.7806649860000,None,1262.7806649860000,None,1262.7806649860000,None,1262.7806649860000,None,1262.7806649860000,None,1262.7806649860000,None,1262.7806649860000,None,Ms. morrison pays for 21 dolllars of groceries with a check,1268.7979696680000,None,1268.7979696680000,None,1268.7979696680000,None,1268.7979696680000,None,1268.7979696680000,None,1268.7979696680000,None,1268.7979696680000,None,,1291.7311258490000,None,1291.7311258490000,None,1291.7311258490000,None,1291.7311258490000,None,1291.7311258490000,None,1291.7311258490000,None,1291.7311258490000,None,1500,1296.3973387800000,None,1296.3973387800000,None,1296.3973387800000,None,1296.3973387800000,None,1296.3973387800000,None,1296.3973387800000,None,1296.3973387800000,None,,1306.9638149730000,None,1306.9638149730000,None,1306.9638149730000,None,1306.9638149730000,None,1306.9638149730000,None,1306.9638149730000,None,1306.9638149730000,None,Popping a bottle of champange,1309.563814938000,None,1309.563814938000,None,1309.563814938000,None,1309.563814938000,None,1309.563814938000,None,1309.563814938000,None,1309.563814938000,None,,,11821,1,2,0,3,0,42,2022_Jan_18_1136,short_answer,3.2.4,60.153700403194100,
,10,,,,,0,10,10,10,,,,,,,,,,,,,,,,,,,,,,,,,,,,,,,,,,,,,,,,,,,,,,,,,,,,,,,,,,,,,,,,,,,,,,,,,,,,,,,,,,,,,,,,,,,,,,,,,,,,,,,,,,,,,,,,,,,,,,,,,,,,,,,,,,,,,,,,,,,,,,,,,,,,,,,,,,,,,,,11821,1,2,0,3,0,42,2022_Jan_18_1136,short_answer,3.2.4,60.153700403194100,
,11,,,,,0,11,11,11,0,0,0,0,,,,,,,,,,,,,,,,,1326.5457959630000,None,space,1.0399252889983500,1326.5457959630000,None,1326.5457959630000,None,1326.5457959630000,None,1327.629608656000,None,1327.629608656000,None,,,"[1, 2]",1329.1145318590000,None,1329.1145318590000,None,1329.1145318590000,None,1329.1145318590000,None,1329.1145318590000,None,1329.1145318590000,None,1329.1145318590000,None,Are you a gymnast,1333.579636414000,None,1333.579636414000,None,1333.579636414000,None,1333.579636414000,None,1333.579636414000,None,1333.579636414000,None,1333.579636414000,None,Next tuesday,1349.362809913,None,1349.362809913,None,1349.362809913,None,1349.362809913,None,1349.362809913,None,1349.362809913,None,1349.362809913,None,Eleven fifty five,1354.230410638000,None,1354.230410638000,None,1354.230410638000,None,1354.230410638000,None,1354.230410638000,None,1354.230410638000,None,1354.230410638000,None,,1365.6131364210000,None,1365.6131364210000,None,1365.6131364210000,None,1365.6131364210000,None,1365.6131364210000,None,1365.6131364210000,None,1365.6131364210000,None,,1370.4634946450000,None,1370.4634946450000,None,1370.4634946450000,None,1370.4634946450000,None,1370.4634946450000,None,1370.4634946450000,None,1370.4634946450000,None,Anna's gate,1380.979717428000,None,1380.979717428000,None,1380.979717428000,None,1380.979717428000,None,1380.979717428000,None,1380.979717428000,None,1380.979717428000,None,,1388.14667663,None,1388.14667663,None,1388.14667663,None,1388.14667663,None,1388.14667663,None,1388.14667663,None,1388.14667663,None,,,11821,1,2,0,3,0,42,2022_Jan_18_1136,short_answer,3.2.4,60.153700403194100,
,11,,,,,0,11,11,11,,,,,,,,,,,,,,,,,,,,,,,,,,,,,,,,,,,,,,,,,,,,,,,,,,,,,,,,,,,,,,,,,,,,,,,,,,,,,,,,,,,,,,,,,,,,,,,,,,,,,,,,,,,,,,,,,,,,,,,,,,,,,,,,,,,,,,,,,,,,,,,,,,,,,,,,,,,,,,,11821,1,2,0,3,0,42,2022_Jan_18_1136,short_answer,3.2.4,60.153700403194100,
,12,,,,,0,12,12,12,0,0,0,0,,,,,,,,,,,,,,,,,1390.5626463090000,None,space,1.4523119560035400,1390.5626463090000,None,1390.5626463090000,None,1390.5626463090000,None,1392.0625063890000,None,1392.0625063890000,None,,11 months,"[1, 2]",1394.2127666080000,None,1394.2127666080000,None,1394.2127666080000,None,1394.2127666080000,None,1394.2127666080000,None,1394.2127666080000,None,1394.2127666080000,None,2 pink diamonds,1398.329026917000,None,1398.329026917000,None,1398.329026917000,None,1398.329026917000,None,1398.329026917000,None,1398.329026917000,None,1398.329026917000,None,A velvet case,1404.6788676450000,None,1404.6788676450000,None,1404.6788676450000,None,1404.6788676450000,None,1404.6788676450000,None,1404.6788676450000,None,1404.6788676450000,None,Isabel texts her best friend,1410.1289029090000,None,1410.1289029090000,None,1410.1289029090000,None,1410.1289029090000,None,1410.1289029090000,None,1410.1289029090000,None,1410.1289029090000,None,,1425.5126509040000,None,1425.5126509040000,None,1425.5126509040000,None,1425.5126509040000,None,1425.5126509040000,None,1425.5126509040000,None,1425.5126509040000,None,A person has a lot of metal on them,1430.211889391000,None,1430.211889391000,None,1430.211889391000,None,1430.211889391000,None,1430.211889391000,None,1430.211889391000,None,1430.211889391000,None,,1438.3450641890000,None,1438.3450641890000,None,1438.3450641890000,None,1438.3450641890000,None,1438.3450641890000,None,1438.3450641890000,None,1438.3450641890000,None,,1441.0123539910000,None,1441.0123539910000,None,1441.0123539910000,None,1441.0123539910000,None,1441.0123539910000,None,1441.0123539910000,None,1441.0123539910000,None,,,11821,1,2,0,3,0,42,2022_Jan_18_1136,short_answer,3.2.4,60.153700403194100,
,12,,,,,0,12,12,12,,,,,,,,,,,,,,,,,,,,,,,,,,,,,,,,,,,,,,,,,,,,,,,,,,,,,,,,,,,,,,,,,,,,,,,,,,,,,,,,,,,,,,,,,,,,,,,,,,,,,,,,,,,,,,,,,,,,,,,,,,,,,,,,,,,,,,,,,,,,,,,,,,,,,,,,,,,,,,,11821,1,2,0,3,0,42,2022_Jan_18_1136,short_answer,3.2.4,60.153700403194100,
,13,,,,,0,13,13,13,0,0,0,0,,,,,,,,,,,,,,,,,1444.7619712560000,None,space,3.305738773997290,1444.7619712560000,None,1444.7619712560000,None,1444.7619712560000,None,1448.1123562830000,None,1448.1123562830000,None,Emmanuella pays for the 30 dollar groceries with card,5 months,"[1, 2]",1450.195880304000,None,1450.195880304000,None,1450.195880304000,None,1450.195880304000,None,1450.195880304000,None,1450.195880304000,None,1450.195880304000,None,They fight too much ,1461.9619852200000,None,1461.9619852200000,None,1461.9619852200000,None,1461.9619852200000,None,1461.9619852200000,None,1461.9619852200000,None,1461.9619852200000,None,Liam does want to break up too because he is also tired of the fighting,1473.3446572330000,None,1473.3446572330000,None,1473.3446572330000,None,1473.3446572330000,None,1473.3446572330000,None,1473.3446572330000,None,1473.3446572330000,None,Emmanuella wants the cat but liam claims its his,1490.7953872560000,None,1490.7953872560000,None,1490.7953872560000,None,1490.7953872560000,None,1490.7953872560000,None,1490.7953872560000,None,1490.7953872560000,None,,1505.1451639270000,None,1505.1451639270000,None,1505.1451639270000,None,1505.1451639270000,None,1505.1451639270000,None,1505.1451639270000,None,1505.1451639270000,None,Items for their dinner party like pasta,1509.4617695210000,None,1509.4617695210000,None,1509.4617695210000,None,1509.4617695210000,None,1509.4617695210000,None,1509.4617695210000,None,1509.4617695210000,None,,1522.0455510760000,None,1522.0455510760000,None,1522.0455510760000,None,1522.0455510760000,None,1522.0455510760000,None,1522.0455510760000,None,1522.0455510760000,None,Emmanuella pays for the 30 dollar groceries with card,1529.1287859130000,None,1529.1287859130000,None,1529.1287859130000,None,1529.1287859130000,None,1529.1287859130000,None,1529.1287859130000,None,1529.1287859130000,None,,,11821,1,2,0,3,0,42,2022_Jan_18_1136,short_answer,3.2.4,60.153700403194100,
,13,,,,,0,13,13,13,,,,,,,,,,,,,,,,,,,,,,,,,,,,,,,,,,,,,,,,,,,,,,,,,,,,,,,,,,,,,,,,,,,,,,,,,,,,,,,,,,,,,,,,,,,,,,,,,,,,,,,,,,,,,,,,,,,,,,,,,,,,,,,,,,,,,,,,,,,,,,,,,,,,,,,,,,,,,,,11821,1,2,0,3,0,42,2022_Jan_18_1136,short_answer,3.2.4,60.153700403194100,
,14,,,,,0,14,14,14,0,0,0,0,,,,,,,,,,,,,,,,,1544.9272675620000,None,space,1.5625968640015300,1544.9272675620000,None,1544.9272675620000,None,1544.9272675620000,None,1546.527439132000,None,1546.527439132000,None,Thomas has an unpleasent taste when he takes a bite of his burger,,"[1, 2]",1548.127442446000,None,1548.127442446000,None,1548.127442446000,None,1548.127442446000,None,1548.127442446000,None,1548.127442446000,None,1548.127442446000,None,Thomas is uncure about his career and needs time to figure it out on his own,1550.060648261000,None,1550.060648261000,None,1550.060648261000,None,1550.060648261000,None,1550.060648261000,None,1550.060648261000,None,1550.060648261000,None,Sadie doesn’t want to break up.,1565.2273146310000,None,1565.2273146310000,None,1565.2273146310000,None,1565.2273146310000,None,1565.2273146310000,None,1565.2273146310000,None,1565.2273146310000,None,,1570.8771602070000,None,1570.8771602070000,None,1570.8771602070000,None,1570.8771602070000,None,1570.8771602070000,None,1570.8771602070000,None,1570.8771602070000,None,An older diner,1581.5942763580000,None,1581.5942763580000,None,1581.5942763580000,None,1581.5942763580000,None,1581.5942763580000,None,1581.5942763580000,None,1581.5942763580000,None,Laminated,1595.0941815080000,None,1595.0941815080000,None,1595.0941815080000,None,1595.0941815080000,None,1595.0941815080000,None,1595.0941815080000,None,1595.0941815080000,None,Thomas orders a burger with no tomatoes and sadie order rueben,1599.9757439120000,None,1599.9757439120000,None,1599.9757439120000,None,1599.9757439120000,None,1599.9757439120000,None,1599.9757439120000,None,1599.9757439120000,None,Thomas has an unpleasent taste when he takes a bite of his burger,1617.360104872000,None,1617.360104872000,None,1617.360104872000,None,1617.360104872000,None,1617.360104872000,None,1617.360104872000,None,1617.360104872000,None,,,11821,1,2,0,3,0,42,2022_Jan_18_1136,short_answer,3.2.4,60.153700403194100,
,14,,,,,0,14,14,14,,,,,,,,,,,,,,,,,,,,,,,,,,,,,,,,,,,,,,,,,,,,,,,,,,,,,,,,,,,,,,,,,,,,,,,,,,,,,,,,,,,,,,,,,,,,,,,,,,,,,,,,,,,,,,,,,,,,,,,,,,,,,,,,,,,,,,,,,,,,,,,,,,,,,,,,,,,,,,,11821,1,2,0,3,0,42,2022_Jan_18_1136,short_answer,3.2.4,60.153700403194100,
,15,,,,,0,15,15,15,,,,,,,,,,,,,,,,,,,,,,,,,,,,,,,,,,,,,,,,,,,,,,,,,,,,,,,,,,,,,,,,,,,,,,,,,,,,,,,,,,,,,,,,,,,,,,,,,,,,,,,,,,,,,,,,,,,,,,,,,,,,,,,,,,,,,,,,,,,,,,,,,,,,,,,,,,,,,,,11821,1,2,0,3,0,42,2022_Jan_18_1136,short_answer,3.2.4,60.153700403194100,
,,,,,,,,,,,,,,0,0,0,0,,,,,,,,,,,,,,,,,,,,,,,,,,,,,,,,,,,,,,,,,,,,,,,,,,,,,,,,,,,,,,,,,,,,,,,,,,,,,,,,,,,,,,,,,,,,,,,,,,,,,,,,,,,,,,,,,,,,,,,,,,,,,,,,,,,,,,,,,,,,,,,,,,,,,1643.525468561000,None,11821,1,2,0,3,0,42,2022_Jan_18_1136,short_answer,3.2.4,60.153700403194100,