count,audio,trials_14.thisRepN,trials_14.thisTrialN,trials_14.thisN,trials_14.thisIndex,trials_3.thisRepN,trials_3.thisTrialN,trials_3.thisN,trials_3.thisIndex,trials_4.thisRepN,trials_4.thisTrialN,trials_4.thisN,trials_4.thisIndex,trials_6.thisRepN,trials_6.thisTrialN,trials_6.thisN,trials_6.thisIndex,trials_9.thisRepN,trials_9.thisTrialN,trials_9.thisN,trials_9.thisIndex,trials_10.thisRepN,trials_10.thisTrialN,trials_10.thisN,trials_10.thisIndex,trials_11.thisRepN,trials_11.thisTrialN,trials_11.thisN,trials_11.thisIndex,trials_12.thisRepN,trials_12.thisTrialN,trials_12.thisN,trials_12.thisIndex,trials_25.thisRepN,trials_25.thisTrialN,trials_25.thisN,trials_25.thisIndex,trials_15.thisRepN,trials_15.thisTrialN,trials_15.thisN,trials_15.thisIndex,trials_26.thisRepN,trials_26.thisTrialN,trials_26.thisN,trials_26.thisIndex,story_list_block2,action_list_block2,textTrigger.started,textTrigger.stopped,getTrigger.keys,getTrigger.rt,getTrigger.started,getTrigger.stopped,triggerTime,text_76.started,text_76.stopped,text_77.started,text_77.stopped,startWait,endWait,image_23.started,image_23.stopped,text_55.started,text_55.stopped,text_56.started,text_56.stopped,key_resp_2.keys,key_resp_2.rt,key_resp_2.started,key_resp_2.stopped,text_82.started,text_82.stopped,text_57.started,text_57.stopped,key_resp_17.keys,key_resp_17.rt,key_resp_17.started,key_resp_17.stopped,text_83.started,text_83.stopped,text_60.started,text_60.stopped,image_2.started,image_2.stopped,text_58.started,text_58.stopped,key_resp_23.keys,key_resp_23.rt,key_resp_23.started,key_resp_23.stopped,text_62.started,text_62.stopped,key_resp_18.keys,key_resp_18.rt,key_resp_18.started,key_resp_18.stopped,text_84.started,text_84.stopped,question1_2.started,question1_2.stopped,question2_2.started,question2_2.stopped,question3_2.started,question3_2.stopped,question4_2.started,question4_2.stopped,question5_2.started,question5_2.stopped,question6_2.started,question6_2.stopped,image_15.started,image_15.stopped,key_resp.keys,key_resp.started,key_resp.stopped,text_59.started,text_59.stopped,key_resp_19.keys,key_resp_19.rt,key_resp_19.started,key_resp_19.stopped,text_85.started,text_85.stopped,text_61.started,text_61.stopped,image_17.started,image_17.stopped,text_63.started,text_63.stopped,key_resp_24.keys,key_resp_24.rt,key_resp_24.started,key_resp_24.stopped,text_64.started,text_64.stopped,key_resp_20.keys,key_resp_20.rt,key_resp_20.started,key_resp_20.stopped,storyImage_StartTime,storyImage_EndTime,clip_StartTime,clip_EndTime,text_67.started,text_67.stopped,text_68.started,text_68.stopped,participant,sA,sB,lA,lB,block_struct,play_stories,block,behavioral,random_seed,date,expName,psychopyVersion,frameRate,
0,,,,,,,,,,0,0,0,0,0,0,0,0,,,,,,,,,,,,,,,,,,,,,,,,,,,,,[24 44 33 42 22 13 11 31],[3 2 1 4 1 4 2 3],16.590416200000618,None,equal,34.154547815000114,16.590416200000618,None,34.17253596000228,16.590416200000618,None,16.590416200000618,None,0.00031087200113688596,6.009000588997878,50.765283584001736,None,,,,,,,,,,,,,,,,,,,,,,,,,,,,,,,,,,,,,,,,,,,,,,,,,,,,,,,,,,,,,,,,,,,,,,,,,,,,,,,,,,,,,,011821,1,2,0,3,0,1,2,0,42,2022_Jan_18_1019,listening_fmri,3.2.4,60.161409451950234,
1,,,,,,,,,,0,0,0,0,0,1,1,1,0,0,0,0,0,0,0,0,0,0,0,0,,,,,,,,,,,,,,,,,,,,,,,,,,,,,,,,,,56.78093501400144,None,56.78093501400144,None,2,2.0379267540010915,56.78093501400144,None,56.78093501400144,None,58.848303762002615,None,2,1.636653738001769,58.848303762002615,None,58.848303762002615,None,60.52309879000313,None,60.52309879000313,None,60.52309879000313,None,2,2.291753030000109,60.52309879000313,None,62.83150153800307,None,2,2.858434378998936,62.83150153800307,None,62.83150153800307,None,65.78962855300051,None,65.78962855300051,None,65.78962855300051,None,65.78962855300051,None,65.78962855300051,None,65.78962855300051,None,65.78962855300051,None,None,65.78962855300051,None,,,,,,,,,,,,,,,,,,,,,,,,,,,,,,,,,011821,1,2,0,3,0,1,2,0,42,2022_Jan_18_1019,listening_fmri,3.2.4,60.161409451950234,
1,,,,,,,,,,0,0,0,0,0,1,1,1,0,0,0,0,0,0,0,0,,,,,,,,,,,,,,,,,,,,,,,,,,,,,,,,,,,,,,,,,,,,,,,,,,,,,,,,,,,,,,,,,,,,,,,,,,,,,,,,,,,,,,,,,,,86.5313773750022,None,2,1.6954984320000221,86.5313773750022,None,86.5313773750022,None,88.26448801600054,None,88.26448801600054,None,88.26448801600054,None,2,4.438462926998909,88.26448801600054,None,,,,,,,,,,,,,,,011821,1,2,0,3,0,1,2,0,42,2022_Jan_18_1019,listening_fmri,3.2.4,60.161409451950234,
1,parcelated_audio/44/44_1.ogg,,,,,,,,,0,0,0,0,0,1,1,1,0,0,0,0,,,,,,,,,,,,,0,0,0,0,0,0,0,0,,,,,,,,,,,,,,,,,,,,,,,,,,,,,,,,,,,,,,,,,,,,,,,,,,,,,,,,,,,,,,,,,,,,,,,,,,,,,,,,,,,,,,,,,,,,,92.73128806000022,None,2,1.77066365799692,92.73128806000022,None,43.7833221769979,46.78386410099847,46.79249905300094,54.72032430699983,,,,,011821,1,2,0,3,0,1,2,0,42,2022_Jan_18_1019,listening_fmri,3.2.4,60.161409451950234,
1,parcelated_audio/44/44_2.ogg,,,,,,,,,0,0,0,0,0,1,1,1,0,0,0,0,,,,,,,,,,,,,0,0,0,0,0,1,1,1,,,,,,,,,,,,,,,,,,,,,,,,,,,,,,,,,,,,,,,,,,,,,,,,,,,,,,,,,,,,,,,,,,,,,,,,,,,,,,,,,,,,,,,,,,,,,,,,,,,,,54.72069790299793,63.83745354799976,,,,,011821,1,2,0,3,0,1,2,0,42,2022_Jan_18_1019,listening_fmri,3.2.4,60.161409451950234,
1,parcelated_audio/44/44_3.ogg,,,,,,,,,0,0,0,0,0,1,1,1,0,0,0,0,,,,,,,,,,,,,0,0,0,0,0,2,2,2,,,,,,,,,,,,,,,,,,,,,,,,,,,,,,,,,,,,,,,,,,,,,,,,,,,,,,,,,,,,,,,,,,,,,,,,,,,,,,,,,,,,,,,,,,,,,,,,,,,,,63.83781776199976,69.27475825399961,,,,,011821,1,2,0,3,0,1,2,0,42,2022_Jan_18_1019,listening_fmri,3.2.4,60.161409451950234,
1,parcelated_audio/44/44_4.ogg,,,,,,,,,0,0,0,0,0,1,1,1,0,0,0,0,,,,,,,,,,,,,0,0,0,0,0,3,3,3,,,,,,,,,,,,,,,,,,,,,,,,,,,,,,,,,,,,,,,,,,,,,,,,,,,,,,,,,,,,,,,,,,,,,,,,,,,,,,,,,,,,,,,,,,,,,,,,,,,,,69.27511974799927,74.3529482749982,,,,,011821,1,2,0,3,0,1,2,0,42,2022_Jan_18_1019,listening_fmri,3.2.4,60.161409451950234,
1,parcelated_audio/44/44_5.ogg,,,,,,,,,0,0,0,0,0,1,1,1,0,0,0,0,,,,,,,,,,,,,0,0,0,0,0,4,4,4,,,,,,,,,,,,,,,,,,,,,,,,,,,,,,,,,,,,,,,,,,,,,,,,,,,,,,,,,,,,,,,,,,,,,,,,,,,,,,,,,,,,,,,,,,,,,,,,,,,,,74.3533171300005,80.58791254400057,,,,,011821,1,2,0,3,0,1,2,0,42,2022_Jan_18_1019,listening_fmri,3.2.4,60.161409451950234,
1,parcelated_audio/44/44_6.ogg,,,,,,,,,0,0,0,0,0,1,1,1,0,0,0,0,,,,,,,,,,,,,0,0,0,0,0,5,5,5,,,,,,,,,,,,,,,,,,,,,,,,,,,,,,,,,,,,,,,,,,,,,,,,,,,,,,,,,,,,,,,,,,,,,,,,,,,,,,,,,,,,,,,,,,,,,,,,,,,,,80.58824896299848,87.5329429400008,,,,,011821,1,2,0,3,0,1,2,0,42,2022_Jan_18_1019,listening_fmri,3.2.4,60.161409451950234,
1,parcelated_audio/44/44_7.ogg,,,,,,,,,0,0,0,0,0,1,1,1,0,0,0,0,,,,,,,,,,,,,0,0,0,0,0,6,6,6,,,,,,,,,,,,,,,,,,,,,,,,,,,,,,,,,,,,,,,,,,,,,,,,,,,,,,,,,,,,,,,,,,,,,,,,,,,,,,,,,,,,,,,,,,,,,,,,,,,,,87.53377822499897,93.56040974699863,,,,,011821,1,2,0,3,0,1,2,0,42,2022_Jan_18_1019,listening_fmri,3.2.4,60.161409451950234,
1,parcelated_audio/44/44_8.ogg,,,,,,,,,0,0,0,0,0,1,1,1,0,0,0,0,,,,,,,,,,,,,0,0,0,0,0,7,7,7,,,,,,,,,,,,,,,,,,,,,,,,,,,,,,,,,,,,,,,,,,,,,,,,,,,,,,,,,,,,,,,,,,,,,,,,,,,,,,,,,,,,,,,,,,,,,,,,,,,,,93.56078710300062,97.93584528399879,,,,,011821,1,2,0,3,0,1,2,0,42,2022_Jan_18_1019,listening_fmri,3.2.4,60.161409451950234,
1,parcelated_audio/44/44_9.ogg,,,,,,,,,0,0,0,0,0,1,1,1,0,0,0,0,,,,,,,,,,,,,0,0,0,0,0,8,8,8,,,,,,,,,,,,,,,,,,,,,,,,,,,,,,,,,,,,,,,,,,,,,,,,,,,,,,,,,,,,,,,,,,,,,,,,,,,,,,,,,,,,,,,,,,,,,,,,,,,,,97.93625098399934,101.63493186199776,,,,,011821,1,2,0,3,0,1,2,0,42,2022_Jan_18_1019,listening_fmri,3.2.4,60.161409451950234,
1,parcelated_audio/44/44_10.ogg,,,,,,,,,0,0,0,0,0,1,1,1,0,0,0,0,,,,,,,,,,,,,0,0,0,0,0,9,9,9,,,,,,,,,,,,,,,,,,,,,,,,,,,,,,,,,,,,,,,,,,,,,,,,,,,,,,,,,,,,,,,,,,,,,,,,,,,,,,,,,,,,,,,,,,,,,,,,,,,,,101.63528126899837,111.76284741699783,,,,,011821,1,2,0,3,0,1,2,0,42,2022_Jan_18_1019,listening_fmri,3.2.4,60.161409451950234,
1,parcelated_audio/44/44_11.ogg,,,,,,,,,0,0,0,0,0,1,1,1,0,0,0,0,,,,,,,,,,,,,0,0,0,0,0,10,10,10,,,,,,,,,,,,,,,,,,,,,,,,,,,,,,,,,,,,,,,,,,,,,,,,,,,,,,,,,,,,,,,,,,,,,,,,,,,,,,,,,,,,,,,,,,,,,,,,,,,,,111.76319876399793,115.3148801339994,,,,,011821,1,2,0,3,0,1,2,0,42,2022_Jan_18_1019,listening_fmri,3.2.4,60.161409451950234,
1,parcelated_audio/44/44_12.ogg,,,,,,,,,0,0,0,0,0,1,1,1,0,0,0,0,,,,,,,,,,,,,0,0,0,0,0,11,11,11,,,,,,,,,,,,,,,,,,,,,,,,,,,,,,,,,,,,,,,,,,,,,,,,,,,,,,,,,,,,,,,,,,,,,,,,,,,,,,,,,,,,,,,,,,,,,,,,,,,,,115.31539465199967,125.9068654799994,,,,,011821,1,2,0,3,0,1,2,0,42,2022_Jan_18_1019,listening_fmri,3.2.4,60.161409451950234,
1,parcelated_audio/44/44_13.ogg,,,,,,,,,0,0,0,0,0,1,1,1,0,0,0,0,,,,,,,,,,,,,0,0,0,0,0,12,12,12,,,,,,,,,,,,,,,,,,,,,,,,,,,,,,,,,,,,,,,,,,,,,,,,,,,,,,,,,,,,,,,,,,,,,,,,,,,,,,,,,,,,,,,,,,,,,,,,,,,,,125.90721970400045,133.07186966299923,,,,,011821,1,2,0,3,0,1,2,0,42,2022_Jan_18_1019,listening_fmri,3.2.4,60.161409451950234,
1,parcelated_audio/44/44_14.ogg,,,,,,,,,0,0,0,0,0,1,1,1,0,0,0,0,,,,,,,,,,,,,0,0,0,0,0,13,13,13,,,,,,,,,,,,,,,,,,,,,,,,,,,,,,,,,,,,,,,,,,,,,,,,,,,,,,,,,,,,,,,,,,,,,,,,,,,,,,,,,,,,,,,,,,,,,,,,,,,,,133.0722227139995,139.3874660420006,,,,,011821,1,2,0,3,0,1,2,0,42,2022_Jan_18_1019,listening_fmri,3.2.4,60.161409451950234,
1,parcelated_audio/44/44_15.ogg,,,,,,,,,0,0,0,0,0,1,1,1,0,0,0,0,,,,,,,,,,,,,0,0,0,0,0,14,14,14,,,,,,,,,,,,,,,,,,,,,,,,,,,,,,,,,,,,,,,,,,,,,,,,,,,,,,,,,,,,,,,,,,,,,,,,,,,,,,,,,,,,,,,,,,,,,,,,,,,,,139.38792010700126,143.4674363890008,,,,,011821,1,2,0,3,0,1,2,0,42,2022_Jan_18_1019,listening_fmri,3.2.4,60.161409451950234,
1,parcelated_audio/44/44_16.ogg,,,,,,,,,0,0,0,0,0,1,1,1,0,0,0,0,,,,,,,,,,,,,0,0,0,0,0,15,15,15,,,,,,,,,,,,,,,,,,,,,,,,,,,,,,,,,,,,,,,,,,,,,,,,,,,,,,,,,,,,,,,,,,,,,,,,,,,,,,,,,,,,,,,,,,,,,,,,,,,,,143.46775057099876,147.4958363029982,,,,,011821,1,2,0,3,0,1,2,0,42,2022_Jan_18_1019,listening_fmri,3.2.4,60.161409451950234,
1,parcelated_audio/44/44_17.ogg,,,,,,,,,0,0,0,0,0,1,1,1,0,0,0,0,,,,,,,,,,,,,0,0,0,0,0,16,16,16,,,,,,,,,,,,,,,,,,,,,,,,,,,,,,,,,,,,,,,,,,,,,,,,,,,,,,,,,,,,,,,,,,,,,,,,,,,,,,,,,,,,,,,,,,,,,,,,,,,,,147.4961973419995,155.97088860700023,,,,,011821,1,2,0,3,0,1,2,0,42,2022_Jan_18_1019,listening_fmri,3.2.4,60.161409451950234,
1,parcelated_audio/44/44_18.ogg,,,,,,,,,0,0,0,0,0,1,1,1,0,0,0,0,,,,,,,,,,,,,0,0,0,0,0,17,17,17,,,,,,,,,,,,,,,,,,,,,,,,,,,,,,,,,,,,,,,,,,,,,,,,,,,,,,,,,,,,,,,,,,,,,,,,,,,,,,,,,,,,,,,,,,,,,,,,,,,,,155.9712523119997,165.81863425199845,,,,,011821,1,2,0,3,0,1,2,0,42,2022_Jan_18_1019,listening_fmri,3.2.4,60.161409451950234,
1,parcelated_audio/44/44_19.ogg,,,,,,,,,0,0,0,0,0,1,1,1,0,0,0,0,,,,,,,,,,,,,0,0,0,0,0,18,18,18,,,,,,,,,,,,,,,,,,,,,,,,,,,,,,,,,,,,,,,,,,,,,,,,,,,,,,,,,,,,,,,,,,,,,,,,,,,,,,,,,,,,,,,,,,,,,,,,,,,,,165.8195336989993,176.8057109779984,,,,,011821,1,2,0,3,0,1,2,0,42,2022_Jan_18_1019,listening_fmri,3.2.4,60.161409451950234,
1,parcelated_audio/44/44_20.ogg,,,,,,,,,0,0,0,0,0,1,1,1,0,0,0,0,,,,,,,,,,,,,0,0,0,0,0,19,19,19,,,,,,,,,,,,,,,,,,,,,,,,,,,,,,,,,,,,,,,,,,,,,,,,,,,,,,,,,,,,,,,,,,,,,,,,,,,,,,,,,,,,,,,,,,,,,,,,,,,,,176.80606705099854,185.03883416299868,,,,,011821,1,2,0,3,0,1,2,0,42,2022_Jan_18_1019,listening_fmri,3.2.4,60.161409451950234,
1,parcelated_audio/44/44_21.ogg,,,,,,,,,0,0,0,0,0,1,1,1,0,0,0,0,,,,,,,,,,,,,0,0,0,0,0,20,20,20,,,,,,,,,,,,,,,,,,,,,,,,,,,,,,,,,,,,,,,,,,,,,,,,,,,,,,,,,,,,,,,,,,,,,,,,,,,,,,,,,,,,,,,,,,,,,,,,,,,,,185.0391975450002,193.9428884629997,,,,,011821,1,2,0,3,0,1,2,0,42,2022_Jan_18_1019,listening_fmri,3.2.4,60.161409451950234,
1,parcelated_audio/44/44_22.ogg,,,,,,,,,0,0,0,0,0,1,1,1,0,0,0,0,,,,,,,,,,,,,0,0,0,0,0,21,21,21,,,,,,,,,,,,,,,,,,,,,,,,,,,,,,,,,,,,,,,,,,,,,,,,,,,,,,,,,,,,,,,,,,,,,,,,,,,,,,,,,,,,,,,,,,,,,,,,,,,,,193.94323594399975,198.8628189689989,,,,,011821,1,2,0,3,0,1,2,0,42,2022_Jan_18_1019,listening_fmri,3.2.4,60.161409451950234,
1,parcelated_audio/44/44_23.ogg,,,,,,,,,0,0,0,0,0,1,1,1,0,0,0,0,,,,,,,,,,,,,0,0,0,0,0,22,22,22,,,,,,,,,,,,,,,,,,,,,,,,,,,,,,,,,,,,,,,,,,,,,,,,,,,,,,,,,,,,,,,,,,,,,,,,,,,,,,,,,,,,,,,,,,,,,,,,,,,,,198.863183898,205.50643462399967,,,,,011821,1,2,0,3,0,1,2,0,42,2022_Jan_18_1019,listening_fmri,3.2.4,60.161409451950234,
1,parcelated_audio/44/44_24.ogg,,,,,,,,,0,0,0,0,0,1,1,1,0,0,0,0,,,,,,,,,,,,,0,0,0,0,0,23,23,23,,,,,,,,,,,,,,,,,,,,,,,,,,,,,,,,,,,,,,,,,,,,,,,,,,,,,,,,,,,,,,,,,,,,,,,,,,,,,,,,,,,,,,,,,,,,,,,,,,,,,205.506974300999,214.23587752800086,,,,,011821,1,2,0,3,0,1,2,0,42,2022_Jan_18_1019,listening_fmri,3.2.4,60.161409451950234,
1,parcelated_audio/44/44_25.ogg,,,,,,,,,0,0,0,0,0,1,1,1,0,0,0,0,,,,,,,,,,,,,0,0,0,0,0,24,24,24,,,,,,,,,,,,,,,,,,,,,,,,,,,,,,,,,,,,,,,,,,,,,,,,,,,,,,,,,,,,,,,,,,,,,,,,,,,,,,,,,,,,,,,,,,,,,,,,,,,,,214.23623691600005,220.55711216000054,,,,,011821,1,2,0,3,0,1,2,0,42,2022_Jan_18_1019,listening_fmri,3.2.4,60.161409451950234,
1,parcelated_audio/44/44_26.ogg,,,,,,,,,0,0,0,0,0,1,1,1,0,0,0,0,,,,,,,,,,,,,0,0,0,0,0,25,25,25,,,,,,,,,,,,,,,,,,,,,,,,,,,,,,,,,,,,,,,,,,,,,,,,,,,,,,,,,,,,,,,,,,,,,,,,,,,,,,,,,,,,,,,,,,,,,,,,,,,,,220.5579489499978,225.41884039100114,,,,,011821,1,2,0,3,0,1,2,0,42,2022_Jan_18_1019,listening_fmri,3.2.4,60.161409451950234,
1,parcelated_audio/44/44_27.ogg,,,,,,,,,0,0,0,0,0,1,1,1,0,0,0,0,,,,,,,,,,,,,0,0,0,0,0,26,26,26,,,,,,,,,,,,,,,,,,,,,,,,,,,,,,,,,,,,,,,,,,,,,,,,,,,,,,,,,,,,,,,,,,,,,,,,,,,,,,,,,,,,,,,,,,,,,,,,,,,,,225.41929845100094,232.4212338260004,,,,,011821,1,2,0,3,0,1,2,0,42,2022_Jan_18_1019,listening_fmri,3.2.4,60.161409451950234,
1,parcelated_audio/44/44_28.ogg,,,,,,,,,0,0,0,0,0,1,1,1,0,0,0,0,,,,,,,,,,,,,0,0,0,0,0,27,27,27,,,,,,,,,,,,,,,,,,,,,,,,,,,,,,,,,,,,,,,,,,,,,,,,,,,,,,,,,,,,,,,,,,,,,,,,,,,,,,,,,,,,,,,,,,,,,,,,,,,,,232.42202798799917,243.69507048599917,,,,,011821,1,2,0,3,0,1,2,0,42,2022_Jan_18_1019,listening_fmri,3.2.4,60.161409451950234,
1,,,,,,,,,,0,0,0,0,0,1,1,1,0,0,0,0,,,,,,,,,,,,,0,0,0,0,,,,,,,,,,,,,,,,,,,,,,,,,,,,,,,,,,,,,,,,,,,,,,,,,,,,,,,,,,,,,,,,,,,,,,,,,,,,,,,,,,,,,,,,,,,,,,,,,,,,,,,,,,,,,,,011821,1,2,0,3,0,1,2,0,42,2022_Jan_18_1019,listening_fmri,3.2.4,60.161409451950234,
,,,,,,,,,,,,,,,,,,,,,,,,,,,,,,,,,,,,,,,,,,,,,,,,,,,,,,,,,,,243.6955599799985,249.68353079399822,294.4478128430019,None,,,,,,,,,,,,,,,,,,,,,,,,,,,,,,,,,,,,,,,,,,,,,,,,,,,,,,,,,,,,,,,,,,,,,,,,,,,,,,,,,,300.4487364200031,None,300.4487364200031,None,,,,,,,,,,,,,,,
﻿count,audio,trials_14.thisRepN,trials_14.thisTrialN,trials_14.thisN,trials_14.thisIndex,trials_3.thisRepN,trials_3.thisTrialN,trials_3.thisN,trials_3.thisIndex,trials_4.thisRepN,trials_4.thisTrialN,trials_4.thisN,trials_4.thisIndex,trials_6.thisRepN,trials_6.thisTrialN,trials_6.thisN,trials_6.thisIndex,trials_9.thisRepN,trials_9.thisTrialN,trials_9.thisN,trials_9.thisIndex,trials_10.thisRepN,trials_10.thisTrialN,trials_10.thisN,trials_10.thisIndex,trials_11.thisRepN,trials_11.thisTrialN,trials_11.thisN,trials_11.thisIndex,trials_12.thisRepN,trials_12.thisTrialN,trials_12.thisN,trials_12.thisIndex,trials_25.thisRepN,trials_25.thisTrialN,trials_25.thisN,trials_25.thisIndex,trials_15.thisRepN,trials_15.thisTrialN,trials_15.thisN,trials_15.thisIndex,trials_26.thisRepN,trials_26.thisTrialN,trials_26.thisN,trials_26.thisIndex,story_list_block2,action_list_block2,textTrigger.started,textTrigger.stopped,getTrigger.keys,getTrigger.rt,getTrigger.started,getTrigger.stopped,triggerTime,text_76.started,text_76.stopped,text_77.started,text_77.stopped,startWait,endWait,image_23.started,image_23.stopped,text_55.started,text_55.stopped,text_56.started,text_56.stopped,key_resp_2.keys,key_resp_2.rt,key_resp_2.started,key_resp_2.stopped,text_82.started,text_82.stopped,text_57.started,text_57.stopped,key_resp_17.keys,key_resp_17.rt,key_resp_17.started,key_resp_17.stopped,text_83.started,text_83.stopped,text_60.started,text_60.stopped,image_2.started,image_2.stopped,text_58.started,text_58.stopped,key_resp_23.keys,key_resp_23.rt,key_resp_23.started,key_resp_23.stopped,text_62.started,text_62.stopped,key_resp_18.keys,key_resp_18.rt,key_resp_18.started,key_resp_18.stopped,text_84.started,text_84.stopped,question1_2.started,question1_2.stopped,question2_2.started,question2_2.stopped,question3_2.started,question3_2.stopped,question4_2.started,question4_2.stopped,question5_2.started,question5_2.stopped,question6_2.started,question6_2.stopped,image_15.started,image_15.stopped,key_resp.keys,key_resp.started,key_resp.stopped,text_59.started,text_59.stopped,key_resp_19.keys,key_resp_19.rt,key_resp_19.started,key_resp_19.stopped,text_85.started,text_85.stopped,text_61.started,text_61.stopped,image_17.started,image_17.stopped,text_63.started,text_63.stopped,key_resp_24.keys,key_resp_24.rt,key_resp_24.started,key_resp_24.stopped,text_64.started,text_64.stopped,key_resp_20.keys,key_resp_20.rt,key_resp_20.started,key_resp_20.stopped,storyImage_StartTime,storyImage_EndTime,clip_StartTime,clip_EndTime,text_67.started,text_67.stopped,text_68.started,text_68.stopped,participant,sA,sB,lA,lB,block_struct,play_stories,block,behavioral,random_seed,date,expName,psychopyVersion,frameRate,
0,,,,,,,,,,0,0,0,0,0,0,0,0,,,,,,,,,,,,,,,,,,,,,,,,,,,,,[24 44 33 42 22 13 11 31],[3 2 1 4 1 4 2 3],16.590416200000618,None,equal,34.154547815000114,16.590416200000618,None,34.17253596000228,16.590416200000618,None,16.590416200000618,None,0.00031087200113688596,6.009000588997878,50.765283584001736,None,,,,,,,,,,,,,,,,,,,,,,,,,,,,,,,,,,,,,,,,,,,,,,,,,,,,,,,,,,,,,,,,,,,,,,,,,,,,,,,,,,,,,,011821,1,2,0,3,0,1,2,0,42,2022_Jan_18_1019,listening_fmri,3.2.4,60.161409451950234,
1,,,,,,,,,,0,0,0,0,0,1,1,1,0,0,0,0,0,0,0,0,0,0,0,0,,,,,,,,,,,,,,,,,,,,,,,,,,,,,,,,,,56.78093501400144,None,56.78093501400144,None,2,2.0379267540010915,56.78093501400144,None,56.78093501400144,None,58.848303762002615,None,2,1.636653738001769,58.848303762002615,None,58.848303762002615,None,60.52309879000313,None,60.52309879000313,None,60.52309879000313,None,2,2.291753030000109,60.52309879000313,None,62.83150153800307,None,2,2.858434378998936,62.83150153800307,None,62.83150153800307,None,65.78962855300051,None,65.78962855300051,None,65.78962855300051,None,65.78962855300051,None,65.78962855300051,None,65.78962855300051,None,65.78962855300051,None,None,65.78962855300051,None,,,,,,,,,,,,,,,,,,,,,,,,,,,,,,,,,011821,1,2,0,3,0,1,2,0,42,2022_Jan_18_1019,listening_fmri,3.2.4,60.161409451950234,
1,,,,,,,,,,0,0,0,0,0,1,1,1,0,0,0,0,0,0,0,0,,,,,,,,,,,,,,,,,,,,,,,,,,,,,,,,,,,,,,,,,,,,,,,,,,,,,,,,,,,,,,,,,,,,,,,,,,,,,,,,,,,,,,,,,,,86.5313773750022,None,2,1.6954984320000221,86.5313773750022,None,86.5313773750022,None,88.26448801600054,None,88.26448801600054,None,88.26448801600054,None,2,4.438462926998909,88.26448801600054,None,,,,,,,,,,,,,,,011821,1,2,0,3,0,1,2,0,42,2022_Jan_18_1019,listening_fmri,3.2.4,60.161409451950234,
1,parcelated_audio/44/44_1.ogg,,,,,,,,,0,0,0,0,0,1,1,1,0,0,0,0,,,,,,,,,,,,,0,0,0,0,0,0,0,0,,,,,,,,,,,,,,,,,,,,,,,,,,,,,,,,,,,,,,,,,,,,,,,,,,,,,,,,,,,,,,,,,,,,,,,,,,,,,,,,,,,,,,,,,,,,,92.73128806000022,None,2,1.77066365799692,92.73128806000022,None,43.7833221769979,46.78386410099847,46.79249905300094,54.72032430699983,,,,,011821,1,2,0,3,0,1,2,0,42,2022_Jan_18_1019,listening_fmri,3.2.4,60.161409451950234,
1,parcelated_audio/44/44_2.ogg,,,,,,,,,0,0,0,0,0,1,1,1,0,0,0,0,,,,,,,,,,,,,0,0,0,0,0,1,1,1,,,,,,,,,,,,,,,,,,,,,,,,,,,,,,,,,,,,,,,,,,,,,,,,,,,,,,,,,,,,,,,,,,,,,,,,,,,,,,,,,,,,,,,,,,,,,,,,,,,,,54.72069790299793,63.83745354799976,,,,,011821,1,2,0,3,0,1,2,0,42,2022_Jan_18_1019,listening_fmri,3.2.4,60.161409451950234,
1,parcelated_audio/44/44_3.ogg,,,,,,,,,0,0,0,0,0,1,1,1,0,0,0,0,,,,,,,,,,,,,0,0,0,0,0,2,2,2,,,,,,,,,,,,,,,,,,,,,,,,,,,,,,,,,,,,,,,,,,,,,,,,,,,,,,,,,,,,,,,,,,,,,,,,,,,,,,,,,,,,,,,,,,,,,,,,,,,,,63.83781776199976,69.27475825399961,,,,,011821,1,2,0,3,0,1,2,0,42,2022_Jan_18_1019,listening_fmri,3.2.4,60.161409451950234,
1,parcelated_audio/44/44_4.ogg,,,,,,,,,0,0,0,0,0,1,1,1,0,0,0,0,,,,,,,,,,,,,0,0,0,0,0,3,3,3,,,,,,,,,,,,,,,,,,,,,,,,,,,,,,,,,,,,,,,,,,,,,,,,,,,,,,,,,,,,,,,,,,,,,,,,,,,,,,,,,,,,,,,,,,,,,,,,,,,,,69.27511974799927,74.3529482749982,,,,,011821,1,2,0,3,0,1,2,0,42,2022_Jan_18_1019,listening_fmri,3.2.4,60.161409451950234,
1,parcelated_audio/44/44_5.ogg,,,,,,,,,0,0,0,0,0,1,1,1,0,0,0,0,,,,,,,,,,,,,0,0,0,0,0,4,4,4,,,,,,,,,,,,,,,,,,,,,,,,,,,,,,,,,,,,,,,,,,,,,,,,,,,,,,,,,,,,,,,,,,,,,,,,,,,,,,,,,,,,,,,,,,,,,,,,,,,,,74.3533171300005,80.58791254400057,,,,,011821,1,2,0,3,0,1,2,0,42,2022_Jan_18_1019,listening_fmri,3.2.4,60.161409451950234,
1,parcelated_audio/44/44_6.ogg,,,,,,,,,0,0,0,0,0,1,1,1,0,0,0,0,,,,,,,,,,,,,0,0,0,0,0,5,5,5,,,,,,,,,,,,,,,,,,,,,,,,,,,,,,,,,,,,,,,,,,,,,,,,,,,,,,,,,,,,,,,,,,,,,,,,,,,,,,,,,,,,,,,,,,,,,,,,,,,,,80.58824896299848,87.5329429400008,,,,,011821,1,2,0,3,0,1,2,0,42,2022_Jan_18_1019,listening_fmri,3.2.4,60.161409451950234,
1,parcelated_audio/44/44_7.ogg,,,,,,,,,0,0,0,0,0,1,1,1,0,0,0,0,,,,,,,,,,,,,0,0,0,0,0,6,6,6,,,,,,,,,,,,,,,,,,,,,,,,,,,,,,,,,,,,,,,,,,,,,,,,,,,,,,,,,,,,,,,,,,,,,,,,,,,,,,,,,,,,,,,,,,,,,,,,,,,,,87.53377822499897,93.56040974699863,,,,,011821,1,2,0,3,0,1,2,0,42,2022_Jan_18_1019,listening_fmri,3.2.4,60.161409451950234,
1,parcelated_audio/44/44_8.ogg,,,,,,,,,0,0,0,0,0,1,1,1,0,0,0,0,,,,,,,,,,,,,0,0,0,0,0,7,7,7,,,,,,,,,,,,,,,,,,,,,,,,,,,,,,,,,,,,,,,,,,,,,,,,,,,,,,,,,,,,,,,,,,,,,,,,,,,,,,,,,,,,,,,,,,,,,,,,,,,,,93.56078710300062,97.93584528399879,,,,,011821,1,2,0,3,0,1,2,0,42,2022_Jan_18_1019,listening_fmri,3.2.4,60.161409451950234,
1,parcelated_audio/44/44_9.ogg,,,,,,,,,0,0,0,0,0,1,1,1,0,0,0,0,,,,,,,,,,,,,0,0,0,0,0,8,8,8,,,,,,,,,,,,,,,,,,,,,,,,,,,,,,,,,,,,,,,,,,,,,,,,,,,,,,,,,,,,,,,,,,,,,,,,,,,,,,,,,,,,,,,,,,,,,,,,,,,,,97.93625098399934,101.63493186199776,,,,,011821,1,2,0,3,0,1,2,0,42,2022_Jan_18_1019,listening_fmri,3.2.4,60.161409451950234,
1,parcelated_audio/44/44_10.ogg,,,,,,,,,0,0,0,0,0,1,1,1,0,0,0,0,,,,,,,,,,,,,0,0,0,0,0,9,9,9,,,,,,,,,,,,,,,,,,,,,,,,,,,,,,,,,,,,,,,,,,,,,,,,,,,,,,,,,,,,,,,,,,,,,,,,,,,,,,,,,,,,,,,,,,,,,,,,,,,,,101.63528126899837,111.76284741699783,,,,,011821,1,2,0,3,0,1,2,0,42,2022_Jan_18_1019,listening_fmri,3.2.4,60.161409451950234,
1,parcelated_audio/44/44_11.ogg,,,,,,,,,0,0,0,0,0,1,1,1,0,0,0,0,,,,,,,,,,,,,0,0,0,0,0,10,10,10,,,,,,,,,,,,,,,,,,,,,,,,,,,,,,,,,,,,,,,,,,,,,,,,,,,,,,,,,,,,,,,,,,,,,,,,,,,,,,,,,,,,,,,,,,,,,,,,,,,,,111.76319876399793,115.3148801339994,,,,,011821,1,2,0,3,0,1,2,0,42,2022_Jan_18_1019,listening_fmri,3.2.4,60.161409451950234,
1,parcelated_audio/44/44_12.ogg,,,,,,,,,0,0,0,0,0,1,1,1,0,0,0,0,,,,,,,,,,,,,0,0,0,0,0,11,11,11,,,,,,,,,,,,,,,,,,,,,,,,,,,,,,,,,,,,,,,,,,,,,,,,,,,,,,,,,,,,,,,,,,,,,,,,,,,,,,,,,,,,,,,,,,,,,,,,,,,,,115.31539465199967,125.9068654799994,,,,,011821,1,2,0,3,0,1,2,0,42,2022_Jan_18_1019,listening_fmri,3.2.4,60.161409451950234,
1,parcelated_audio/44/44_13.ogg,,,,,,,,,0,0,0,0,0,1,1,1,0,0,0,0,,,,,,,,,,,,,0,0,0,0,0,12,12,12,,,,,,,,,,,,,,,,,,,,,,,,,,,,,,,,,,,,,,,,,,,,,,,,,,,,,,,,,,,,,,,,,,,,,,,,,,,,,,,,,,,,,,,,,,,,,,,,,,,,,125.90721970400045,133.07186966299923,,,,,011821,1,2,0,3,0,1,2,0,42,2022_Jan_18_1019,listening_fmri,3.2.4,60.161409451950234,
1,parcelated_audio/44/44_14.ogg,,,,,,,,,0,0,0,0,0,1,1,1,0,0,0,0,,,,,,,,,,,,,0,0,0,0,0,13,13,13,,,,,,,,,,,,,,,,,,,,,,,,,,,,,,,,,,,,,,,,,,,,,,,,,,,,,,,,,,,,,,,,,,,,,,,,,,,,,,,,,,,,,,,,,,,,,,,,,,,,,133.0722227139995,139.3874660420006,,,,,011821,1,2,0,3,0,1,2,0,42,2022_Jan_18_1019,listening_fmri,3.2.4,60.161409451950234,
1,parcelated_audio/44/44_15.ogg,,,,,,,,,0,0,0,0,0,1,1,1,0,0,0,0,,,,,,,,,,,,,0,0,0,0,0,14,14,14,,,,,,,,,,,,,,,,,,,,,,,,,,,,,,,,,,,,,,,,,,,,,,,,,,,,,,,,,,,,,,,,,,,,,,,,,,,,,,,,,,,,,,,,,,,,,,,,,,,,,139.38792010700126,143.4674363890008,,,,,011821,1,2,0,3,0,1,2,0,42,2022_Jan_18_1019,listening_fmri,3.2.4,60.161409451950234,
1,parcelated_audio/44/44_16.ogg,,,,,,,,,0,0,0,0,0,1,1,1,0,0,0,0,,,,,,,,,,,,,0,0,0,0,0,15,15,15,,,,,,,,,,,,,,,,,,,,,,,,,,,,,,,,,,,,,,,,,,,,,,,,,,,,,,,,,,,,,,,,,,,,,,,,,,,,,,,,,,,,,,,,,,,,,,,,,,,,,143.46775057099876,147.4958363029982,,,,,011821,1,2,0,3,0,1,2,0,42,2022_Jan_18_1019,listening_fmri,3.2.4,60.161409451950234,
1,parcelated_audio/44/44_17.ogg,,,,,,,,,0,0,0,0,0,1,1,1,0,0,0,0,,,,,,,,,,,,,0,0,0,0,0,16,16,16,,,,,,,,,,,,,,,,,,,,,,,,,,,,,,,,,,,,,,,,,,,,,,,,,,,,,,,,,,,,,,,,,,,,,,,,,,,,,,,,,,,,,,,,,,,,,,,,,,,,,147.4961973419995,155.97088860700023,,,,,011821,1,2,0,3,0,1,2,0,42,2022_Jan_18_1019,listening_fmri,3.2.4,60.161409451950234,
1,parcelated_audio/44/44_18.ogg,,,,,,,,,0,0,0,0,0,1,1,1,0,0,0,0,,,,,,,,,,,,,0,0,0,0,0,17,17,17,,,,,,,,,,,,,,,,,,,,,,,,,,,,,,,,,,,,,,,,,,,,,,,,,,,,,,,,,,,,,,,,,,,,,,,,,,,,,,,,,,,,,,,,,,,,,,,,,,,,,155.9712523119997,165.81863425199845,,,,,011821,1,2,0,3,0,1,2,0,42,2022_Jan_18_1019,listening_fmri,3.2.4,60.161409451950234,
1,parcelated_audio/44/44_19.ogg,,,,,,,,,0,0,0,0,0,1,1,1,0,0,0,0,,,,,,,,,,,,,0,0,0,0,0,18,18,18,,,,,,,,,,,,,,,,,,,,,,,,,,,,,,,,,,,,,,,,,,,,,,,,,,,,,,,,,,,,,,,,,,,,,,,,,,,,,,,,,,,,,,,,,,,,,,,,,,,,,165.8195336989993,176.8057109779984,,,,,011821,1,2,0,3,0,1,2,0,42,2022_Jan_18_1019,listening_fmri,3.2.4,60.161409451950234,
1,parcelated_audio/44/44_20.ogg,,,,,,,,,0,0,0,0,0,1,1,1,0,0,0,0,,,,,,,,,,,,,0,0,0,0,0,19,19,19,,,,,,,,,,,,,,,,,,,,,,,,,,,,,,,,,,,,,,,,,,,,,,,,,,,,,,,,,,,,,,,,,,,,,,,,,,,,,,,,,,,,,,,,,,,,,,,,,,,,,176.80606705099854,185.03883416299868,,,,,011821,1,2,0,3,0,1,2,0,42,2022_Jan_18_1019,listening_fmri,3.2.4,60.161409451950234,
1,parcelated_audio/44/44_21.ogg,,,,,,,,,0,0,0,0,0,1,1,1,0,0,0,0,,,,,,,,,,,,,0,0,0,0,0,20,20,20,,,,,,,,,,,,,,,,,,,,,,,,,,,,,,,,,,,,,,,,,,,,,,,,,,,,,,,,,,,,,,,,,,,,,,,,,,,,,,,,,,,,,,,,,,,,,,,,,,,,,185.0391975450002,193.9428884629997,,,,,011821,1,2,0,3,0,1,2,0,42,2022_Jan_18_1019,listening_fmri,3.2.4,60.161409451950234,
1,parcelated_audio/44/44_22.ogg,,,,,,,,,0,0,0,0,0,1,1,1,0,0,0,0,,,,,,,,,,,,,0,0,0,0,0,21,21,21,,,,,,,,,,,,,,,,,,,,,,,,,,,,,,,,,,,,,,,,,,,,,,,,,,,,,,,,,,,,,,,,,,,,,,,,,,,,,,,,,,,,,,,,,,,,,,,,,,,,,193.94323594399975,198.8628189689989,,,,,011821,1,2,0,3,0,1,2,0,42,2022_Jan_18_1019,listening_fmri,3.2.4,60.161409451950234,
1,parcelated_audio/44/44_23.ogg,,,,,,,,,0,0,0,0,0,1,1,1,0,0,0,0,,,,,,,,,,,,,0,0,0,0,0,22,22,22,,,,,,,,,,,,,,,,,,,,,,,,,,,,,,,,,,,,,,,,,,,,,,,,,,,,,,,,,,,,,,,,,,,,,,,,,,,,,,,,,,,,,,,,,,,,,,,,,,,,,198.863183898,205.50643462399967,,,,,011821,1,2,0,3,0,1,2,0,42,2022_Jan_18_1019,listening_fmri,3.2.4,60.161409451950234,
1,parcelated_audio/44/44_24.ogg,,,,,,,,,0,0,0,0,0,1,1,1,0,0,0,0,,,,,,,,,,,,,0,0,0,0,0,23,23,23,,,,,,,,,,,,,,,,,,,,,,,,,,,,,,,,,,,,,,,,,,,,,,,,,,,,,,,,,,,,,,,,,,,,,,,,,,,,,,,,,,,,,,,,,,,,,,,,,,,,,205.506974300999,214.23587752800086,,,,,011821,1,2,0,3,0,1,2,0,42,2022_Jan_18_1019,listening_fmri,3.2.4,60.161409451950234,
1,parcelated_audio/44/44_25.ogg,,,,,,,,,0,0,0,0,0,1,1,1,0,0,0,0,,,,,,,,,,,,,0,0,0,0,0,24,24,24,,,,,,,,,,,,,,,,,,,,,,,,,,,,,,,,,,,,,,,,,,,,,,,,,,,,,,,,,,,,,,,,,,,,,,,,,,,,,,,,,,,,,,,,,,,,,,,,,,,,,214.23623691600005,220.55711216000054,,,,,011821,1,2,0,3,0,1,2,0,42,2022_Jan_18_1019,listening_fmri,3.2.4,60.161409451950234,
1,parcelated_audio/44/44_26.ogg,,,,,,,,,0,0,0,0,0,1,1,1,0,0,0,0,,,,,,,,,,,,,0,0,0,0,0,25,25,25,,,,,,,,,,,,,,,,,,,,,,,,,,,,,,,,,,,,,,,,,,,,,,,,,,,,,,,,,,,,,,,,,,,,,,,,,,,,,,,,,,,,,,,,,,,,,,,,,,,,,220.5579489499978,225.41884039100114,,,,,011821,1,2,0,3,0,1,2,0,42,2022_Jan_18_1019,listening_fmri,3.2.4,60.161409451950234,
1,parcelated_audio/44/44_27.ogg,,,,,,,,,0,0,0,0,0,1,1,1,0,0,0,0,,,,,,,,,,,,,0,0,0,0,0,26,26,26,,,,,,,,,,,,,,,,,,,,,,,,,,,,,,,,,,,,,,,,,,,,,,,,,,,,,,,,,,,,,,,,,,,,,,,,,,,,,,,,,,,,,,,,,,,,,,,,,,,,,225.41929845100094,232.4212338260004,,,,,011821,1,2,0,3,0,1,2,0,42,2022_Jan_18_1019,listening_fmri,3.2.4,60.161409451950234,
1,parcelated_audio/44/44_28.ogg,,,,,,,,,0,0,0,0,0,1,1,1,0,0,0,0,,,,,,,,,,,,,0,0,0,0,0,27,27,27,,,,,,,,,,,,,,,,,,,,,,,,,,,,,,,,,,,,,,,,,,,,,,,,,,,,,,,,,,,,,,,,,,,,,,,,,,,,,,,,,,,,,,,,,,,,,,,,,,,,,232.42202798799917,243.69507048599917,,,,,011821,1,2,0,3,0,1,2,0,42,2022_Jan_18_1019,listening_fmri,3.2.4,60.161409451950234,
1,,,,,,,,,,0,0,0,0,0,1,1,1,0,0,0,0,,,,,,,,,,,,,0,0,0,0,,,,,,,,,,,,,,,,,,,,,,,,,,,,,,,,,,,,,,,,,,,,,,,,,,,,,,,,,,,,,,,,,,,,,,,,,,,,,,,,,,,,,,,,,,,,,,,,,,,,,,,,,,,,,,,011821,1,2,0,3,0,1,2,0,42,2022_Jan_18_1019,listening_fmri,3.2.4,60.161409451950234,
1,,,,,,,,,,0,0,0,0,0,1,1,1,0,0,0,0,,,,,,,,,,,,,,,,,,,,,,,,,,,,,,,,,,,,,,243.6955599799985,249.68353079399822,294.4478128430019,None,,,,,,,,,,,,,,,,,,,,,,,,,,,,,,,,,,,,,,,,,,,,,,,,,,,,,,,,,,,,,,,,,,,,,,,,,,,,,,,,,,300.4487364200031,None,300.4487364200031,None,011821,1,2,0,3,0,1,2,0,42,2022_Jan_18_1019,listening_fmri,3.2.4,60.161409451950234,
1,,,,,,,,,,0,0,0,0,0,1,1,1,,,,,,,,,,,,,,,,,,,,,,,,,,,,,,,,,,,,,,,,,,,,,,,,,,,,,,,,,,,,,,,,,,,,,,,,,,,,,,,,,,,,,,,,,,,,,,,,,,,,,,,,,,,,,,,,,,,,,,,,,,,,,,,,,,,011821,1,2,0,3,0,1,2,0,42,2022_Jan_18_1019,listening_fmri,3.2.4,60.161409451950234,
2,,,,,,,,,,0,0,0,0,0,2,2,2,0,0,0,0,0,0,0,0,0,0,0,0,,,,,,,,,,,,,,,,,,,,,,,,,,,,,,,,,,301.4545877140008,None,301.4545877140008,None,2,2.284275450001587,301.4545877140008,None,301.4545877140008,None,303.7650232420019,None,2,2.1699720450014865,303.7650232420019,None,303.7650232420019,None,305.97098366200225,None,305.97098366200225,None,305.97098366200225,None,2,1.7679937980028626,305.97098366200225,None,307.7656393540019,None,2,1.8963055620006344,307.7656393540019,None,307.7656393540019,None,309.75354913000047,None,309.75354913000047,None,309.75354913000047,None,309.75354913000047,None,309.75354913000047,None,309.75354913000047,None,309.75354913000047,None,None,309.75354913000047,None,,,,,,,,,,,,,,,,,,,,,,,,,,,,,,,,,011821,1,2,0,3,0,1,2,0,42,2022_Jan_18_1019,listening_fmri,3.2.4,60.161409451950234,
2,,,,,,,,,,0,0,0,0,0,2,2,2,0,0,0,0,0,0,0,0,,,,,,,,,,,,,,,,,,,,,,,,,,,,,,,,,,,,,,,,,,,,,,,,,,,,,,,,,,,,,,,,,,,,,,,,,,,,,,,,,,,,,,,,,,,340.6310621900011,None,2,1.460767903001397,340.6310621900011,None,340.6310621900011,None,342.13180621100037,None,342.13180621100037,None,342.13180621100037,None,2,1.1830049300006067,342.13180621100037,None,,,,,,,,,,,,,,,011821,1,2,0,3,0,1,2,0,42,2022_Jan_18_1019,listening_fmri,3.2.4,60.161409451950234,
2,parcelated_audio/33/33_1.ogg,,,,,,,,,0,0,0,0,0,2,2,2,0,0,0,0,,,,,,,,,,,,,0,0,0,0,0,0,0,0,,,,,,,,,,,,,,,,,,,,,,,,,,,,,,,,,,,,,,,,,,,,,,,,,,,,,,,,,,,,,,,,,,,,,,,,,,,,,,,,,,,,,,,,,,,,,343.33783072400183,None,2,6.399145168998075,343.33783072400183,None,299.0406870650004,302.049962041001,302.055469930001,312.03264996099824,,,,,011821,1,2,0,3,0,1,2,0,42,2022_Jan_18_1019,listening_fmri,3.2.4,60.161409451950234,
2,parcelated_audio/33/33_2.ogg,,,,,,,,,0,0,0,0,0,2,2,2,0,0,0,0,,,,,,,,,,,,,0,0,0,0,0,1,1,1,,,,,,,,,,,,,,,,,,,,,,,,,,,,,,,,,,,,,,,,,,,,,,,,,,,,,,,,,,,,,,,,,,,,,,,,,,,,,,,,,,,,,,,,,,,,,,,,,,,,,312.0330434489988,322.47591158900104,,,,,011821,1,2,0,3,0,1,2,0,42,2022_Jan_18_1019,listening_fmri,3.2.4,60.161409451950234,
2,parcelated_audio/33/33_3.ogg,,,,,,,,,0,0,0,0,0,2,2,2,0,0,0,0,,,,,,,,,,,,,0,0,0,0,0,2,2,2,,,,,,,,,,,,,,,,,,,,,,,,,,,,,,,,,,,,,,,,,,,,,,,,,,,,,,,,,,,,,,,,,,,,,,,,,,,,,,,,,,,,,,,,,,,,,,,,,,,,,322.47633915299957,329.0137667279996,,,,,011821,1,2,0,3,0,1,2,0,42,2022_Jan_18_1019,listening_fmri,3.2.4,60.161409451950234,
2,parcelated_audio/33/33_4.ogg,,,,,,,,,0,0,0,0,0,2,2,2,0,0,0,0,,,,,,,,,,,,,0,0,0,0,0,3,3,3,,,,,,,,,,,,,,,,,,,,,,,,,,,,,,,,,,,,,,,,,,,,,,,,,,,,,,,,,,,,,,,,,,,,,,,,,,,,,,,,,,,,,,,,,,,,,,,,,,,,,329.01411341199855,332.5998933359988,,,,,011821,1,2,0,3,0,1,2,0,42,2022_Jan_18_1019,listening_fmri,3.2.4,60.161409451950234,
2,parcelated_audio/33/33_5.ogg,,,,,,,,,0,0,0,0,0,2,2,2,0,0,0,0,,,,,,,,,,,,,0,0,0,0,0,4,4,4,,,,,,,,,,,,,,,,,,,,,,,,,,,,,,,,,,,,,,,,,,,,,,,,,,,,,,,,,,,,,,,,,,,,,,,,,,,,,,,,,,,,,,,,,,,,,,,,,,,,,332.6008408079979,343.8449513710002,,,,,011821,1,2,0,3,0,1,2,0,42,2022_Jan_18_1019,listening_fmri,3.2.4,60.161409451950234,
2,parcelated_audio/33/33_6.ogg,,,,,,,,,0,0,0,0,0,2,2,2,0,0,0,0,,,,,,,,,,,,,0,0,0,0,0,5,5,5,,,,,,,,,,,,,,,,,,,,,,,,,,,,,,,,,,,,,,,,,,,,,,,,,,,,,,,,,,,,,,,,,,,,,,,,,,,,,,,,,,,,,,,,,,,,,,,,,,,,,343.8453006290001,355.5408349249992,,,,,011821,1,2,0,3,0,1,2,0,42,2022_Jan_18_1019,listening_fmri,3.2.4,60.161409451950234,
2,parcelated_audio/33/33_7.ogg,,,,,,,,,0,0,0,0,0,2,2,2,0,0,0,0,,,,,,,,,,,,,0,0,0,0,0,6,6,6,,,,,,,,,,,,,,,,,,,,,,,,,,,,,,,,,,,,,,,,,,,,,,,,,,,,,,,,,,,,,,,,,,,,,,,,,,,,,,,,,,,,,,,,,,,,,,,,,,,,,355.54124927999874,370.09284098699936,,,,,011821,1,2,0,3,0,1,2,0,42,2022_Jan_18_1019,listening_fmri,3.2.4,60.161409451950234,
2,parcelated_audio/33/33_8.ogg,,,,,,,,,0,0,0,0,0,2,2,2,0,0,0,0,,,,,,,,,,,,,0,0,0,0,0,7,7,7,,,,,,,,,,,,,,,,,,,,,,,,,,,,,,,,,,,,,,,,,,,,,,,,,,,,,,,,,,,,,,,,,,,,,,,,,,,,,,,,,,,,,,,,,,,,,,,,,,,,,370.09319255800074,376.23230458000035,,,,,011821,1,2,0,3,0,1,2,0,42,2022_Jan_18_1019,listening_fmri,3.2.4,60.161409451950234,
2,parcelated_audio/33/33_9.ogg,,,,,,,,,0,0,0,0,0,2,2,2,0,0,0,0,,,,,,,,,,,,,0,0,0,0,0,8,8,8,,,,,,,,,,,,,,,,,,,,,,,,,,,,,,,,,,,,,,,,,,,,,,,,,,,,,,,,,,,,,,,,,,,,,,,,,,,,,,,,,,,,,,,,,,,,,,,,,,,,,376.23265300799903,379.9307427909989,,,,,011821,1,2,0,3,0,1,2,0,42,2022_Jan_18_1019,listening_fmri,3.2.4,60.161409451950234,
2,parcelated_audio/33/33_10.ogg,,,,,,,,,0,0,0,0,0,2,2,2,0,0,0,0,,,,,,,,,,,,,0,0,0,0,0,9,9,9,,,,,,,,,,,,,,,,,,,,,,,,,,,,,,,,,,,,,,,,,,,,,,,,,,,,,,,,,,,,,,,,,,,,,,,,,,,,,,,,,,,,,,,,,,,,,,,,,,,,,379.9311949539988,385.290775483998,,,,,011821,1,2,0,3,0,1,2,0,42,2022_Jan_18_1019,listening_fmri,3.2.4,60.161409451950234,
2,parcelated_audio/33/33_11.ogg,,,,,,,,,0,0,0,0,0,2,2,2,0,0,0,0,,,,,,,,,,,,,0,0,0,0,0,10,10,10,,,,,,,,,,,,,,,,,,,,,,,,,,,,,,,,,,,,,,,,,,,,,,,,,,,,,,,,,,,,,,,,,,,,,,,,,,,,,,,,,,,,,,,,,,,,,,,,,,,,,385.29112643400003,399.7034865370006,,,,,011821,1,2,0,3,0,1,2,0,42,2022_Jan_18_1019,listening_fmri,3.2.4,60.161409451950234,
2,parcelated_audio/33/33_12.ogg,,,,,,,,,0,0,0,0,0,2,2,2,0,0,0,0,,,,,,,,,,,,,0,0,0,0,0,11,11,11,,,,,,,,,,,,,,,,,,,,,,,,,,,,,,,,,,,,,,,,,,,,,,,,,,,,,,,,,,,,,,,,,,,,,,,,,,,,,,,,,,,,,,,,,,,,,,,,,,,,,399.7042833939995,405.8018223079998,,,,,011821,1,2,0,3,0,1,2,0,42,2022_Jan_18_1019,listening_fmri,3.2.4,60.161409451950234,
2,parcelated_audio/33/33_13.ogg,,,,,,,,,0,0,0,0,0,2,2,2,0,0,0,0,,,,,,,,,,,,,0,0,0,0,0,12,12,12,,,,,,,,,,,,,,,,,,,,,,,,,,,,,,,,,,,,,,,,,,,,,,,,,,,,,,,,,,,,,,,,,,,,,,,,,,,,,,,,,,,,,,,,,,,,,,,,,,,,,405.802190866998,413.1997053289997,,,,,011821,1,2,0,3,0,1,2,0,42,2022_Jan_18_1019,listening_fmri,3.2.4,60.161409451950234,
2,parcelated_audio/33/33_14.ogg,,,,,,,,,0,0,0,0,0,2,2,2,0,0,0,0,,,,,,,,,,,,,0,0,0,0,0,13,13,13,,,,,,,,,,,,,,,,,,,,,,,,,,,,,,,,,,,,,,,,,,,,,,,,,,,,,,,,,,,,,,,,,,,,,,,,,,,,,,,,,,,,,,,,,,,,,,,,,,,,,413.2007932279994,425.6336853370012,,,,,011821,1,2,0,3,0,1,2,0,42,2022_Jan_18_1019,listening_fmri,3.2.4,60.161409451950234,
2,parcelated_audio/33/33_15.ogg,,,,,,,,,0,0,0,0,0,2,2,2,0,0,0,0,,,,,,,,,,,,,0,0,0,0,0,14,14,14,,,,,,,,,,,,,,,,,,,,,,,,,,,,,,,,,,,,,,,,,,,,,,,,,,,,,,,,,,,,,,,,,,,,,,,,,,,,,,,,,,,,,,,,,,,,,,,,,,,,,425.63452241199775,444.17370614299944,,,,,011821,1,2,0,3,0,1,2,0,42,2022_Jan_18_1019,listening_fmri,3.2.4,60.161409451950234,
2,parcelated_audio/33/33_16.ogg,,,,,,,,,0,0,0,0,0,2,2,2,0,0,0,0,,,,,,,,,,,,,0,0,0,0,0,15,15,15,,,,,,,,,,,,,,,,,,,,,,,,,,,,,,,,,,,,,,,,,,,,,,,,,,,,,,,,,,,,,,,,,,,,,,,,,,,,,,,,,,,,,,,,,,,,,,,,,,,,,444.1740664370009,456.3978871699983,,,,,011821,1,2,0,3,0,1,2,0,42,2022_Jan_18_1019,listening_fmri,3.2.4,60.161409451950234,
2,parcelated_audio/33/33_17.ogg,,,,,,,,,0,0,0,0,0,2,2,2,0,0,0,0,,,,,,,,,,,,,0,0,0,0,0,16,16,16,,,,,,,,,,,,,,,,,,,,,,,,,,,,,,,,,,,,,,,,,,,,,,,,,,,,,,,,,,,,,,,,,,,,,,,,,,,,,,,,,,,,,,,,,,,,,,,,,,,,,456.39825473399833,467.60578808599894,,,,,011821,1,2,0,3,0,1,2,0,42,2022_Jan_18_1019,listening_fmri,3.2.4,60.161409451950234,
2,parcelated_audio/33/33_18.ogg,,,,,,,,,0,0,0,0,0,2,2,2,0,0,0,0,,,,,,,,,,,,,0,0,0,0,0,17,17,17,,,,,,,,,,,,,,,,,,,,,,,,,,,,,,,,,,,,,,,,,,,,,,,,,,,,,,,,,,,,,,,,,,,,,,,,,,,,,,,,,,,,,,,,,,,,,,,,,,,,,467.60614128199813,476.06485845000134,,,,,011821,1,2,0,3,0,1,2,0,42,2022_Jan_18_1019,listening_fmri,3.2.4,60.161409451950234,
2,parcelated_audio/33/33_19.ogg,,,,,,,,,0,0,0,0,0,2,2,2,0,0,0,0,,,,,,,,,,,,,0,0,0,0,0,18,18,18,,,,,,,,,,,,,,,,,,,,,,,,,,,,,,,,,,,,,,,,,,,,,,,,,,,,,,,,,,,,,,,,,,,,,,,,,,,,,,,,,,,,,,,,,,,,,,,,,,,,,476.065209114,479.51091410200024,,,,,011821,1,2,0,3,0,1,2,0,42,2022_Jan_18_1019,listening_fmri,3.2.4,60.161409451950234,
2,parcelated_audio/33/33_20.ogg,,,,,,,,,0,0,0,0,0,2,2,2,0,0,0,0,,,,,,,,,,,,,0,0,0,0,0,19,19,19,,,,,,,,,,,,,,,,,,,,,,,,,,,,,,,,,,,,,,,,,,,,,,,,,,,,,,,,,,,,,,,,,,,,,,,,,,,,,,,,,,,,,,,,,,,,,,,,,,,,,479.5112386699984,486.38619868299793,,,,,011821,1,2,0,3,0,1,2,0,42,2022_Jan_18_1019,listening_fmri,3.2.4,60.161409451950234,
2,parcelated_audio/33/33_21.ogg,,,,,,,,,0,0,0,0,0,2,2,2,0,0,0,0,,,,,,,,,,,,,0,0,0,0,0,20,20,20,,,,,,,,,,,,,,,,,,,,,,,,,,,,,,,,,,,,,,,,,,,,,,,,,,,,,,,,,,,,,,,,,,,,,,,,,,,,,,,,,,,,,,,,,,,,,,,,,,,,,486.38662931699946,490.5300501310012,,,,,011821,1,2,0,3,0,1,2,0,42,2022_Jan_18_1019,listening_fmri,3.2.4,60.161409451950234,
2,parcelated_audio/33/33_22.ogg,,,,,,,,,0,0,0,0,0,2,2,2,0,0,0,0,,,,,,,,,,,,,0,0,0,0,0,21,21,21,,,,,,,,,,,,,,,,,,,,,,,,,,,,,,,,,,,,,,,,,,,,,,,,,,,,,,,,,,,,,,,,,,,,,,,,,,,,,,,,,,,,,,,,,,,,,,,,,,,,,490.53040194599816,502.36192069000026,,,,,011821,1,2,0,3,0,1,2,0,42,2022_Jan_18_1019,listening_fmri,3.2.4,60.161409451950234,
2,parcelated_audio/33/33_23.ogg,,,,,,,,,0,0,0,0,0,2,2,2,0,0,0,0,,,,,,,,,,,,,0,0,0,0,0,22,22,22,,,,,,,,,,,,,,,,,,,,,,,,,,,,,,,,,,,,,,,,,,,,,,,,,,,,,,,,,,,,,,,,,,,,,,,,,,,,,,,,,,,,,,,,,,,,,,,,,,,,,502.3622890689985,512.8479563799992,,,,,011821,1,2,0,3,0,1,2,0,42,2022_Jan_18_1019,listening_fmri,3.2.4,60.161409451950234,
2,parcelated_audio/33/33_24.ogg,,,,,,,,,0,0,0,0,0,2,2,2,0,0,0,0,,,,,,,,,,,,,0,0,0,0,0,23,23,23,,,,,,,,,,,,,,,,,,,,,,,,,,,,,,,,,,,,,,,,,,,,,,,,,,,,,,,,,,,,,,,,,,,,,,,,,,,,,,,,,,,,,,,,,,,,,,,,,,,,,512.8483106140011,519.1030410089988,,,,,011821,1,2,0,3,0,1,2,0,42,2022_Jan_18_1019,listening_fmri,3.2.4,60.161409451950234,
2,parcelated_audio/33/33_25.ogg,,,,,,,,,0,0,0,0,0,2,2,2,0,0,0,0,,,,,,,,,,,,,0,0,0,0,0,24,24,24,,,,,,,,,,,,,,,,,,,,,,,,,,,,,,,,,,,,,,,,,,,,,,,,,,,,,,,,,,,,,,,,,,,,,,,,,,,,,,,,,,,,,,,,,,,,,,,,,,,,,519.103393985999,527.2968653179996,,,,,011821,1,2,0,3,0,1,2,0,42,2022_Jan_18_1019,listening_fmri,3.2.4,60.161409451950234,
2,parcelated_audio/33/33_26.ogg,,,,,,,,,0,0,0,0,0,2,2,2,0,0,0,0,,,,,,,,,,,,,0,0,0,0,0,25,25,25,,,,,,,,,,,,,,,,,,,,,,,,,,,,,,,,,,,,,,,,,,,,,,,,,,,,,,,,,,,,,,,,,,,,,,,,,,,,,,,,,,,,,,,,,,,,,,,,,,,,,527.297118814,534.3503132309997,,,,,011821,1,2,0,3,0,1,2,0,42,2022_Jan_18_1019,listening_fmri,3.2.4,60.161409451950234,
2,parcelated_audio/33/33_27.ogg,,,,,,,,,0,0,0,0,0,2,2,2,0,0,0,0,,,,,,,,,,,,,0,0,0,0,0,26,26,26,,,,,,,,,,,,,,,,,,,,,,,,,,,,,,,,,,,,,,,,,,,,,,,,,,,,,,,,,,,,,,,,,,,,,,,,,,,,,,,,,,,,,,,,,,,,,,,,,,,,,534.3505684909978,541.8838052969986,,,,,011821,1,2,0,3,0,1,2,0,42,2022_Jan_18_1019,listening_fmri,3.2.4,60.161409451950234,
2,parcelated_audio/33/33_28.ogg,,,,,,,,,0,0,0,0,0,2,2,2,0,0,0,0,,,,,,,,,,,,,0,0,0,0,0,27,27,27,,,,,,,,,,,,,,,,,,,,,,,,,,,,,,,,,,,,,,,,,,,,,,,,,,,,,,,,,,,,,,,,,,,,,,,,,,,,,,,,,,,,,,,,,,,,,,,,,,,,,541.8842333069988,547.5528109429979,,,,,011821,1,2,0,3,0,1,2,0,42,2022_Jan_18_1019,listening_fmri,3.2.4,60.161409451950234,
2,parcelated_audio/33/33_29.ogg,,,,,,,,,0,0,0,0,0,2,2,2,0,0,0,0,,,,,,,,,,,,,0,0,0,0,0,28,28,28,,,,,,,,,,,,,,,,,,,,,,,,,,,,,,,,,,,,,,,,,,,,,,,,,,,,,,,,,,,,,,,,,,,,,,,,,,,,,,,,,,,,,,,,,,,,,,,,,,,,,547.5530838570012,555.4716117009993,,,,,011821,1,2,0,3,0,1,2,0,42,2022_Jan_18_1019,listening_fmri,3.2.4,60.161409451950234,
2,parcelated_audio/33/33_30.ogg,,,,,,,,,0,0,0,0,0,2,2,2,0,0,0,0,,,,,,,,,,,,,0,0,0,0,0,29,29,29,,,,,,,,,,,,,,,,,,,,,,,,,,,,,,,,,,,,,,,,,,,,,,,,,,,,,,,,,,,,,,,,,,,,,,,,,,,,,,,,,,,,,,,,,,,,,,,,,,,,,555.4720078739992,570.4296292789986,,,,,011821,1,2,0,3,0,1,2,0,42,2022_Jan_18_1019,listening_fmri,3.2.4,60.161409451950234,
2,parcelated_audio/33/33_31.ogg,,,,,,,,,0,0,0,0,0,2,2,2,0,0,0,0,,,,,,,,,,,,,0,0,0,0,0,30,30,30,,,,,,,,,,,,,,,,,,,,,,,,,,,,,,,,,,,,,,,,,,,,,,,,,,,,,,,,,,,,,,,,,,,,,,,,,,,,,,,,,,,,,,,,,,,,,,,,,,,,,570.4299852410004,580.1656323690004,,,,,011821,1,2,0,3,0,1,2,0,42,2022_Jan_18_1019,listening_fmri,3.2.4,60.161409451950234,
2,parcelated_audio/33/33_32.ogg,,,,,,,,,0,0,0,0,0,2,2,2,0,0,0,0,,,,,,,,,,,,,0,0,0,0,0,31,31,31,,,,,,,,,,,,,,,,,,,,,,,,,,,,,,,,,,,,,,,,,,,,,,,,,,,,,,,,,,,,,,,,,,,,,,,,,,,,,,,,,,,,,,,,,,,,,,,,,,,,,580.1659906749992,585.7819979449996,,,,,011821,1,2,0,3,0,1,2,0,42,2022_Jan_18_1019,listening_fmri,3.2.4,60.161409451950234,
2,,,,,,,,,,0,0,0,0,0,2,2,2,0,0,0,0,,,,,,,,,,,,,0,0,0,0,,,,,,,,,,,,,,,,,,,,,,,,,,,,,,,,,,,,,,,,,,,,,,,,,,,,,,,,,,,,,,,,,,,,,,,,,,,,,,,,,,,,,,,,,,,,,,,,,,,,,,,,,,,,,,,011821,1,2,0,3,0,1,2,0,42,2022_Jan_18_1019,listening_fmri,3.2.4,60.161409451950234,
,,,,,,,,,,,,,,,,,,,,,,,,,,,,,,,,,,,,,,,,,,,,,,,,,,,,,,,,,,,585.7824863179994,591.78465727,636.5490292150025,None,,,,,,,,,,,,,,,,,,,,,,,,,,,,,,,,,,,,,,,,,,,,,,,,,,,,,,,,,,,,,,,,,,,,,,,,,,,,,,,,,,642.5498700060016,None,642.5498700060016,None,,,,,,,,,,,,,,,
﻿count,audio,trials_14.thisRepN,trials_14.thisTrialN,trials_14.thisN,trials_14.thisIndex,trials_3.thisRepN,trials_3.thisTrialN,trials_3.thisN,trials_3.thisIndex,trials_4.thisRepN,trials_4.thisTrialN,trials_4.thisN,trials_4.thisIndex,trials_6.thisRepN,trials_6.thisTrialN,trials_6.thisN,trials_6.thisIndex,trials_9.thisRepN,trials_9.thisTrialN,trials_9.thisN,trials_9.thisIndex,trials_10.thisRepN,trials_10.thisTrialN,trials_10.thisN,trials_10.thisIndex,trials_11.thisRepN,trials_11.thisTrialN,trials_11.thisN,trials_11.thisIndex,trials_12.thisRepN,trials_12.thisTrialN,trials_12.thisN,trials_12.thisIndex,trials_25.thisRepN,trials_25.thisTrialN,trials_25.thisN,trials_25.thisIndex,trials_15.thisRepN,trials_15.thisTrialN,trials_15.thisN,trials_15.thisIndex,trials_26.thisRepN,trials_26.thisTrialN,trials_26.thisN,trials_26.thisIndex,story_list_block2,action_list_block2,textTrigger.started,textTrigger.stopped,getTrigger.keys,getTrigger.rt,getTrigger.started,getTrigger.stopped,triggerTime,text_76.started,text_76.stopped,text_77.started,text_77.stopped,startWait,endWait,image_23.started,image_23.stopped,text_55.started,text_55.stopped,text_56.started,text_56.stopped,key_resp_2.keys,key_resp_2.rt,key_resp_2.started,key_resp_2.stopped,text_82.started,text_82.stopped,text_57.started,text_57.stopped,key_resp_17.keys,key_resp_17.rt,key_resp_17.started,key_resp_17.stopped,text_83.started,text_83.stopped,text_60.started,text_60.stopped,image_2.started,image_2.stopped,text_58.started,text_58.stopped,key_resp_23.keys,key_resp_23.rt,key_resp_23.started,key_resp_23.stopped,text_62.started,text_62.stopped,key_resp_18.keys,key_resp_18.rt,key_resp_18.started,key_resp_18.stopped,text_84.started,text_84.stopped,question1_2.started,question1_2.stopped,question2_2.started,question2_2.stopped,question3_2.started,question3_2.stopped,question4_2.started,question4_2.stopped,question5_2.started,question5_2.stopped,question6_2.started,question6_2.stopped,image_15.started,image_15.stopped,key_resp.keys,key_resp.started,key_resp.stopped,text_59.started,text_59.stopped,key_resp_19.keys,key_resp_19.rt,key_resp_19.started,key_resp_19.stopped,text_85.started,text_85.stopped,text_61.started,text_61.stopped,image_17.started,image_17.stopped,text_63.started,text_63.stopped,key_resp_24.keys,key_resp_24.rt,key_resp_24.started,key_resp_24.stopped,text_64.started,text_64.stopped,key_resp_20.keys,key_resp_20.rt,key_resp_20.started,key_resp_20.stopped,storyImage_StartTime,storyImage_EndTime,clip_StartTime,clip_EndTime,text_67.started,text_67.stopped,text_68.started,text_68.stopped,participant,sA,sB,lA,lB,block_struct,play_stories,block,behavioral,random_seed,date,expName,psychopyVersion,frameRate,
0,,,,,,,,,,0,0,0,0,0,0,0,0,,,,,,,,,,,,,,,,,,,,,,,,,,,,,[24 44 33 42 22 13 11 31],[3 2 1 4 1 4 2 3],16.590416200000618,None,equal,34.154547815000114,16.590416200000618,None,34.17253596000228,16.590416200000618,None,16.590416200000618,None,0.00031087200113688596,6.009000588997878,50.765283584001736,None,,,,,,,,,,,,,,,,,,,,,,,,,,,,,,,,,,,,,,,,,,,,,,,,,,,,,,,,,,,,,,,,,,,,,,,,,,,,,,,,,,,,,,011821,1,2,0,3,0,1,2,0,42,2022_Jan_18_1019,listening_fmri,3.2.4,60.161409451950234,
1,,,,,,,,,,0,0,0,0,0,1,1,1,0,0,0,0,0,0,0,0,0,0,0,0,,,,,,,,,,,,,,,,,,,,,,,,,,,,,,,,,,56.78093501400144,None,56.78093501400144,None,2,2.0379267540010915,56.78093501400144,None,56.78093501400144,None,58.848303762002615,None,2,1.636653738001769,58.848303762002615,None,58.848303762002615,None,60.52309879000313,None,60.52309879000313,None,60.52309879000313,None,2,2.291753030000109,60.52309879000313,None,62.83150153800307,None,2,2.858434378998936,62.83150153800307,None,62.83150153800307,None,65.78962855300051,None,65.78962855300051,None,65.78962855300051,None,65.78962855300051,None,65.78962855300051,None,65.78962855300051,None,65.78962855300051,None,None,65.78962855300051,None,,,,,,,,,,,,,,,,,,,,,,,,,,,,,,,,,011821,1,2,0,3,0,1,2,0,42,2022_Jan_18_1019,listening_fmri,3.2.4,60.161409451950234,
1,,,,,,,,,,0,0,0,0,0,1,1,1,0,0,0,0,0,0,0,0,,,,,,,,,,,,,,,,,,,,,,,,,,,,,,,,,,,,,,,,,,,,,,,,,,,,,,,,,,,,,,,,,,,,,,,,,,,,,,,,,,,,,,,,,,,86.5313773750022,None,2,1.6954984320000221,86.5313773750022,None,86.5313773750022,None,88.26448801600054,None,88.26448801600054,None,88.26448801600054,None,2,4.438462926998909,88.26448801600054,None,,,,,,,,,,,,,,,011821,1,2,0,3,0,1,2,0,42,2022_Jan_18_1019,listening_fmri,3.2.4,60.161409451950234,
1,parcelated_audio/44/44_1.ogg,,,,,,,,,0,0,0,0,0,1,1,1,0,0,0,0,,,,,,,,,,,,,0,0,0,0,0,0,0,0,,,,,,,,,,,,,,,,,,,,,,,,,,,,,,,,,,,,,,,,,,,,,,,,,,,,,,,,,,,,,,,,,,,,,,,,,,,,,,,,,,,,,,,,,,,,,92.73128806000022,None,2,1.77066365799692,92.73128806000022,None,43.7833221769979,46.78386410099847,46.79249905300094,54.72032430699983,,,,,011821,1,2,0,3,0,1,2,0,42,2022_Jan_18_1019,listening_fmri,3.2.4,60.161409451950234,
1,parcelated_audio/44/44_2.ogg,,,,,,,,,0,0,0,0,0,1,1,1,0,0,0,0,,,,,,,,,,,,,0,0,0,0,0,1,1,1,,,,,,,,,,,,,,,,,,,,,,,,,,,,,,,,,,,,,,,,,,,,,,,,,,,,,,,,,,,,,,,,,,,,,,,,,,,,,,,,,,,,,,,,,,,,,,,,,,,,,54.72069790299793,63.83745354799976,,,,,011821,1,2,0,3,0,1,2,0,42,2022_Jan_18_1019,listening_fmri,3.2.4,60.161409451950234,
1,parcelated_audio/44/44_3.ogg,,,,,,,,,0,0,0,0,0,1,1,1,0,0,0,0,,,,,,,,,,,,,0,0,0,0,0,2,2,2,,,,,,,,,,,,,,,,,,,,,,,,,,,,,,,,,,,,,,,,,,,,,,,,,,,,,,,,,,,,,,,,,,,,,,,,,,,,,,,,,,,,,,,,,,,,,,,,,,,,,63.83781776199976,69.27475825399961,,,,,011821,1,2,0,3,0,1,2,0,42,2022_Jan_18_1019,listening_fmri,3.2.4,60.161409451950234,
1,parcelated_audio/44/44_4.ogg,,,,,,,,,0,0,0,0,0,1,1,1,0,0,0,0,,,,,,,,,,,,,0,0,0,0,0,3,3,3,,,,,,,,,,,,,,,,,,,,,,,,,,,,,,,,,,,,,,,,,,,,,,,,,,,,,,,,,,,,,,,,,,,,,,,,,,,,,,,,,,,,,,,,,,,,,,,,,,,,,69.27511974799927,74.3529482749982,,,,,011821,1,2,0,3,0,1,2,0,42,2022_Jan_18_1019,listening_fmri,3.2.4,60.161409451950234,
1,parcelated_audio/44/44_5.ogg,,,,,,,,,0,0,0,0,0,1,1,1,0,0,0,0,,,,,,,,,,,,,0,0,0,0,0,4,4,4,,,,,,,,,,,,,,,,,,,,,,,,,,,,,,,,,,,,,,,,,,,,,,,,,,,,,,,,,,,,,,,,,,,,,,,,,,,,,,,,,,,,,,,,,,,,,,,,,,,,,74.3533171300005,80.58791254400057,,,,,011821,1,2,0,3,0,1,2,0,42,2022_Jan_18_1019,listening_fmri,3.2.4,60.161409451950234,
1,parcelated_audio/44/44_6.ogg,,,,,,,,,0,0,0,0,0,1,1,1,0,0,0,0,,,,,,,,,,,,,0,0,0,0,0,5,5,5,,,,,,,,,,,,,,,,,,,,,,,,,,,,,,,,,,,,,,,,,,,,,,,,,,,,,,,,,,,,,,,,,,,,,,,,,,,,,,,,,,,,,,,,,,,,,,,,,,,,,80.58824896299848,87.5329429400008,,,,,011821,1,2,0,3,0,1,2,0,42,2022_Jan_18_1019,listening_fmri,3.2.4,60.161409451950234,
1,parcelated_audio/44/44_7.ogg,,,,,,,,,0,0,0,0,0,1,1,1,0,0,0,0,,,,,,,,,,,,,0,0,0,0,0,6,6,6,,,,,,,,,,,,,,,,,,,,,,,,,,,,,,,,,,,,,,,,,,,,,,,,,,,,,,,,,,,,,,,,,,,,,,,,,,,,,,,,,,,,,,,,,,,,,,,,,,,,,87.53377822499897,93.56040974699863,,,,,011821,1,2,0,3,0,1,2,0,42,2022_Jan_18_1019,listening_fmri,3.2.4,60.161409451950234,
1,parcelated_audio/44/44_8.ogg,,,,,,,,,0,0,0,0,0,1,1,1,0,0,0,0,,,,,,,,,,,,,0,0,0,0,0,7,7,7,,,,,,,,,,,,,,,,,,,,,,,,,,,,,,,,,,,,,,,,,,,,,,,,,,,,,,,,,,,,,,,,,,,,,,,,,,,,,,,,,,,,,,,,,,,,,,,,,,,,,93.56078710300062,97.93584528399879,,,,,011821,1,2,0,3,0,1,2,0,42,2022_Jan_18_1019,listening_fmri,3.2.4,60.161409451950234,
1,parcelated_audio/44/44_9.ogg,,,,,,,,,0,0,0,0,0,1,1,1,0,0,0,0,,,,,,,,,,,,,0,0,0,0,0,8,8,8,,,,,,,,,,,,,,,,,,,,,,,,,,,,,,,,,,,,,,,,,,,,,,,,,,,,,,,,,,,,,,,,,,,,,,,,,,,,,,,,,,,,,,,,,,,,,,,,,,,,,97.93625098399934,101.63493186199776,,,,,011821,1,2,0,3,0,1,2,0,42,2022_Jan_18_1019,listening_fmri,3.2.4,60.161409451950234,
1,parcelated_audio/44/44_10.ogg,,,,,,,,,0,0,0,0,0,1,1,1,0,0,0,0,,,,,,,,,,,,,0,0,0,0,0,9,9,9,,,,,,,,,,,,,,,,,,,,,,,,,,,,,,,,,,,,,,,,,,,,,,,,,,,,,,,,,,,,,,,,,,,,,,,,,,,,,,,,,,,,,,,,,,,,,,,,,,,,,101.63528126899837,111.76284741699783,,,,,011821,1,2,0,3,0,1,2,0,42,2022_Jan_18_1019,listening_fmri,3.2.4,60.161409451950234,
1,parcelated_audio/44/44_11.ogg,,,,,,,,,0,0,0,0,0,1,1,1,0,0,0,0,,,,,,,,,,,,,0,0,0,0,0,10,10,10,,,,,,,,,,,,,,,,,,,,,,,,,,,,,,,,,,,,,,,,,,,,,,,,,,,,,,,,,,,,,,,,,,,,,,,,,,,,,,,,,,,,,,,,,,,,,,,,,,,,,111.76319876399793,115.3148801339994,,,,,011821,1,2,0,3,0,1,2,0,42,2022_Jan_18_1019,listening_fmri,3.2.4,60.161409451950234,
1,parcelated_audio/44/44_12.ogg,,,,,,,,,0,0,0,0,0,1,1,1,0,0,0,0,,,,,,,,,,,,,0,0,0,0,0,11,11,11,,,,,,,,,,,,,,,,,,,,,,,,,,,,,,,,,,,,,,,,,,,,,,,,,,,,,,,,,,,,,,,,,,,,,,,,,,,,,,,,,,,,,,,,,,,,,,,,,,,,,115.31539465199967,125.9068654799994,,,,,011821,1,2,0,3,0,1,2,0,42,2022_Jan_18_1019,listening_fmri,3.2.4,60.161409451950234,
1,parcelated_audio/44/44_13.ogg,,,,,,,,,0,0,0,0,0,1,1,1,0,0,0,0,,,,,,,,,,,,,0,0,0,0,0,12,12,12,,,,,,,,,,,,,,,,,,,,,,,,,,,,,,,,,,,,,,,,,,,,,,,,,,,,,,,,,,,,,,,,,,,,,,,,,,,,,,,,,,,,,,,,,,,,,,,,,,,,,125.90721970400045,133.07186966299923,,,,,011821,1,2,0,3,0,1,2,0,42,2022_Jan_18_1019,listening_fmri,3.2.4,60.161409451950234,
1,parcelated_audio/44/44_14.ogg,,,,,,,,,0,0,0,0,0,1,1,1,0,0,0,0,,,,,,,,,,,,,0,0,0,0,0,13,13,13,,,,,,,,,,,,,,,,,,,,,,,,,,,,,,,,,,,,,,,,,,,,,,,,,,,,,,,,,,,,,,,,,,,,,,,,,,,,,,,,,,,,,,,,,,,,,,,,,,,,,133.0722227139995,139.3874660420006,,,,,011821,1,2,0,3,0,1,2,0,42,2022_Jan_18_1019,listening_fmri,3.2.4,60.161409451950234,
1,parcelated_audio/44/44_15.ogg,,,,,,,,,0,0,0,0,0,1,1,1,0,0,0,0,,,,,,,,,,,,,0,0,0,0,0,14,14,14,,,,,,,,,,,,,,,,,,,,,,,,,,,,,,,,,,,,,,,,,,,,,,,,,,,,,,,,,,,,,,,,,,,,,,,,,,,,,,,,,,,,,,,,,,,,,,,,,,,,,139.38792010700126,143.4674363890008,,,,,011821,1,2,0,3,0,1,2,0,42,2022_Jan_18_1019,listening_fmri,3.2.4,60.161409451950234,
1,parcelated_audio/44/44_16.ogg,,,,,,,,,0,0,0,0,0,1,1,1,0,0,0,0,,,,,,,,,,,,,0,0,0,0,0,15,15,15,,,,,,,,,,,,,,,,,,,,,,,,,,,,,,,,,,,,,,,,,,,,,,,,,,,,,,,,,,,,,,,,,,,,,,,,,,,,,,,,,,,,,,,,,,,,,,,,,,,,,143.46775057099876,147.4958363029982,,,,,011821,1,2,0,3,0,1,2,0,42,2022_Jan_18_1019,listening_fmri,3.2.4,60.161409451950234,
1,parcelated_audio/44/44_17.ogg,,,,,,,,,0,0,0,0,0,1,1,1,0,0,0,0,,,,,,,,,,,,,0,0,0,0,0,16,16,16,,,,,,,,,,,,,,,,,,,,,,,,,,,,,,,,,,,,,,,,,,,,,,,,,,,,,,,,,,,,,,,,,,,,,,,,,,,,,,,,,,,,,,,,,,,,,,,,,,,,,147.4961973419995,155.97088860700023,,,,,011821,1,2,0,3,0,1,2,0,42,2022_Jan_18_1019,listening_fmri,3.2.4,60.161409451950234,
1,parcelated_audio/44/44_18.ogg,,,,,,,,,0,0,0,0,0,1,1,1,0,0,0,0,,,,,,,,,,,,,0,0,0,0,0,17,17,17,,,,,,,,,,,,,,,,,,,,,,,,,,,,,,,,,,,,,,,,,,,,,,,,,,,,,,,,,,,,,,,,,,,,,,,,,,,,,,,,,,,,,,,,,,,,,,,,,,,,,155.9712523119997,165.81863425199845,,,,,011821,1,2,0,3,0,1,2,0,42,2022_Jan_18_1019,listening_fmri,3.2.4,60.161409451950234,
1,parcelated_audio/44/44_19.ogg,,,,,,,,,0,0,0,0,0,1,1,1,0,0,0,0,,,,,,,,,,,,,0,0,0,0,0,18,18,18,,,,,,,,,,,,,,,,,,,,,,,,,,,,,,,,,,,,,,,,,,,,,,,,,,,,,,,,,,,,,,,,,,,,,,,,,,,,,,,,,,,,,,,,,,,,,,,,,,,,,165.8195336989993,176.8057109779984,,,,,011821,1,2,0,3,0,1,2,0,42,2022_Jan_18_1019,listening_fmri,3.2.4,60.161409451950234,
1,parcelated_audio/44/44_20.ogg,,,,,,,,,0,0,0,0,0,1,1,1,0,0,0,0,,,,,,,,,,,,,0,0,0,0,0,19,19,19,,,,,,,,,,,,,,,,,,,,,,,,,,,,,,,,,,,,,,,,,,,,,,,,,,,,,,,,,,,,,,,,,,,,,,,,,,,,,,,,,,,,,,,,,,,,,,,,,,,,,176.80606705099854,185.03883416299868,,,,,011821,1,2,0,3,0,1,2,0,42,2022_Jan_18_1019,listening_fmri,3.2.4,60.161409451950234,
1,parcelated_audio/44/44_21.ogg,,,,,,,,,0,0,0,0,0,1,1,1,0,0,0,0,,,,,,,,,,,,,0,0,0,0,0,20,20,20,,,,,,,,,,,,,,,,,,,,,,,,,,,,,,,,,,,,,,,,,,,,,,,,,,,,,,,,,,,,,,,,,,,,,,,,,,,,,,,,,,,,,,,,,,,,,,,,,,,,,185.0391975450002,193.9428884629997,,,,,011821,1,2,0,3,0,1,2,0,42,2022_Jan_18_1019,listening_fmri,3.2.4,60.161409451950234,
1,parcelated_audio/44/44_22.ogg,,,,,,,,,0,0,0,0,0,1,1,1,0,0,0,0,,,,,,,,,,,,,0,0,0,0,0,21,21,21,,,,,,,,,,,,,,,,,,,,,,,,,,,,,,,,,,,,,,,,,,,,,,,,,,,,,,,,,,,,,,,,,,,,,,,,,,,,,,,,,,,,,,,,,,,,,,,,,,,,,193.94323594399975,198.8628189689989,,,,,011821,1,2,0,3,0,1,2,0,42,2022_Jan_18_1019,listening_fmri,3.2.4,60.161409451950234,
1,parcelated_audio/44/44_23.ogg,,,,,,,,,0,0,0,0,0,1,1,1,0,0,0,0,,,,,,,,,,,,,0,0,0,0,0,22,22,22,,,,,,,,,,,,,,,,,,,,,,,,,,,,,,,,,,,,,,,,,,,,,,,,,,,,,,,,,,,,,,,,,,,,,,,,,,,,,,,,,,,,,,,,,,,,,,,,,,,,,198.863183898,205.50643462399967,,,,,011821,1,2,0,3,0,1,2,0,42,2022_Jan_18_1019,listening_fmri,3.2.4,60.161409451950234,
1,parcelated_audio/44/44_24.ogg,,,,,,,,,0,0,0,0,0,1,1,1,0,0,0,0,,,,,,,,,,,,,0,0,0,0,0,23,23,23,,,,,,,,,,,,,,,,,,,,,,,,,,,,,,,,,,,,,,,,,,,,,,,,,,,,,,,,,,,,,,,,,,,,,,,,,,,,,,,,,,,,,,,,,,,,,,,,,,,,,205.506974300999,214.23587752800086,,,,,011821,1,2,0,3,0,1,2,0,42,2022_Jan_18_1019,listening_fmri,3.2.4,60.161409451950234,
1,parcelated_audio/44/44_25.ogg,,,,,,,,,0,0,0,0,0,1,1,1,0,0,0,0,,,,,,,,,,,,,0,0,0,0,0,24,24,24,,,,,,,,,,,,,,,,,,,,,,,,,,,,,,,,,,,,,,,,,,,,,,,,,,,,,,,,,,,,,,,,,,,,,,,,,,,,,,,,,,,,,,,,,,,,,,,,,,,,,214.23623691600005,220.55711216000054,,,,,011821,1,2,0,3,0,1,2,0,42,2022_Jan_18_1019,listening_fmri,3.2.4,60.161409451950234,
1,parcelated_audio/44/44_26.ogg,,,,,,,,,0,0,0,0,0,1,1,1,0,0,0,0,,,,,,,,,,,,,0,0,0,0,0,25,25,25,,,,,,,,,,,,,,,,,,,,,,,,,,,,,,,,,,,,,,,,,,,,,,,,,,,,,,,,,,,,,,,,,,,,,,,,,,,,,,,,,,,,,,,,,,,,,,,,,,,,,220.5579489499978,225.41884039100114,,,,,011821,1,2,0,3,0,1,2,0,42,2022_Jan_18_1019,listening_fmri,3.2.4,60.161409451950234,
1,parcelated_audio/44/44_27.ogg,,,,,,,,,0,0,0,0,0,1,1,1,0,0,0,0,,,,,,,,,,,,,0,0,0,0,0,26,26,26,,,,,,,,,,,,,,,,,,,,,,,,,,,,,,,,,,,,,,,,,,,,,,,,,,,,,,,,,,,,,,,,,,,,,,,,,,,,,,,,,,,,,,,,,,,,,,,,,,,,,225.41929845100094,232.4212338260004,,,,,011821,1,2,0,3,0,1,2,0,42,2022_Jan_18_1019,listening_fmri,3.2.4,60.161409451950234,
1,parcelated_audio/44/44_28.ogg,,,,,,,,,0,0,0,0,0,1,1,1,0,0,0,0,,,,,,,,,,,,,0,0,0,0,0,27,27,27,,,,,,,,,,,,,,,,,,,,,,,,,,,,,,,,,,,,,,,,,,,,,,,,,,,,,,,,,,,,,,,,,,,,,,,,,,,,,,,,,,,,,,,,,,,,,,,,,,,,,232.42202798799917,243.69507048599917,,,,,011821,1,2,0,3,0,1,2,0,42,2022_Jan_18_1019,listening_fmri,3.2.4,60.161409451950234,
1,,,,,,,,,,0,0,0,0,0,1,1,1,0,0,0,0,,,,,,,,,,,,,0,0,0,0,,,,,,,,,,,,,,,,,,,,,,,,,,,,,,,,,,,,,,,,,,,,,,,,,,,,,,,,,,,,,,,,,,,,,,,,,,,,,,,,,,,,,,,,,,,,,,,,,,,,,,,,,,,,,,,011821,1,2,0,3,0,1,2,0,42,2022_Jan_18_1019,listening_fmri,3.2.4,60.161409451950234,
1,,,,,,,,,,0,0,0,0,0,1,1,1,0,0,0,0,,,,,,,,,,,,,,,,,,,,,,,,,,,,,,,,,,,,,,243.6955599799985,249.68353079399822,294.4478128430019,None,,,,,,,,,,,,,,,,,,,,,,,,,,,,,,,,,,,,,,,,,,,,,,,,,,,,,,,,,,,,,,,,,,,,,,,,,,,,,,,,,,300.4487364200031,None,300.4487364200031,None,011821,1,2,0,3,0,1,2,0,42,2022_Jan_18_1019,listening_fmri,3.2.4,60.161409451950234,
1,,,,,,,,,,0,0,0,0,0,1,1,1,,,,,,,,,,,,,,,,,,,,,,,,,,,,,,,,,,,,,,,,,,,,,,,,,,,,,,,,,,,,,,,,,,,,,,,,,,,,,,,,,,,,,,,,,,,,,,,,,,,,,,,,,,,,,,,,,,,,,,,,,,,,,,,,,,,011821,1,2,0,3,0,1,2,0,42,2022_Jan_18_1019,listening_fmri,3.2.4,60.161409451950234,
2,,,,,,,,,,0,0,0,0,0,2,2,2,0,0,0,0,0,0,0,0,0,0,0,0,,,,,,,,,,,,,,,,,,,,,,,,,,,,,,,,,,301.4545877140008,None,301.4545877140008,None,2,2.284275450001587,301.4545877140008,None,301.4545877140008,None,303.7650232420019,None,2,2.1699720450014865,303.7650232420019,None,303.7650232420019,None,305.97098366200225,None,305.97098366200225,None,305.97098366200225,None,2,1.7679937980028626,305.97098366200225,None,307.7656393540019,None,2,1.8963055620006344,307.7656393540019,None,307.7656393540019,None,309.75354913000047,None,309.75354913000047,None,309.75354913000047,None,309.75354913000047,None,309.75354913000047,None,309.75354913000047,None,309.75354913000047,None,None,309.75354913000047,None,,,,,,,,,,,,,,,,,,,,,,,,,,,,,,,,,011821,1,2,0,3,0,1,2,0,42,2022_Jan_18_1019,listening_fmri,3.2.4,60.161409451950234,
2,,,,,,,,,,0,0,0,0,0,2,2,2,0,0,0,0,0,0,0,0,,,,,,,,,,,,,,,,,,,,,,,,,,,,,,,,,,,,,,,,,,,,,,,,,,,,,,,,,,,,,,,,,,,,,,,,,,,,,,,,,,,,,,,,,,,340.6310621900011,None,2,1.460767903001397,340.6310621900011,None,340.6310621900011,None,342.13180621100037,None,342.13180621100037,None,342.13180621100037,None,2,1.1830049300006067,342.13180621100037,None,,,,,,,,,,,,,,,011821,1,2,0,3,0,1,2,0,42,2022_Jan_18_1019,listening_fmri,3.2.4,60.161409451950234,
2,parcelated_audio/33/33_1.ogg,,,,,,,,,0,0,0,0,0,2,2,2,0,0,0,0,,,,,,,,,,,,,0,0,0,0,0,0,0,0,,,,,,,,,,,,,,,,,,,,,,,,,,,,,,,,,,,,,,,,,,,,,,,,,,,,,,,,,,,,,,,,,,,,,,,,,,,,,,,,,,,,,,,,,,,,,343.33783072400183,None,2,6.399145168998075,343.33783072400183,None,299.0406870650004,302.049962041001,302.055469930001,312.03264996099824,,,,,011821,1,2,0,3,0,1,2,0,42,2022_Jan_18_1019,listening_fmri,3.2.4,60.161409451950234,
2,parcelated_audio/33/33_2.ogg,,,,,,,,,0,0,0,0,0,2,2,2,0,0,0,0,,,,,,,,,,,,,0,0,0,0,0,1,1,1,,,,,,,,,,,,,,,,,,,,,,,,,,,,,,,,,,,,,,,,,,,,,,,,,,,,,,,,,,,,,,,,,,,,,,,,,,,,,,,,,,,,,,,,,,,,,,,,,,,,,312.0330434489988,322.47591158900104,,,,,011821,1,2,0,3,0,1,2,0,42,2022_Jan_18_1019,listening_fmri,3.2.4,60.161409451950234,
2,parcelated_audio/33/33_3.ogg,,,,,,,,,0,0,0,0,0,2,2,2,0,0,0,0,,,,,,,,,,,,,0,0,0,0,0,2,2,2,,,,,,,,,,,,,,,,,,,,,,,,,,,,,,,,,,,,,,,,,,,,,,,,,,,,,,,,,,,,,,,,,,,,,,,,,,,,,,,,,,,,,,,,,,,,,,,,,,,,,322.47633915299957,329.0137667279996,,,,,011821,1,2,0,3,0,1,2,0,42,2022_Jan_18_1019,listening_fmri,3.2.4,60.161409451950234,
2,parcelated_audio/33/33_4.ogg,,,,,,,,,0,0,0,0,0,2,2,2,0,0,0,0,,,,,,,,,,,,,0,0,0,0,0,3,3,3,,,,,,,,,,,,,,,,,,,,,,,,,,,,,,,,,,,,,,,,,,,,,,,,,,,,,,,,,,,,,,,,,,,,,,,,,,,,,,,,,,,,,,,,,,,,,,,,,,,,,329.01411341199855,332.5998933359988,,,,,011821,1,2,0,3,0,1,2,0,42,2022_Jan_18_1019,listening_fmri,3.2.4,60.161409451950234,
2,parcelated_audio/33/33_5.ogg,,,,,,,,,0,0,0,0,0,2,2,2,0,0,0,0,,,,,,,,,,,,,0,0,0,0,0,4,4,4,,,,,,,,,,,,,,,,,,,,,,,,,,,,,,,,,,,,,,,,,,,,,,,,,,,,,,,,,,,,,,,,,,,,,,,,,,,,,,,,,,,,,,,,,,,,,,,,,,,,,332.6008408079979,343.8449513710002,,,,,011821,1,2,0,3,0,1,2,0,42,2022_Jan_18_1019,listening_fmri,3.2.4,60.161409451950234,
2,parcelated_audio/33/33_6.ogg,,,,,,,,,0,0,0,0,0,2,2,2,0,0,0,0,,,,,,,,,,,,,0,0,0,0,0,5,5,5,,,,,,,,,,,,,,,,,,,,,,,,,,,,,,,,,,,,,,,,,,,,,,,,,,,,,,,,,,,,,,,,,,,,,,,,,,,,,,,,,,,,,,,,,,,,,,,,,,,,,343.8453006290001,355.5408349249992,,,,,011821,1,2,0,3,0,1,2,0,42,2022_Jan_18_1019,listening_fmri,3.2.4,60.161409451950234,
2,parcelated_audio/33/33_7.ogg,,,,,,,,,0,0,0,0,0,2,2,2,0,0,0,0,,,,,,,,,,,,,0,0,0,0,0,6,6,6,,,,,,,,,,,,,,,,,,,,,,,,,,,,,,,,,,,,,,,,,,,,,,,,,,,,,,,,,,,,,,,,,,,,,,,,,,,,,,,,,,,,,,,,,,,,,,,,,,,,,355.54124927999874,370.09284098699936,,,,,011821,1,2,0,3,0,1,2,0,42,2022_Jan_18_1019,listening_fmri,3.2.4,60.161409451950234,
2,parcelated_audio/33/33_8.ogg,,,,,,,,,0,0,0,0,0,2,2,2,0,0,0,0,,,,,,,,,,,,,0,0,0,0,0,7,7,7,,,,,,,,,,,,,,,,,,,,,,,,,,,,,,,,,,,,,,,,,,,,,,,,,,,,,,,,,,,,,,,,,,,,,,,,,,,,,,,,,,,,,,,,,,,,,,,,,,,,,370.09319255800074,376.23230458000035,,,,,011821,1,2,0,3,0,1,2,0,42,2022_Jan_18_1019,listening_fmri,3.2.4,60.161409451950234,
2,parcelated_audio/33/33_9.ogg,,,,,,,,,0,0,0,0,0,2,2,2,0,0,0,0,,,,,,,,,,,,,0,0,0,0,0,8,8,8,,,,,,,,,,,,,,,,,,,,,,,,,,,,,,,,,,,,,,,,,,,,,,,,,,,,,,,,,,,,,,,,,,,,,,,,,,,,,,,,,,,,,,,,,,,,,,,,,,,,,376.23265300799903,379.9307427909989,,,,,011821,1,2,0,3,0,1,2,0,42,2022_Jan_18_1019,listening_fmri,3.2.4,60.161409451950234,
2,parcelated_audio/33/33_10.ogg,,,,,,,,,0,0,0,0,0,2,2,2,0,0,0,0,,,,,,,,,,,,,0,0,0,0,0,9,9,9,,,,,,,,,,,,,,,,,,,,,,,,,,,,,,,,,,,,,,,,,,,,,,,,,,,,,,,,,,,,,,,,,,,,,,,,,,,,,,,,,,,,,,,,,,,,,,,,,,,,,379.9311949539988,385.290775483998,,,,,011821,1,2,0,3,0,1,2,0,42,2022_Jan_18_1019,listening_fmri,3.2.4,60.161409451950234,
2,parcelated_audio/33/33_11.ogg,,,,,,,,,0,0,0,0,0,2,2,2,0,0,0,0,,,,,,,,,,,,,0,0,0,0,0,10,10,10,,,,,,,,,,,,,,,,,,,,,,,,,,,,,,,,,,,,,,,,,,,,,,,,,,,,,,,,,,,,,,,,,,,,,,,,,,,,,,,,,,,,,,,,,,,,,,,,,,,,,385.29112643400003,399.7034865370006,,,,,011821,1,2,0,3,0,1,2,0,42,2022_Jan_18_1019,listening_fmri,3.2.4,60.161409451950234,
2,parcelated_audio/33/33_12.ogg,,,,,,,,,0,0,0,0,0,2,2,2,0,0,0,0,,,,,,,,,,,,,0,0,0,0,0,11,11,11,,,,,,,,,,,,,,,,,,,,,,,,,,,,,,,,,,,,,,,,,,,,,,,,,,,,,,,,,,,,,,,,,,,,,,,,,,,,,,,,,,,,,,,,,,,,,,,,,,,,,399.7042833939995,405.8018223079998,,,,,011821,1,2,0,3,0,1,2,0,42,2022_Jan_18_1019,listening_fmri,3.2.4,60.161409451950234,
2,parcelated_audio/33/33_13.ogg,,,,,,,,,0,0,0,0,0,2,2,2,0,0,0,0,,,,,,,,,,,,,0,0,0,0,0,12,12,12,,,,,,,,,,,,,,,,,,,,,,,,,,,,,,,,,,,,,,,,,,,,,,,,,,,,,,,,,,,,,,,,,,,,,,,,,,,,,,,,,,,,,,,,,,,,,,,,,,,,,405.802190866998,413.1997053289997,,,,,011821,1,2,0,3,0,1,2,0,42,2022_Jan_18_1019,listening_fmri,3.2.4,60.161409451950234,
2,parcelated_audio/33/33_14.ogg,,,,,,,,,0,0,0,0,0,2,2,2,0,0,0,0,,,,,,,,,,,,,0,0,0,0,0,13,13,13,,,,,,,,,,,,,,,,,,,,,,,,,,,,,,,,,,,,,,,,,,,,,,,,,,,,,,,,,,,,,,,,,,,,,,,,,,,,,,,,,,,,,,,,,,,,,,,,,,,,,413.2007932279994,425.6336853370012,,,,,011821,1,2,0,3,0,1,2,0,42,2022_Jan_18_1019,listening_fmri,3.2.4,60.161409451950234,
2,parcelated_audio/33/33_15.ogg,,,,,,,,,0,0,0,0,0,2,2,2,0,0,0,0,,,,,,,,,,,,,0,0,0,0,0,14,14,14,,,,,,,,,,,,,,,,,,,,,,,,,,,,,,,,,,,,,,,,,,,,,,,,,,,,,,,,,,,,,,,,,,,,,,,,,,,,,,,,,,,,,,,,,,,,,,,,,,,,,425.63452241199775,444.17370614299944,,,,,011821,1,2,0,3,0,1,2,0,42,2022_Jan_18_1019,listening_fmri,3.2.4,60.161409451950234,
2,parcelated_audio/33/33_16.ogg,,,,,,,,,0,0,0,0,0,2,2,2,0,0,0,0,,,,,,,,,,,,,0,0,0,0,0,15,15,15,,,,,,,,,,,,,,,,,,,,,,,,,,,,,,,,,,,,,,,,,,,,,,,,,,,,,,,,,,,,,,,,,,,,,,,,,,,,,,,,,,,,,,,,,,,,,,,,,,,,,444.1740664370009,456.3978871699983,,,,,011821,1,2,0,3,0,1,2,0,42,2022_Jan_18_1019,listening_fmri,3.2.4,60.161409451950234,
2,parcelated_audio/33/33_17.ogg,,,,,,,,,0,0,0,0,0,2,2,2,0,0,0,0,,,,,,,,,,,,,0,0,0,0,0,16,16,16,,,,,,,,,,,,,,,,,,,,,,,,,,,,,,,,,,,,,,,,,,,,,,,,,,,,,,,,,,,,,,,,,,,,,,,,,,,,,,,,,,,,,,,,,,,,,,,,,,,,,456.39825473399833,467.60578808599894,,,,,011821,1,2,0,3,0,1,2,0,42,2022_Jan_18_1019,listening_fmri,3.2.4,60.161409451950234,
2,parcelated_audio/33/33_18.ogg,,,,,,,,,0,0,0,0,0,2,2,2,0,0,0,0,,,,,,,,,,,,,0,0,0,0,0,17,17,17,,,,,,,,,,,,,,,,,,,,,,,,,,,,,,,,,,,,,,,,,,,,,,,,,,,,,,,,,,,,,,,,,,,,,,,,,,,,,,,,,,,,,,,,,,,,,,,,,,,,,467.60614128199813,476.06485845000134,,,,,011821,1,2,0,3,0,1,2,0,42,2022_Jan_18_1019,listening_fmri,3.2.4,60.161409451950234,
2,parcelated_audio/33/33_19.ogg,,,,,,,,,0,0,0,0,0,2,2,2,0,0,0,0,,,,,,,,,,,,,0,0,0,0,0,18,18,18,,,,,,,,,,,,,,,,,,,,,,,,,,,,,,,,,,,,,,,,,,,,,,,,,,,,,,,,,,,,,,,,,,,,,,,,,,,,,,,,,,,,,,,,,,,,,,,,,,,,,476.065209114,479.51091410200024,,,,,011821,1,2,0,3,0,1,2,0,42,2022_Jan_18_1019,listening_fmri,3.2.4,60.161409451950234,
2,parcelated_audio/33/33_20.ogg,,,,,,,,,0,0,0,0,0,2,2,2,0,0,0,0,,,,,,,,,,,,,0,0,0,0,0,19,19,19,,,,,,,,,,,,,,,,,,,,,,,,,,,,,,,,,,,,,,,,,,,,,,,,,,,,,,,,,,,,,,,,,,,,,,,,,,,,,,,,,,,,,,,,,,,,,,,,,,,,,479.5112386699984,486.38619868299793,,,,,011821,1,2,0,3,0,1,2,0,42,2022_Jan_18_1019,listening_fmri,3.2.4,60.161409451950234,
2,parcelated_audio/33/33_21.ogg,,,,,,,,,0,0,0,0,0,2,2,2,0,0,0,0,,,,,,,,,,,,,0,0,0,0,0,20,20,20,,,,,,,,,,,,,,,,,,,,,,,,,,,,,,,,,,,,,,,,,,,,,,,,,,,,,,,,,,,,,,,,,,,,,,,,,,,,,,,,,,,,,,,,,,,,,,,,,,,,,486.38662931699946,490.5300501310012,,,,,011821,1,2,0,3,0,1,2,0,42,2022_Jan_18_1019,listening_fmri,3.2.4,60.161409451950234,
2,parcelated_audio/33/33_22.ogg,,,,,,,,,0,0,0,0,0,2,2,2,0,0,0,0,,,,,,,,,,,,,0,0,0,0,0,21,21,21,,,,,,,,,,,,,,,,,,,,,,,,,,,,,,,,,,,,,,,,,,,,,,,,,,,,,,,,,,,,,,,,,,,,,,,,,,,,,,,,,,,,,,,,,,,,,,,,,,,,,490.53040194599816,502.36192069000026,,,,,011821,1,2,0,3,0,1,2,0,42,2022_Jan_18_1019,listening_fmri,3.2.4,60.161409451950234,
2,parcelated_audio/33/33_23.ogg,,,,,,,,,0,0,0,0,0,2,2,2,0,0,0,0,,,,,,,,,,,,,0,0,0,0,0,22,22,22,,,,,,,,,,,,,,,,,,,,,,,,,,,,,,,,,,,,,,,,,,,,,,,,,,,,,,,,,,,,,,,,,,,,,,,,,,,,,,,,,,,,,,,,,,,,,,,,,,,,,502.3622890689985,512.8479563799992,,,,,011821,1,2,0,3,0,1,2,0,42,2022_Jan_18_1019,listening_fmri,3.2.4,60.161409451950234,
2,parcelated_audio/33/33_24.ogg,,,,,,,,,0,0,0,0,0,2,2,2,0,0,0,0,,,,,,,,,,,,,0,0,0,0,0,23,23,23,,,,,,,,,,,,,,,,,,,,,,,,,,,,,,,,,,,,,,,,,,,,,,,,,,,,,,,,,,,,,,,,,,,,,,,,,,,,,,,,,,,,,,,,,,,,,,,,,,,,,512.8483106140011,519.1030410089988,,,,,011821,1,2,0,3,0,1,2,0,42,2022_Jan_18_1019,listening_fmri,3.2.4,60.161409451950234,
2,parcelated_audio/33/33_25.ogg,,,,,,,,,0,0,0,0,0,2,2,2,0,0,0,0,,,,,,,,,,,,,0,0,0,0,0,24,24,24,,,,,,,,,,,,,,,,,,,,,,,,,,,,,,,,,,,,,,,,,,,,,,,,,,,,,,,,,,,,,,,,,,,,,,,,,,,,,,,,,,,,,,,,,,,,,,,,,,,,,519.103393985999,527.2968653179996,,,,,011821,1,2,0,3,0,1,2,0,42,2022_Jan_18_1019,listening_fmri,3.2.4,60.161409451950234,
2,parcelated_audio/33/33_26.ogg,,,,,,,,,0,0,0,0,0,2,2,2,0,0,0,0,,,,,,,,,,,,,0,0,0,0,0,25,25,25,,,,,,,,,,,,,,,,,,,,,,,,,,,,,,,,,,,,,,,,,,,,,,,,,,,,,,,,,,,,,,,,,,,,,,,,,,,,,,,,,,,,,,,,,,,,,,,,,,,,,527.297118814,534.3503132309997,,,,,011821,1,2,0,3,0,1,2,0,42,2022_Jan_18_1019,listening_fmri,3.2.4,60.161409451950234,
2,parcelated_audio/33/33_27.ogg,,,,,,,,,0,0,0,0,0,2,2,2,0,0,0,0,,,,,,,,,,,,,0,0,0,0,0,26,26,26,,,,,,,,,,,,,,,,,,,,,,,,,,,,,,,,,,,,,,,,,,,,,,,,,,,,,,,,,,,,,,,,,,,,,,,,,,,,,,,,,,,,,,,,,,,,,,,,,,,,,534.3505684909978,541.8838052969986,,,,,011821,1,2,0,3,0,1,2,0,42,2022_Jan_18_1019,listening_fmri,3.2.4,60.161409451950234,
2,parcelated_audio/33/33_28.ogg,,,,,,,,,0,0,0,0,0,2,2,2,0,0,0,0,,,,,,,,,,,,,0,0,0,0,0,27,27,27,,,,,,,,,,,,,,,,,,,,,,,,,,,,,,,,,,,,,,,,,,,,,,,,,,,,,,,,,,,,,,,,,,,,,,,,,,,,,,,,,,,,,,,,,,,,,,,,,,,,,541.8842333069988,547.5528109429979,,,,,011821,1,2,0,3,0,1,2,0,42,2022_Jan_18_1019,listening_fmri,3.2.4,60.161409451950234,
2,parcelated_audio/33/33_29.ogg,,,,,,,,,0,0,0,0,0,2,2,2,0,0,0,0,,,,,,,,,,,,,0,0,0,0,0,28,28,28,,,,,,,,,,,,,,,,,,,,,,,,,,,,,,,,,,,,,,,,,,,,,,,,,,,,,,,,,,,,,,,,,,,,,,,,,,,,,,,,,,,,,,,,,,,,,,,,,,,,,547.5530838570012,555.4716117009993,,,,,011821,1,2,0,3,0,1,2,0,42,2022_Jan_18_1019,listening_fmri,3.2.4,60.161409451950234,
2,parcelated_audio/33/33_30.ogg,,,,,,,,,0,0,0,0,0,2,2,2,0,0,0,0,,,,,,,,,,,,,0,0,0,0,0,29,29,29,,,,,,,,,,,,,,,,,,,,,,,,,,,,,,,,,,,,,,,,,,,,,,,,,,,,,,,,,,,,,,,,,,,,,,,,,,,,,,,,,,,,,,,,,,,,,,,,,,,,,555.4720078739992,570.4296292789986,,,,,011821,1,2,0,3,0,1,2,0,42,2022_Jan_18_1019,listening_fmri,3.2.4,60.161409451950234,
2,parcelated_audio/33/33_31.ogg,,,,,,,,,0,0,0,0,0,2,2,2,0,0,0,0,,,,,,,,,,,,,0,0,0,0,0,30,30,30,,,,,,,,,,,,,,,,,,,,,,,,,,,,,,,,,,,,,,,,,,,,,,,,,,,,,,,,,,,,,,,,,,,,,,,,,,,,,,,,,,,,,,,,,,,,,,,,,,,,,570.4299852410004,580.1656323690004,,,,,011821,1,2,0,3,0,1,2,0,42,2022_Jan_18_1019,listening_fmri,3.2.4,60.161409451950234,
2,parcelated_audio/33/33_32.ogg,,,,,,,,,0,0,0,0,0,2,2,2,0,0,0,0,,,,,,,,,,,,,0,0,0,0,0,31,31,31,,,,,,,,,,,,,,,,,,,,,,,,,,,,,,,,,,,,,,,,,,,,,,,,,,,,,,,,,,,,,,,,,,,,,,,,,,,,,,,,,,,,,,,,,,,,,,,,,,,,,580.1659906749992,585.7819979449996,,,,,011821,1,2,0,3,0,1,2,0,42,2022_Jan_18_1019,listening_fmri,3.2.4,60.161409451950234,
2,,,,,,,,,,0,0,0,0,0,2,2,2,0,0,0,0,,,,,,,,,,,,,0,0,0,0,,,,,,,,,,,,,,,,,,,,,,,,,,,,,,,,,,,,,,,,,,,,,,,,,,,,,,,,,,,,,,,,,,,,,,,,,,,,,,,,,,,,,,,,,,,,,,,,,,,,,,,,,,,,,,,011821,1,2,0,3,0,1,2,0,42,2022_Jan_18_1019,listening_fmri,3.2.4,60.161409451950234,
2,,,,,,,,,,0,0,0,0,0,2,2,2,0,0,0,0,,,,,,,,,,,,,,,,,,,,,,,,,,,,,,,,,,,,,,585.7824863179994,591.78465727,636.5490292150025,None,,,,,,,,,,,,,,,,,,,,,,,,,,,,,,,,,,,,,,,,,,,,,,,,,,,,,,,,,,,,,,,,,,,,,,,,,,,,,,,,,,642.5498700060016,None,642.5498700060016,None,011821,1,2,0,3,0,1,2,0,42,2022_Jan_18_1019,listening_fmri,3.2.4,60.161409451950234,
2,,,,,,,,,,0,0,0,0,0,2,2,2,,,,,,,,,,,,,,,,,,,,,,,,,,,,,,,,,,,,,,,,,,,,,,,,,,,,,,,,,,,,,,,,,,,,,,,,,,,,,,,,,,,,,,,,,,,,,,,,,,,,,,,,,,,,,,,,,,,,,,,,,,,,,,,,,,,011821,1,2,0,3,0,1,2,0,42,2022_Jan_18_1019,listening_fmri,3.2.4,60.161409451950234,
3,parcelated_audio/42/42_1.ogg,,,,,,,,,0,0,0,0,0,3,3,3,0,0,0,0,,,,,,,,,,,,,0,0,0,0,0,0,0,0,,,,,,,,,,,,,,,,,,,,,,643.5660178200014,None,643.5660178200014,None,2,1.6579046289989492,643.5660178200014,None,643.5660178200014,None,,,,,,,,,,,,,,,,,,,,,,,,,,,,,,,,,,,,,,,,,,,,,,,,,,,,,,,,,,,,,,645.2491584320014,None,2,3.3807518239991623,645.2491584320014,None,597.8953477699979,600.9010013309999,600.9098239650011,609.2737252039988,,,,,011821,1,2,0,3,0,1,2,0,42,2022_Jan_18_1019,listening_fmri,3.2.4,60.161409451950234,
3,parcelated_audio/42/42_2.ogg,,,,,,,,,0,0,0,0,0,3,3,3,0,0,0,0,,,,,,,,,,,,,0,0,0,0,0,1,1,1,,,,,,,,,,,,,,,,,,,,,,,,,,,,,,,,,,,,,,,,,,,,,,,,,,,,,,,,,,,,,,,,,,,,,,,,,,,,,,,,,,,,,,,,,,,,,,,,,,,,,609.274789684001,621.994989406001,,,,,011821,1,2,0,3,0,1,2,0,42,2022_Jan_18_1019,listening_fmri,3.2.4,60.161409451950234,
3,parcelated_audio/42/42_3.ogg,,,,,,,,,0,0,0,0,0,3,3,3,0,0,0,0,,,,,,,,,,,,,0,0,0,0,0,2,2,2,,,,,,,,,,,,,,,,,,,,,,,,,,,,,,,,,,,,,,,,,,,,,,,,,,,,,,,,,,,,,,,,,,,,,,,,,,,,,,,,,,,,,,,,,,,,,,,,,,,,,621.9953378120008,632.3859912259977,,,,,011821,1,2,0,3,0,1,2,0,42,2022_Jan_18_1019,listening_fmri,3.2.4,60.161409451950234,
3,parcelated_audio/42/42_4.ogg,,,,,,,,,0,0,0,0,0,3,3,3,0,0,0,0,,,,,,,,,,,,,0,0,0,0,0,3,3,3,,,,,,,,,,,,,,,,,,,,,,,,,,,,,,,,,,,,,,,,,,,,,,,,,,,,,,,,,,,,,,,,,,,,,,,,,,,,,,,,,,,,,,,,,,,,,,,,,,,,,632.3863423920011,646.0918301210004,,,,,011821,1,2,0,3,0,1,2,0,42,2022_Jan_18_1019,listening_fmri,3.2.4,60.161409451950234,
3,parcelated_audio/42/42_5.ogg,,,,,,,,,0,0,0,0,0,3,3,3,0,0,0,0,,,,,,,,,,,,,0,0,0,0,0,4,4,4,,,,,,,,,,,,,,,,,,,,,,,,,,,,,,,,,,,,,,,,,,,,,,,,,,,,,,,,,,,,,,,,,,,,,,,,,,,,,,,,,,,,,,,,,,,,,,,,,,,,,646.0921923389978,657.533562968998,,,,,011821,1,2,0,3,0,1,2,0,42,2022_Jan_18_1019,listening_fmri,3.2.4,60.161409451950234,
3,parcelated_audio/42/42_6.ogg,,,,,,,,,0,0,0,0,0,3,3,3,0,0,0,0,,,,,,,,,,,,,0,0,0,0,0,5,5,5,,,,,,,,,,,,,,,,,,,,,,,,,,,,,,,,,,,,,,,,,,,,,,,,,,,,,,,,,,,,,,,,,,,,,,,,,,,,,,,,,,,,,,,,,,,,,,,,,,,,,657.5340353680003,664.0225884469983,,,,,011821,1,2,0,3,0,1,2,0,42,2022_Jan_18_1019,listening_fmri,3.2.4,60.161409451950234,
3,parcelated_audio/42/42_7.ogg,,,,,,,,,0,0,0,0,0,3,3,3,0,0,0,0,,,,,,,,,,,,,0,0,0,0,0,6,6,6,,,,,,,,,,,,,,,,,,,,,,,,,,,,,,,,,,,,,,,,,,,,,,,,,,,,,,,,,,,,,,,,,,,,,,,,,,,,,,,,,,,,,,,,,,,,,,,,,,,,,664.0230608429993,669.2324500440009,,,,,011821,1,2,0,3,0,1,2,0,42,2022_Jan_18_1019,listening_fmri,3.2.4,60.161409451950234,
3,parcelated_audio/42/42_8.ogg,,,,,,,,,0,0,0,0,0,3,3,3,0,0,0,0,,,,,,,,,,,,,0,0,0,0,0,7,7,7,,,,,,,,,,,,,,,,,,,,,,,,,,,,,,,,,,,,,,,,,,,,,,,,,,,,,,,,,,,,,,,,,,,,,,,,,,,,,,,,,,,,,,,,,,,,,,,,,,,,,669.2328012340004,672.3841319599996,,,,,011821,1,2,0,3,0,1,2,0,42,2022_Jan_18_1019,listening_fmri,3.2.4,60.161409451950234,
3,parcelated_audio/42/42_9.ogg,,,,,,,,,0,0,0,0,0,3,3,3,0,0,0,0,,,,,,,,,,,,,0,0,0,0,0,8,8,8,,,,,,,,,,,,,,,,,,,,,,,,,,,,,,,,,,,,,,,,,,,,,,,,,,,,,,,,,,,,,,,,,,,,,,,,,,,,,,,,,,,,,,,,,,,,,,,,,,,,,672.3849093709978,680.930891267999,,,,,011821,1,2,0,3,0,1,2,0,42,2022_Jan_18_1019,listening_fmri,3.2.4,60.161409451950234,
3,parcelated_audio/42/42_10.ogg,,,,,,,,,0,0,0,0,0,3,3,3,0,0,0,0,,,,,,,,,,,,,0,0,0,0,0,9,9,9,,,,,,,,,,,,,,,,,,,,,,,,,,,,,,,,,,,,,,,,,,,,,,,,,,,,,,,,,,,,,,,,,,,,,,,,,,,,,,,,,,,,,,,,,,,,,,,,,,,,,680.9312747279982,685.2494510830002,,,,,011821,1,2,0,3,0,1,2,0,42,2022_Jan_18_1019,listening_fmri,3.2.4,60.161409451950234,
3,parcelated_audio/42/42_11.ogg,,,,,,,,,0,0,0,0,0,3,3,3,0,0,0,0,,,,,,,,,,,,,0,0,0,0,0,10,10,10,,,,,,,,,,,,,,,,,,,,,,,,,,,,,,,,,,,,,,,,,,,,,,,,,,,,,,,,,,,,,,,,,,,,,,,,,,,,,,,,,,,,,,,,,,,,,,,,,,,,,685.2498037320001,690.2358468919992,,,,,011821,1,2,0,3,0,1,2,0,42,2022_Jan_18_1019,listening_fmri,3.2.4,60.161409451950234,
3,parcelated_audio/42/42_12.ogg,,,,,,,,,0,0,0,0,0,3,3,3,0,0,0,0,,,,,,,,,,,,,0,0,0,0,0,11,11,11,,,,,,,,,,,,,,,,,,,,,,,,,,,,,,,,,,,,,,,,,,,,,,,,,,,,,,,,,,,,,,,,,,,,,,,,,,,,,,,,,,,,,,,,,,,,,,,,,,,,,690.2362008429991,696.2005707380013,,,,,011821,1,2,0,3,0,1,2,0,42,2022_Jan_18_1019,listening_fmri,3.2.4,60.161409451950234,
3,parcelated_audio/42/42_13.ogg,,,,,,,,,0,0,0,0,0,3,3,3,0,0,0,0,,,,,,,,,,,,,0,0,0,0,0,12,12,12,,,,,,,,,,,,,,,,,,,,,,,,,,,,,,,,,,,,,,,,,,,,,,,,,,,,,,,,,,,,,,,,,,,,,,,,,,,,,,,,,,,,,,,,,,,,,,,,,,,,,696.2009246140005,703.3629252169994,,,,,011821,1,2,0,3,0,1,2,0,42,2022_Jan_18_1019,listening_fmri,3.2.4,60.161409451950234,
3,parcelated_audio/42/42_14.ogg,,,,,,,,,0,0,0,0,0,3,3,3,0,0,0,0,,,,,,,,,,,,,0,0,0,0,0,13,13,13,,,,,,,,,,,,,,,,,,,,,,,,,,,,,,,,,,,,,,,,,,,,,,,,,,,,,,,,,,,,,,,,,,,,,,,,,,,,,,,,,,,,,,,,,,,,,,,,,,,,,703.363275265001,708.080828858001,,,,,011821,1,2,0,3,0,1,2,0,42,2022_Jan_18_1019,listening_fmri,3.2.4,60.161409451950234,
3,parcelated_audio/42/42_15.ogg,,,,,,,,,0,0,0,0,0,3,3,3,0,0,0,0,,,,,,,,,,,,,0,0,0,0,0,14,14,14,,,,,,,,,,,,,,,,,,,,,,,,,,,,,,,,,,,,,,,,,,,,,,,,,,,,,,,,,,,,,,,,,,,,,,,,,,,,,,,,,,,,,,,,,,,,,,,,,,,,,708.0811806870006,713.924794874998,,,,,011821,1,2,0,3,0,1,2,0,42,2022_Jan_18_1019,listening_fmri,3.2.4,60.161409451950234,
3,parcelated_audio/42/42_16.ogg,,,,,,,,,0,0,0,0,0,3,3,3,0,0,0,0,,,,,,,,,,,,,0,0,0,0,0,15,15,15,,,,,,,,,,,,,,,,,,,,,,,,,,,,,,,,,,,,,,,,,,,,,,,,,,,,,,,,,,,,,,,,,,,,,,,,,,,,,,,,,,,,,,,,,,,,,,,,,,,,,713.9251992760001,719.4922640689983,,,,,011821,1,2,0,3,0,1,2,0,42,2022_Jan_18_1019,listening_fmri,3.2.4,60.161409451950234,
3,parcelated_audio/42/42_17.ogg,,,,,,,,,0,0,0,0,0,3,3,3,0,0,0,0,,,,,,,,,,,,,0,0,0,0,0,16,16,16,,,,,,,,,,,,,,,,,,,,,,,,,,,,,,,,,,,,,,,,,,,,,,,,,,,,,,,,,,,,,,,,,,,,,,,,,,,,,,,,,,,,,,,,,,,,,,,,,,,,,719.4925345219999,729.1698605829988,,,,,011821,1,2,0,3,0,1,2,0,42,2022_Jan_18_1019,listening_fmri,3.2.4,60.161409451950234,
3,parcelated_audio/42/42_18.ogg,,,,,,,,,0,0,0,0,0,3,3,3,0,0,0,0,,,,,,,,,,,,,0,0,0,0,0,17,17,17,,,,,,,,,,,,,,,,,,,,,,,,,,,,,,,,,,,,,,,,,,,,,,,,,,,,,,,,,,,,,,,,,,,,,,,,,,,,,,,,,,,,,,,,,,,,,,,,,,,,,729.1702277969998,734.6030712479987,,,,,011821,1,2,0,3,0,1,2,0,42,2022_Jan_18_1019,listening_fmri,3.2.4,60.161409451950234,
3,parcelated_audio/42/42_19.ogg,,,,,,,,,0,0,0,0,0,3,3,3,0,0,0,0,,,,,,,,,,,,,0,0,0,0,0,18,18,18,,,,,,,,,,,,,,,,,,,,,,,,,,,,,,,,,,,,,,,,,,,,,,,,,,,,,,,,,,,,,,,,,,,,,,,,,,,,,,,,,,,,,,,,,,,,,,,,,,,,,734.6035380120011,743.7487445180013,,,,,011821,1,2,0,3,0,1,2,0,42,2022_Jan_18_1019,listening_fmri,3.2.4,60.161409451950234,
3,parcelated_audio/42/42_20.ogg,,,,,,,,,0,0,0,0,0,3,3,3,0,0,0,0,,,,,,,,,,,,,0,0,0,0,0,19,19,19,,,,,,,,,,,,,,,,,,,,,,,,,,,,,,,,,,,,,,,,,,,,,,,,,,,,,,,,,,,,,,,,,,,,,,,,,,,,,,,,,,,,,,,,,,,,,,,,,,,,,743.7490990590013,748.3969310809989,,,,,011821,1,2,0,3,0,1,2,0,42,2022_Jan_18_1019,listening_fmri,3.2.4,60.161409451950234,
3,parcelated_audio/42/42_21.ogg,,,,,,,,,0,0,0,0,0,3,3,3,0,0,0,0,,,,,,,,,,,,,0,0,0,0,0,20,20,20,,,,,,,,,,,,,,,,,,,,,,,,,,,,,,,,,,,,,,,,,,,,,,,,,,,,,,,,,,,,,,,,,,,,,,,,,,,,,,,,,,,,,,,,,,,,,,,,,,,,,748.3972391860007,758.3138957429983,,,,,011821,1,2,0,3,0,1,2,0,42,2022_Jan_18_1019,listening_fmri,3.2.4,60.161409451950234,
3,parcelated_audio/42/42_22.ogg,,,,,,,,,0,0,0,0,0,3,3,3,0,0,0,0,,,,,,,,,,,,,0,0,0,0,0,21,21,21,,,,,,,,,,,,,,,,,,,,,,,,,,,,,,,,,,,,,,,,,,,,,,,,,,,,,,,,,,,,,,,,,,,,,,,,,,,,,,,,,,,,,,,,,,,,,,,,,,,,,758.3142617230005,763.0797083190009,,,,,011821,1,2,0,3,0,1,2,0,42,2022_Jan_18_1019,listening_fmri,3.2.4,60.161409451950234,
3,parcelated_audio/42/42_23.ogg,,,,,,,,,0,0,0,0,0,3,3,3,0,0,0,0,,,,,,,,,,,,,0,0,0,0,0,22,22,22,,,,,,,,,,,,,,,,,,,,,,,,,,,,,,,,,,,,,,,,,,,,,,,,,,,,,,,,,,,,,,,,,,,,,,,,,,,,,,,,,,,,,,,,,,,,,,,,,,,,,763.0800712089986,769.3036159900003,,,,,011821,1,2,0,3,0,1,2,0,42,2022_Jan_18_1019,listening_fmri,3.2.4,60.161409451950234,
3,parcelated_audio/42/42_24.ogg,,,,,,,,,0,0,0,0,0,3,3,3,0,0,0,0,,,,,,,,,,,,,0,0,0,0,0,23,23,23,,,,,,,,,,,,,,,,,,,,,,,,,,,,,,,,,,,,,,,,,,,,,,,,,,,,,,,,,,,,,,,,,,,,,,,,,,,,,,,,,,,,,,,,,,,,,,,,,,,,,769.3039634050001,777.7639424900008,,,,,011821,1,2,0,3,0,1,2,0,42,2022_Jan_18_1019,listening_fmri,3.2.4,60.161409451950234,
3,parcelated_audio/42/42_25.ogg,,,,,,,,,0,0,0,0,0,3,3,3,0,0,0,0,,,,,,,,,,,,,0,0,0,0,0,24,24,24,,,,,,,,,,,,,,,,,,,,,,,,,,,,,,,,,,,,,,,,,,,,,,,,,,,,,,,,,,,,,,,,,,,,,,,,,,,,,,,,,,,,,,,,,,,,,,,,,,,,,777.7643128460004,783.9848559499987,,,,,011821,1,2,0,3,0,1,2,0,42,2022_Jan_18_1019,listening_fmri,3.2.4,60.161409451950234,
3,parcelated_audio/42/42_26.ogg,,,,,,,,,0,0,0,0,0,3,3,3,0,0,0,0,,,,,,,,,,,,,0,0,0,0,0,25,25,25,,,,,,,,,,,,,,,,,,,,,,,,,,,,,,,,,,,,,,,,,,,,,,,,,,,,,,,,,,,,,,,,,,,,,,,,,,,,,,,,,,,,,,,,,,,,,,,,,,,,,783.9852233579986,789.9029474749987,,,,,011821,1,2,0,3,0,1,2,0,42,2022_Jan_18_1019,listening_fmri,3.2.4,60.161409451950234,
3,parcelated_audio/42/42_27.ogg,,,,,,,,,0,0,0,0,0,3,3,3,0,0,0,0,,,,,,,,,,,,,0,0,0,0,0,26,26,26,,,,,,,,,,,,,,,,,,,,,,,,,,,,,,,,,,,,,,,,,,,,,,,,,,,,,,,,,,,,,,,,,,,,,,,,,,,,,,,,,,,,,,,,,,,,,,,,,,,,,789.9033534560003,797.5817393119978,,,,,011821,1,2,0,3,0,1,2,0,42,2022_Jan_18_1019,listening_fmri,3.2.4,60.161409451950234,
3,parcelated_audio/42/42_28.ogg,,,,,,,,,0,0,0,0,0,3,3,3,0,0,0,0,,,,,,,,,,,,,0,0,0,0,0,27,27,27,,,,,,,,,,,,,,,,,,,,,,,,,,,,,,,,,,,,,,,,,,,,,,,,,,,,,,,,,,,,,,,,,,,,,,,,,,,,,,,,,,,,,,,,,,,,,,,,,,,,,797.5850364030011,803.2359871640001,,,,,011821,1,2,0,3,0,1,2,0,42,2022_Jan_18_1019,listening_fmri,3.2.4,60.161409451950234,
3,parcelated_audio/42/42_29.ogg,,,,,,,,,0,0,0,0,0,3,3,3,0,0,0,0,,,,,,,,,,,,,0,0,0,0,0,28,28,28,,,,,,,,,,,,,,,,,,,,,,,,,,,,,,,,,,,,,,,,,,,,,,,,,,,,,,,,,,,,,,,,,,,,,,,,,,,,,,,,,,,,,,,,,,,,,,,,,,,,,803.2363362719989,810.1307678169978,,,,,011821,1,2,0,3,0,1,2,0,42,2022_Jan_18_1019,listening_fmri,3.2.4,60.161409451950234,
3,parcelated_audio/42/42_30.ogg,,,,,,,,,0,0,0,0,0,3,3,3,0,0,0,0,,,,,,,,,,,,,0,0,0,0,0,29,29,29,,,,,,,,,,,,,,,,,,,,,,,,,,,,,,,,,,,,,,,,,,,,,,,,,,,,,,,,,,,,,,,,,,,,,,,,,,,,,,,,,,,,,,,,,,,,,,,,,,,,,810.1312096709989,821.0058415710009,,,,,011821,1,2,0,3,0,1,2,0,42,2022_Jan_18_1019,listening_fmri,3.2.4,60.161409451950234,
3,parcelated_audio/42/42_31.ogg,,,,,,,,,0,0,0,0,0,3,3,3,0,0,0,0,,,,,,,,,,,,,0,0,0,0,0,30,30,30,,,,,,,,,,,,,,,,,,,,,,,,,,,,,,,,,,,,,,,,,,,,,,,,,,,,,,,,,,,,,,,,,,,,,,,,,,,,,,,,,,,,,,,,,,,,,,,,,,,,,821.006256454999,827.2017056660006,,,,,011821,1,2,0,3,0,1,2,0,42,2022_Jan_18_1019,listening_fmri,3.2.4,60.161409451950234,
3,parcelated_audio/42/42_32.ogg,,,,,,,,,0,0,0,0,0,3,3,3,0,0,0,0,,,,,,,,,,,,,0,0,0,0,0,31,31,31,,,,,,,,,,,,,,,,,,,,,,,,,,,,,,,,,,,,,,,,,,,,,,,,,,,,,,,,,,,,,,,,,,,,,,,,,,,,,,,,,,,,,,,,,,,,,,,,,,,,,827.2020539439982,835.3620513630012,,,,,011821,1,2,0,3,0,1,2,0,42,2022_Jan_18_1019,listening_fmri,3.2.4,60.161409451950234,
3,parcelated_audio/42/42_33.ogg,,,,,,,,,0,0,0,0,0,3,3,3,0,0,0,0,,,,,,,,,,,,,0,0,0,0,0,32,32,32,,,,,,,,,,,,,,,,,,,,,,,,,,,,,,,,,,,,,,,,,,,,,,,,,,,,,,,,,,,,,,,,,,,,,,,,,,,,,,,,,,,,,,,,,,,,,,,,,,,,,835.3624701740009,842.4159298619998,,,,,011821,1,2,0,3,0,1,2,0,42,2022_Jan_18_1019,listening_fmri,3.2.4,60.161409451950234,
3,parcelated_audio/42/42_34.ogg,,,,,,,,,0,0,0,0,0,3,3,3,0,0,0,0,,,,,,,,,,,,,0,0,0,0,0,33,33,33,,,,,,,,,,,,,,,,,,,,,,,,,,,,,,,,,,,,,,,,,,,,,,,,,,,,,,,,,,,,,,,,,,,,,,,,,,,,,,,,,,,,,,,,,,,,,,,,,,,,,842.4163141489989,853.1218600360007,,,,,011821,1,2,0,3,0,1,2,0,42,2022_Jan_18_1019,listening_fmri,3.2.4,60.161409451950234,
3,parcelated_audio/42/42_35.ogg,,,,,,,,,0,0,0,0,0,3,3,3,0,0,0,0,,,,,,,,,,,,,0,0,0,0,0,34,34,34,,,,,,,,,,,,,,,,,,,,,,,,,,,,,,,,,,,,,,,,,,,,,,,,,,,,,,,,,,,,,,,,,,,,,,,,,,,,,,,,,,,,,,,,,,,,,,,,,,,,,853.1223234749996,862.876859688,,,,,011821,1,2,0,3,0,1,2,0,42,2022_Jan_18_1019,listening_fmri,3.2.4,60.161409451950234,
3,,,,,,,,,,0,0,0,0,0,3,3,3,0,0,0,0,,,,,,,,,,,,,0,0,0,0,,,,,,,,,,,,,,,,,,,,,,,,,,,,,,,,,,,,,,,,,,,,,,,,,,,,,,,,,,,,,,,,,,,,,,,,,,,,,,,,,,,,,,,,,,,,,,,,,,,,,,,,,,,,,,,011821,1,2,0,3,0,1,2,0,42,2022_Jan_18_1019,listening_fmri,3.2.4,60.161409451950234,
,,,,,,,,,,,,,,,,,,,,,,,,,,,,,,,,,,,,,,,,,,,,,,,,,,,,,,,,,,,862.8772827339999,868.885103190998,913.6792953990007,None,,,,,,,,,,,,,,,,,,,,,,,,,,,,,,,,,,,,,,,,,,,,,,,,,,,,,,,,,,,,,,,,,,,,,,,,,,,,,,,,,,919.649958946,None,919.649958946,None,,,,,,,,,,,,,,,
﻿count,audio,trials_14.thisRepN,trials_14.thisTrialN,trials_14.thisN,trials_14.thisIndex,trials_3.thisRepN,trials_3.thisTrialN,trials_3.thisN,trials_3.thisIndex,trials_4.thisRepN,trials_4.thisTrialN,trials_4.thisN,trials_4.thisIndex,trials_6.thisRepN,trials_6.thisTrialN,trials_6.thisN,trials_6.thisIndex,trials_9.thisRepN,trials_9.thisTrialN,trials_9.thisN,trials_9.thisIndex,trials_10.thisRepN,trials_10.thisTrialN,trials_10.thisN,trials_10.thisIndex,trials_11.thisRepN,trials_11.thisTrialN,trials_11.thisN,trials_11.thisIndex,trials_12.thisRepN,trials_12.thisTrialN,trials_12.thisN,trials_12.thisIndex,trials_25.thisRepN,trials_25.thisTrialN,trials_25.thisN,trials_25.thisIndex,trials_15.thisRepN,trials_15.thisTrialN,trials_15.thisN,trials_15.thisIndex,trials_26.thisRepN,trials_26.thisTrialN,trials_26.thisN,trials_26.thisIndex,story_list_block2,action_list_block2,textTrigger.started,textTrigger.stopped,getTrigger.keys,getTrigger.rt,getTrigger.started,getTrigger.stopped,triggerTime,text_76.started,text_76.stopped,text_77.started,text_77.stopped,startWait,endWait,image_23.started,image_23.stopped,text_55.started,text_55.stopped,text_56.started,text_56.stopped,key_resp_2.keys,key_resp_2.rt,key_resp_2.started,key_resp_2.stopped,text_82.started,text_82.stopped,text_57.started,text_57.stopped,key_resp_17.keys,key_resp_17.rt,key_resp_17.started,key_resp_17.stopped,text_83.started,text_83.stopped,text_60.started,text_60.stopped,image_2.started,image_2.stopped,text_58.started,text_58.stopped,key_resp_23.keys,key_resp_23.rt,key_resp_23.started,key_resp_23.stopped,text_62.started,text_62.stopped,key_resp_18.keys,key_resp_18.rt,key_resp_18.started,key_resp_18.stopped,text_84.started,text_84.stopped,question1_2.started,question1_2.stopped,question2_2.started,question2_2.stopped,question3_2.started,question3_2.stopped,question4_2.started,question4_2.stopped,question5_2.started,question5_2.stopped,question6_2.started,question6_2.stopped,image_15.started,image_15.stopped,key_resp.keys,key_resp.started,key_resp.stopped,text_59.started,text_59.stopped,key_resp_19.keys,key_resp_19.rt,key_resp_19.started,key_resp_19.stopped,text_85.started,text_85.stopped,text_61.started,text_61.stopped,image_17.started,image_17.stopped,text_63.started,text_63.stopped,key_resp_24.keys,key_resp_24.rt,key_resp_24.started,key_resp_24.stopped,text_64.started,text_64.stopped,key_resp_20.keys,key_resp_20.rt,key_resp_20.started,key_resp_20.stopped,storyImage_StartTime,storyImage_EndTime,clip_StartTime,clip_EndTime,text_67.started,text_67.stopped,text_68.started,text_68.stopped,participant,sA,sB,lA,lB,block_struct,play_stories,block,behavioral,random_seed,date,expName,psychopyVersion,frameRate,
0,,,,,,,,,,0,0,0,0,0,0,0,0,,,,,,,,,,,,,,,,,,,,,,,,,,,,,[24 44 33 42 22 13 11 31],[3 2 1 4 1 4 2 3],16.590416200000618,None,equal,34.154547815000114,16.590416200000618,None,34.17253596000228,16.590416200000618,None,16.590416200000618,None,0.00031087200113688596,6.009000588997878,50.765283584001736,None,,,,,,,,,,,,,,,,,,,,,,,,,,,,,,,,,,,,,,,,,,,,,,,,,,,,,,,,,,,,,,,,,,,,,,,,,,,,,,,,,,,,,,011821,1,2,0,3,0,1,2,0,42,2022_Jan_18_1019,listening_fmri,3.2.4,60.161409451950234,
1,,,,,,,,,,0,0,0,0,0,1,1,1,0,0,0,0,0,0,0,0,0,0,0,0,,,,,,,,,,,,,,,,,,,,,,,,,,,,,,,,,,56.78093501400144,None,56.78093501400144,None,2,2.0379267540010915,56.78093501400144,None,56.78093501400144,None,58.848303762002615,None,2,1.636653738001769,58.848303762002615,None,58.848303762002615,None,60.52309879000313,None,60.52309879000313,None,60.52309879000313,None,2,2.291753030000109,60.52309879000313,None,62.83150153800307,None,2,2.858434378998936,62.83150153800307,None,62.83150153800307,None,65.78962855300051,None,65.78962855300051,None,65.78962855300051,None,65.78962855300051,None,65.78962855300051,None,65.78962855300051,None,65.78962855300051,None,None,65.78962855300051,None,,,,,,,,,,,,,,,,,,,,,,,,,,,,,,,,,011821,1,2,0,3,0,1,2,0,42,2022_Jan_18_1019,listening_fmri,3.2.4,60.161409451950234,
1,,,,,,,,,,0,0,0,0,0,1,1,1,0,0,0,0,0,0,0,0,,,,,,,,,,,,,,,,,,,,,,,,,,,,,,,,,,,,,,,,,,,,,,,,,,,,,,,,,,,,,,,,,,,,,,,,,,,,,,,,,,,,,,,,,,,86.5313773750022,None,2,1.6954984320000221,86.5313773750022,None,86.5313773750022,None,88.26448801600054,None,88.26448801600054,None,88.26448801600054,None,2,4.438462926998909,88.26448801600054,None,,,,,,,,,,,,,,,011821,1,2,0,3,0,1,2,0,42,2022_Jan_18_1019,listening_fmri,3.2.4,60.161409451950234,
1,parcelated_audio/44/44_1.ogg,,,,,,,,,0,0,0,0,0,1,1,1,0,0,0,0,,,,,,,,,,,,,0,0,0,0,0,0,0,0,,,,,,,,,,,,,,,,,,,,,,,,,,,,,,,,,,,,,,,,,,,,,,,,,,,,,,,,,,,,,,,,,,,,,,,,,,,,,,,,,,,,,,,,,,,,,92.73128806000022,None,2,1.77066365799692,92.73128806000022,None,43.7833221769979,46.78386410099847,46.79249905300094,54.72032430699983,,,,,011821,1,2,0,3,0,1,2,0,42,2022_Jan_18_1019,listening_fmri,3.2.4,60.161409451950234,
1,parcelated_audio/44/44_2.ogg,,,,,,,,,0,0,0,0,0,1,1,1,0,0,0,0,,,,,,,,,,,,,0,0,0,0,0,1,1,1,,,,,,,,,,,,,,,,,,,,,,,,,,,,,,,,,,,,,,,,,,,,,,,,,,,,,,,,,,,,,,,,,,,,,,,,,,,,,,,,,,,,,,,,,,,,,,,,,,,,,54.72069790299793,63.83745354799976,,,,,011821,1,2,0,3,0,1,2,0,42,2022_Jan_18_1019,listening_fmri,3.2.4,60.161409451950234,
1,parcelated_audio/44/44_3.ogg,,,,,,,,,0,0,0,0,0,1,1,1,0,0,0,0,,,,,,,,,,,,,0,0,0,0,0,2,2,2,,,,,,,,,,,,,,,,,,,,,,,,,,,,,,,,,,,,,,,,,,,,,,,,,,,,,,,,,,,,,,,,,,,,,,,,,,,,,,,,,,,,,,,,,,,,,,,,,,,,,63.83781776199976,69.27475825399961,,,,,011821,1,2,0,3,0,1,2,0,42,2022_Jan_18_1019,listening_fmri,3.2.4,60.161409451950234,
1,parcelated_audio/44/44_4.ogg,,,,,,,,,0,0,0,0,0,1,1,1,0,0,0,0,,,,,,,,,,,,,0,0,0,0,0,3,3,3,,,,,,,,,,,,,,,,,,,,,,,,,,,,,,,,,,,,,,,,,,,,,,,,,,,,,,,,,,,,,,,,,,,,,,,,,,,,,,,,,,,,,,,,,,,,,,,,,,,,,69.27511974799927,74.3529482749982,,,,,011821,1,2,0,3,0,1,2,0,42,2022_Jan_18_1019,listening_fmri,3.2.4,60.161409451950234,
1,parcelated_audio/44/44_5.ogg,,,,,,,,,0,0,0,0,0,1,1,1,0,0,0,0,,,,,,,,,,,,,0,0,0,0,0,4,4,4,,,,,,,,,,,,,,,,,,,,,,,,,,,,,,,,,,,,,,,,,,,,,,,,,,,,,,,,,,,,,,,,,,,,,,,,,,,,,,,,,,,,,,,,,,,,,,,,,,,,,74.3533171300005,80.58791254400057,,,,,011821,1,2,0,3,0,1,2,0,42,2022_Jan_18_1019,listening_fmri,3.2.4,60.161409451950234,
1,parcelated_audio/44/44_6.ogg,,,,,,,,,0,0,0,0,0,1,1,1,0,0,0,0,,,,,,,,,,,,,0,0,0,0,0,5,5,5,,,,,,,,,,,,,,,,,,,,,,,,,,,,,,,,,,,,,,,,,,,,,,,,,,,,,,,,,,,,,,,,,,,,,,,,,,,,,,,,,,,,,,,,,,,,,,,,,,,,,80.58824896299848,87.5329429400008,,,,,011821,1,2,0,3,0,1,2,0,42,2022_Jan_18_1019,listening_fmri,3.2.4,60.161409451950234,
1,parcelated_audio/44/44_7.ogg,,,,,,,,,0,0,0,0,0,1,1,1,0,0,0,0,,,,,,,,,,,,,0,0,0,0,0,6,6,6,,,,,,,,,,,,,,,,,,,,,,,,,,,,,,,,,,,,,,,,,,,,,,,,,,,,,,,,,,,,,,,,,,,,,,,,,,,,,,,,,,,,,,,,,,,,,,,,,,,,,87.53377822499897,93.56040974699863,,,,,011821,1,2,0,3,0,1,2,0,42,2022_Jan_18_1019,listening_fmri,3.2.4,60.161409451950234,
1,parcelated_audio/44/44_8.ogg,,,,,,,,,0,0,0,0,0,1,1,1,0,0,0,0,,,,,,,,,,,,,0,0,0,0,0,7,7,7,,,,,,,,,,,,,,,,,,,,,,,,,,,,,,,,,,,,,,,,,,,,,,,,,,,,,,,,,,,,,,,,,,,,,,,,,,,,,,,,,,,,,,,,,,,,,,,,,,,,,93.56078710300062,97.93584528399879,,,,,011821,1,2,0,3,0,1,2,0,42,2022_Jan_18_1019,listening_fmri,3.2.4,60.161409451950234,
1,parcelated_audio/44/44_9.ogg,,,,,,,,,0,0,0,0,0,1,1,1,0,0,0,0,,,,,,,,,,,,,0,0,0,0,0,8,8,8,,,,,,,,,,,,,,,,,,,,,,,,,,,,,,,,,,,,,,,,,,,,,,,,,,,,,,,,,,,,,,,,,,,,,,,,,,,,,,,,,,,,,,,,,,,,,,,,,,,,,97.93625098399934,101.63493186199776,,,,,011821,1,2,0,3,0,1,2,0,42,2022_Jan_18_1019,listening_fmri,3.2.4,60.161409451950234,
1,parcelated_audio/44/44_10.ogg,,,,,,,,,0,0,0,0,0,1,1,1,0,0,0,0,,,,,,,,,,,,,0,0,0,0,0,9,9,9,,,,,,,,,,,,,,,,,,,,,,,,,,,,,,,,,,,,,,,,,,,,,,,,,,,,,,,,,,,,,,,,,,,,,,,,,,,,,,,,,,,,,,,,,,,,,,,,,,,,,101.63528126899837,111.76284741699783,,,,,011821,1,2,0,3,0,1,2,0,42,2022_Jan_18_1019,listening_fmri,3.2.4,60.161409451950234,
1,parcelated_audio/44/44_11.ogg,,,,,,,,,0,0,0,0,0,1,1,1,0,0,0,0,,,,,,,,,,,,,0,0,0,0,0,10,10,10,,,,,,,,,,,,,,,,,,,,,,,,,,,,,,,,,,,,,,,,,,,,,,,,,,,,,,,,,,,,,,,,,,,,,,,,,,,,,,,,,,,,,,,,,,,,,,,,,,,,,111.76319876399793,115.3148801339994,,,,,011821,1,2,0,3,0,1,2,0,42,2022_Jan_18_1019,listening_fmri,3.2.4,60.161409451950234,
1,parcelated_audio/44/44_12.ogg,,,,,,,,,0,0,0,0,0,1,1,1,0,0,0,0,,,,,,,,,,,,,0,0,0,0,0,11,11,11,,,,,,,,,,,,,,,,,,,,,,,,,,,,,,,,,,,,,,,,,,,,,,,,,,,,,,,,,,,,,,,,,,,,,,,,,,,,,,,,,,,,,,,,,,,,,,,,,,,,,115.31539465199967,125.9068654799994,,,,,011821,1,2,0,3,0,1,2,0,42,2022_Jan_18_1019,listening_fmri,3.2.4,60.161409451950234,
1,parcelated_audio/44/44_13.ogg,,,,,,,,,0,0,0,0,0,1,1,1,0,0,0,0,,,,,,,,,,,,,0,0,0,0,0,12,12,12,,,,,,,,,,,,,,,,,,,,,,,,,,,,,,,,,,,,,,,,,,,,,,,,,,,,,,,,,,,,,,,,,,,,,,,,,,,,,,,,,,,,,,,,,,,,,,,,,,,,,125.90721970400045,133.07186966299923,,,,,011821,1,2,0,3,0,1,2,0,42,2022_Jan_18_1019,listening_fmri,3.2.4,60.161409451950234,
1,parcelated_audio/44/44_14.ogg,,,,,,,,,0,0,0,0,0,1,1,1,0,0,0,0,,,,,,,,,,,,,0,0,0,0,0,13,13,13,,,,,,,,,,,,,,,,,,,,,,,,,,,,,,,,,,,,,,,,,,,,,,,,,,,,,,,,,,,,,,,,,,,,,,,,,,,,,,,,,,,,,,,,,,,,,,,,,,,,,133.0722227139995,139.3874660420006,,,,,011821,1,2,0,3,0,1,2,0,42,2022_Jan_18_1019,listening_fmri,3.2.4,60.161409451950234,
1,parcelated_audio/44/44_15.ogg,,,,,,,,,0,0,0,0,0,1,1,1,0,0,0,0,,,,,,,,,,,,,0,0,0,0,0,14,14,14,,,,,,,,,,,,,,,,,,,,,,,,,,,,,,,,,,,,,,,,,,,,,,,,,,,,,,,,,,,,,,,,,,,,,,,,,,,,,,,,,,,,,,,,,,,,,,,,,,,,,139.38792010700126,143.4674363890008,,,,,011821,1,2,0,3,0,1,2,0,42,2022_Jan_18_1019,listening_fmri,3.2.4,60.161409451950234,
1,parcelated_audio/44/44_16.ogg,,,,,,,,,0,0,0,0,0,1,1,1,0,0,0,0,,,,,,,,,,,,,0,0,0,0,0,15,15,15,,,,,,,,,,,,,,,,,,,,,,,,,,,,,,,,,,,,,,,,,,,,,,,,,,,,,,,,,,,,,,,,,,,,,,,,,,,,,,,,,,,,,,,,,,,,,,,,,,,,,143.46775057099876,147.4958363029982,,,,,011821,1,2,0,3,0,1,2,0,42,2022_Jan_18_1019,listening_fmri,3.2.4,60.161409451950234,
1,parcelated_audio/44/44_17.ogg,,,,,,,,,0,0,0,0,0,1,1,1,0,0,0,0,,,,,,,,,,,,,0,0,0,0,0,16,16,16,,,,,,,,,,,,,,,,,,,,,,,,,,,,,,,,,,,,,,,,,,,,,,,,,,,,,,,,,,,,,,,,,,,,,,,,,,,,,,,,,,,,,,,,,,,,,,,,,,,,,147.4961973419995,155.97088860700023,,,,,011821,1,2,0,3,0,1,2,0,42,2022_Jan_18_1019,listening_fmri,3.2.4,60.161409451950234,
1,parcelated_audio/44/44_18.ogg,,,,,,,,,0,0,0,0,0,1,1,1,0,0,0,0,,,,,,,,,,,,,0,0,0,0,0,17,17,17,,,,,,,,,,,,,,,,,,,,,,,,,,,,,,,,,,,,,,,,,,,,,,,,,,,,,,,,,,,,,,,,,,,,,,,,,,,,,,,,,,,,,,,,,,,,,,,,,,,,,155.9712523119997,165.81863425199845,,,,,011821,1,2,0,3,0,1,2,0,42,2022_Jan_18_1019,listening_fmri,3.2.4,60.161409451950234,
1,parcelated_audio/44/44_19.ogg,,,,,,,,,0,0,0,0,0,1,1,1,0,0,0,0,,,,,,,,,,,,,0,0,0,0,0,18,18,18,,,,,,,,,,,,,,,,,,,,,,,,,,,,,,,,,,,,,,,,,,,,,,,,,,,,,,,,,,,,,,,,,,,,,,,,,,,,,,,,,,,,,,,,,,,,,,,,,,,,,165.8195336989993,176.8057109779984,,,,,011821,1,2,0,3,0,1,2,0,42,2022_Jan_18_1019,listening_fmri,3.2.4,60.161409451950234,
1,parcelated_audio/44/44_20.ogg,,,,,,,,,0,0,0,0,0,1,1,1,0,0,0,0,,,,,,,,,,,,,0,0,0,0,0,19,19,19,,,,,,,,,,,,,,,,,,,,,,,,,,,,,,,,,,,,,,,,,,,,,,,,,,,,,,,,,,,,,,,,,,,,,,,,,,,,,,,,,,,,,,,,,,,,,,,,,,,,,176.80606705099854,185.03883416299868,,,,,011821,1,2,0,3,0,1,2,0,42,2022_Jan_18_1019,listening_fmri,3.2.4,60.161409451950234,
1,parcelated_audio/44/44_21.ogg,,,,,,,,,0,0,0,0,0,1,1,1,0,0,0,0,,,,,,,,,,,,,0,0,0,0,0,20,20,20,,,,,,,,,,,,,,,,,,,,,,,,,,,,,,,,,,,,,,,,,,,,,,,,,,,,,,,,,,,,,,,,,,,,,,,,,,,,,,,,,,,,,,,,,,,,,,,,,,,,,185.0391975450002,193.9428884629997,,,,,011821,1,2,0,3,0,1,2,0,42,2022_Jan_18_1019,listening_fmri,3.2.4,60.161409451950234,
1,parcelated_audio/44/44_22.ogg,,,,,,,,,0,0,0,0,0,1,1,1,0,0,0,0,,,,,,,,,,,,,0,0,0,0,0,21,21,21,,,,,,,,,,,,,,,,,,,,,,,,,,,,,,,,,,,,,,,,,,,,,,,,,,,,,,,,,,,,,,,,,,,,,,,,,,,,,,,,,,,,,,,,,,,,,,,,,,,,,193.94323594399975,198.8628189689989,,,,,011821,1,2,0,3,0,1,2,0,42,2022_Jan_18_1019,listening_fmri,3.2.4,60.161409451950234,
1,parcelated_audio/44/44_23.ogg,,,,,,,,,0,0,0,0,0,1,1,1,0,0,0,0,,,,,,,,,,,,,0,0,0,0,0,22,22,22,,,,,,,,,,,,,,,,,,,,,,,,,,,,,,,,,,,,,,,,,,,,,,,,,,,,,,,,,,,,,,,,,,,,,,,,,,,,,,,,,,,,,,,,,,,,,,,,,,,,,198.863183898,205.50643462399967,,,,,011821,1,2,0,3,0,1,2,0,42,2022_Jan_18_1019,listening_fmri,3.2.4,60.161409451950234,
1,parcelated_audio/44/44_24.ogg,,,,,,,,,0,0,0,0,0,1,1,1,0,0,0,0,,,,,,,,,,,,,0,0,0,0,0,23,23,23,,,,,,,,,,,,,,,,,,,,,,,,,,,,,,,,,,,,,,,,,,,,,,,,,,,,,,,,,,,,,,,,,,,,,,,,,,,,,,,,,,,,,,,,,,,,,,,,,,,,,205.506974300999,214.23587752800086,,,,,011821,1,2,0,3,0,1,2,0,42,2022_Jan_18_1019,listening_fmri,3.2.4,60.161409451950234,
1,parcelated_audio/44/44_25.ogg,,,,,,,,,0,0,0,0,0,1,1,1,0,0,0,0,,,,,,,,,,,,,0,0,0,0,0,24,24,24,,,,,,,,,,,,,,,,,,,,,,,,,,,,,,,,,,,,,,,,,,,,,,,,,,,,,,,,,,,,,,,,,,,,,,,,,,,,,,,,,,,,,,,,,,,,,,,,,,,,,214.23623691600005,220.55711216000054,,,,,011821,1,2,0,3,0,1,2,0,42,2022_Jan_18_1019,listening_fmri,3.2.4,60.161409451950234,
1,parcelated_audio/44/44_26.ogg,,,,,,,,,0,0,0,0,0,1,1,1,0,0,0,0,,,,,,,,,,,,,0,0,0,0,0,25,25,25,,,,,,,,,,,,,,,,,,,,,,,,,,,,,,,,,,,,,,,,,,,,,,,,,,,,,,,,,,,,,,,,,,,,,,,,,,,,,,,,,,,,,,,,,,,,,,,,,,,,,220.5579489499978,225.41884039100114,,,,,011821,1,2,0,3,0,1,2,0,42,2022_Jan_18_1019,listening_fmri,3.2.4,60.161409451950234,
1,parcelated_audio/44/44_27.ogg,,,,,,,,,0,0,0,0,0,1,1,1,0,0,0,0,,,,,,,,,,,,,0,0,0,0,0,26,26,26,,,,,,,,,,,,,,,,,,,,,,,,,,,,,,,,,,,,,,,,,,,,,,,,,,,,,,,,,,,,,,,,,,,,,,,,,,,,,,,,,,,,,,,,,,,,,,,,,,,,,225.41929845100094,232.4212338260004,,,,,011821,1,2,0,3,0,1,2,0,42,2022_Jan_18_1019,listening_fmri,3.2.4,60.161409451950234,
1,parcelated_audio/44/44_28.ogg,,,,,,,,,0,0,0,0,0,1,1,1,0,0,0,0,,,,,,,,,,,,,0,0,0,0,0,27,27,27,,,,,,,,,,,,,,,,,,,,,,,,,,,,,,,,,,,,,,,,,,,,,,,,,,,,,,,,,,,,,,,,,,,,,,,,,,,,,,,,,,,,,,,,,,,,,,,,,,,,,232.42202798799917,243.69507048599917,,,,,011821,1,2,0,3,0,1,2,0,42,2022_Jan_18_1019,listening_fmri,3.2.4,60.161409451950234,
1,,,,,,,,,,0,0,0,0,0,1,1,1,0,0,0,0,,,,,,,,,,,,,0,0,0,0,,,,,,,,,,,,,,,,,,,,,,,,,,,,,,,,,,,,,,,,,,,,,,,,,,,,,,,,,,,,,,,,,,,,,,,,,,,,,,,,,,,,,,,,,,,,,,,,,,,,,,,,,,,,,,,011821,1,2,0,3,0,1,2,0,42,2022_Jan_18_1019,listening_fmri,3.2.4,60.161409451950234,
1,,,,,,,,,,0,0,0,0,0,1,1,1,0,0,0,0,,,,,,,,,,,,,,,,,,,,,,,,,,,,,,,,,,,,,,243.6955599799985,249.68353079399822,294.4478128430019,None,,,,,,,,,,,,,,,,,,,,,,,,,,,,,,,,,,,,,,,,,,,,,,,,,,,,,,,,,,,,,,,,,,,,,,,,,,,,,,,,,,300.4487364200031,None,300.4487364200031,None,011821,1,2,0,3,0,1,2,0,42,2022_Jan_18_1019,listening_fmri,3.2.4,60.161409451950234,
1,,,,,,,,,,0,0,0,0,0,1,1,1,,,,,,,,,,,,,,,,,,,,,,,,,,,,,,,,,,,,,,,,,,,,,,,,,,,,,,,,,,,,,,,,,,,,,,,,,,,,,,,,,,,,,,,,,,,,,,,,,,,,,,,,,,,,,,,,,,,,,,,,,,,,,,,,,,,011821,1,2,0,3,0,1,2,0,42,2022_Jan_18_1019,listening_fmri,3.2.4,60.161409451950234,
2,,,,,,,,,,0,0,0,0,0,2,2,2,0,0,0,0,0,0,0,0,0,0,0,0,,,,,,,,,,,,,,,,,,,,,,,,,,,,,,,,,,301.4545877140008,None,301.4545877140008,None,2,2.284275450001587,301.4545877140008,None,301.4545877140008,None,303.7650232420019,None,2,2.1699720450014865,303.7650232420019,None,303.7650232420019,None,305.97098366200225,None,305.97098366200225,None,305.97098366200225,None,2,1.7679937980028626,305.97098366200225,None,307.7656393540019,None,2,1.8963055620006344,307.7656393540019,None,307.7656393540019,None,309.75354913000047,None,309.75354913000047,None,309.75354913000047,None,309.75354913000047,None,309.75354913000047,None,309.75354913000047,None,309.75354913000047,None,None,309.75354913000047,None,,,,,,,,,,,,,,,,,,,,,,,,,,,,,,,,,011821,1,2,0,3,0,1,2,0,42,2022_Jan_18_1019,listening_fmri,3.2.4,60.161409451950234,
2,,,,,,,,,,0,0,0,0,0,2,2,2,0,0,0,0,0,0,0,0,,,,,,,,,,,,,,,,,,,,,,,,,,,,,,,,,,,,,,,,,,,,,,,,,,,,,,,,,,,,,,,,,,,,,,,,,,,,,,,,,,,,,,,,,,,340.6310621900011,None,2,1.460767903001397,340.6310621900011,None,340.6310621900011,None,342.13180621100037,None,342.13180621100037,None,342.13180621100037,None,2,1.1830049300006067,342.13180621100037,None,,,,,,,,,,,,,,,011821,1,2,0,3,0,1,2,0,42,2022_Jan_18_1019,listening_fmri,3.2.4,60.161409451950234,
2,parcelated_audio/33/33_1.ogg,,,,,,,,,0,0,0,0,0,2,2,2,0,0,0,0,,,,,,,,,,,,,0,0,0,0,0,0,0,0,,,,,,,,,,,,,,,,,,,,,,,,,,,,,,,,,,,,,,,,,,,,,,,,,,,,,,,,,,,,,,,,,,,,,,,,,,,,,,,,,,,,,,,,,,,,,343.33783072400183,None,2,6.399145168998075,343.33783072400183,None,299.0406870650004,302.049962041001,302.055469930001,312.03264996099824,,,,,011821,1,2,0,3,0,1,2,0,42,2022_Jan_18_1019,listening_fmri,3.2.4,60.161409451950234,
2,parcelated_audio/33/33_2.ogg,,,,,,,,,0,0,0,0,0,2,2,2,0,0,0,0,,,,,,,,,,,,,0,0,0,0,0,1,1,1,,,,,,,,,,,,,,,,,,,,,,,,,,,,,,,,,,,,,,,,,,,,,,,,,,,,,,,,,,,,,,,,,,,,,,,,,,,,,,,,,,,,,,,,,,,,,,,,,,,,,312.0330434489988,322.47591158900104,,,,,011821,1,2,0,3,0,1,2,0,42,2022_Jan_18_1019,listening_fmri,3.2.4,60.161409451950234,
2,parcelated_audio/33/33_3.ogg,,,,,,,,,0,0,0,0,0,2,2,2,0,0,0,0,,,,,,,,,,,,,0,0,0,0,0,2,2,2,,,,,,,,,,,,,,,,,,,,,,,,,,,,,,,,,,,,,,,,,,,,,,,,,,,,,,,,,,,,,,,,,,,,,,,,,,,,,,,,,,,,,,,,,,,,,,,,,,,,,322.47633915299957,329.0137667279996,,,,,011821,1,2,0,3,0,1,2,0,42,2022_Jan_18_1019,listening_fmri,3.2.4,60.161409451950234,
2,parcelated_audio/33/33_4.ogg,,,,,,,,,0,0,0,0,0,2,2,2,0,0,0,0,,,,,,,,,,,,,0,0,0,0,0,3,3,3,,,,,,,,,,,,,,,,,,,,,,,,,,,,,,,,,,,,,,,,,,,,,,,,,,,,,,,,,,,,,,,,,,,,,,,,,,,,,,,,,,,,,,,,,,,,,,,,,,,,,329.01411341199855,332.5998933359988,,,,,011821,1,2,0,3,0,1,2,0,42,2022_Jan_18_1019,listening_fmri,3.2.4,60.161409451950234,
2,parcelated_audio/33/33_5.ogg,,,,,,,,,0,0,0,0,0,2,2,2,0,0,0,0,,,,,,,,,,,,,0,0,0,0,0,4,4,4,,,,,,,,,,,,,,,,,,,,,,,,,,,,,,,,,,,,,,,,,,,,,,,,,,,,,,,,,,,,,,,,,,,,,,,,,,,,,,,,,,,,,,,,,,,,,,,,,,,,,332.6008408079979,343.8449513710002,,,,,011821,1,2,0,3,0,1,2,0,42,2022_Jan_18_1019,listening_fmri,3.2.4,60.161409451950234,
2,parcelated_audio/33/33_6.ogg,,,,,,,,,0,0,0,0,0,2,2,2,0,0,0,0,,,,,,,,,,,,,0,0,0,0,0,5,5,5,,,,,,,,,,,,,,,,,,,,,,,,,,,,,,,,,,,,,,,,,,,,,,,,,,,,,,,,,,,,,,,,,,,,,,,,,,,,,,,,,,,,,,,,,,,,,,,,,,,,,343.8453006290001,355.5408349249992,,,,,011821,1,2,0,3,0,1,2,0,42,2022_Jan_18_1019,listening_fmri,3.2.4,60.161409451950234,
2,parcelated_audio/33/33_7.ogg,,,,,,,,,0,0,0,0,0,2,2,2,0,0,0,0,,,,,,,,,,,,,0,0,0,0,0,6,6,6,,,,,,,,,,,,,,,,,,,,,,,,,,,,,,,,,,,,,,,,,,,,,,,,,,,,,,,,,,,,,,,,,,,,,,,,,,,,,,,,,,,,,,,,,,,,,,,,,,,,,355.54124927999874,370.09284098699936,,,,,011821,1,2,0,3,0,1,2,0,42,2022_Jan_18_1019,listening_fmri,3.2.4,60.161409451950234,
2,parcelated_audio/33/33_8.ogg,,,,,,,,,0,0,0,0,0,2,2,2,0,0,0,0,,,,,,,,,,,,,0,0,0,0,0,7,7,7,,,,,,,,,,,,,,,,,,,,,,,,,,,,,,,,,,,,,,,,,,,,,,,,,,,,,,,,,,,,,,,,,,,,,,,,,,,,,,,,,,,,,,,,,,,,,,,,,,,,,370.09319255800074,376.23230458000035,,,,,011821,1,2,0,3,0,1,2,0,42,2022_Jan_18_1019,listening_fmri,3.2.4,60.161409451950234,
2,parcelated_audio/33/33_9.ogg,,,,,,,,,0,0,0,0,0,2,2,2,0,0,0,0,,,,,,,,,,,,,0,0,0,0,0,8,8,8,,,,,,,,,,,,,,,,,,,,,,,,,,,,,,,,,,,,,,,,,,,,,,,,,,,,,,,,,,,,,,,,,,,,,,,,,,,,,,,,,,,,,,,,,,,,,,,,,,,,,376.23265300799903,379.9307427909989,,,,,011821,1,2,0,3,0,1,2,0,42,2022_Jan_18_1019,listening_fmri,3.2.4,60.161409451950234,
2,parcelated_audio/33/33_10.ogg,,,,,,,,,0,0,0,0,0,2,2,2,0,0,0,0,,,,,,,,,,,,,0,0,0,0,0,9,9,9,,,,,,,,,,,,,,,,,,,,,,,,,,,,,,,,,,,,,,,,,,,,,,,,,,,,,,,,,,,,,,,,,,,,,,,,,,,,,,,,,,,,,,,,,,,,,,,,,,,,,379.9311949539988,385.290775483998,,,,,011821,1,2,0,3,0,1,2,0,42,2022_Jan_18_1019,listening_fmri,3.2.4,60.161409451950234,
2,parcelated_audio/33/33_11.ogg,,,,,,,,,0,0,0,0,0,2,2,2,0,0,0,0,,,,,,,,,,,,,0,0,0,0,0,10,10,10,,,,,,,,,,,,,,,,,,,,,,,,,,,,,,,,,,,,,,,,,,,,,,,,,,,,,,,,,,,,,,,,,,,,,,,,,,,,,,,,,,,,,,,,,,,,,,,,,,,,,385.29112643400003,399.7034865370006,,,,,011821,1,2,0,3,0,1,2,0,42,2022_Jan_18_1019,listening_fmri,3.2.4,60.161409451950234,
2,parcelated_audio/33/33_12.ogg,,,,,,,,,0,0,0,0,0,2,2,2,0,0,0,0,,,,,,,,,,,,,0,0,0,0,0,11,11,11,,,,,,,,,,,,,,,,,,,,,,,,,,,,,,,,,,,,,,,,,,,,,,,,,,,,,,,,,,,,,,,,,,,,,,,,,,,,,,,,,,,,,,,,,,,,,,,,,,,,,399.7042833939995,405.8018223079998,,,,,011821,1,2,0,3,0,1,2,0,42,2022_Jan_18_1019,listening_fmri,3.2.4,60.161409451950234,
2,parcelated_audio/33/33_13.ogg,,,,,,,,,0,0,0,0,0,2,2,2,0,0,0,0,,,,,,,,,,,,,0,0,0,0,0,12,12,12,,,,,,,,,,,,,,,,,,,,,,,,,,,,,,,,,,,,,,,,,,,,,,,,,,,,,,,,,,,,,,,,,,,,,,,,,,,,,,,,,,,,,,,,,,,,,,,,,,,,,405.802190866998,413.1997053289997,,,,,011821,1,2,0,3,0,1,2,0,42,2022_Jan_18_1019,listening_fmri,3.2.4,60.161409451950234,
2,parcelated_audio/33/33_14.ogg,,,,,,,,,0,0,0,0,0,2,2,2,0,0,0,0,,,,,,,,,,,,,0,0,0,0,0,13,13,13,,,,,,,,,,,,,,,,,,,,,,,,,,,,,,,,,,,,,,,,,,,,,,,,,,,,,,,,,,,,,,,,,,,,,,,,,,,,,,,,,,,,,,,,,,,,,,,,,,,,,413.2007932279994,425.6336853370012,,,,,011821,1,2,0,3,0,1,2,0,42,2022_Jan_18_1019,listening_fmri,3.2.4,60.161409451950234,
2,parcelated_audio/33/33_15.ogg,,,,,,,,,0,0,0,0,0,2,2,2,0,0,0,0,,,,,,,,,,,,,0,0,0,0,0,14,14,14,,,,,,,,,,,,,,,,,,,,,,,,,,,,,,,,,,,,,,,,,,,,,,,,,,,,,,,,,,,,,,,,,,,,,,,,,,,,,,,,,,,,,,,,,,,,,,,,,,,,,425.63452241199775,444.17370614299944,,,,,011821,1,2,0,3,0,1,2,0,42,2022_Jan_18_1019,listening_fmri,3.2.4,60.161409451950234,
2,parcelated_audio/33/33_16.ogg,,,,,,,,,0,0,0,0,0,2,2,2,0,0,0,0,,,,,,,,,,,,,0,0,0,0,0,15,15,15,,,,,,,,,,,,,,,,,,,,,,,,,,,,,,,,,,,,,,,,,,,,,,,,,,,,,,,,,,,,,,,,,,,,,,,,,,,,,,,,,,,,,,,,,,,,,,,,,,,,,444.1740664370009,456.3978871699983,,,,,011821,1,2,0,3,0,1,2,0,42,2022_Jan_18_1019,listening_fmri,3.2.4,60.161409451950234,
2,parcelated_audio/33/33_17.ogg,,,,,,,,,0,0,0,0,0,2,2,2,0,0,0,0,,,,,,,,,,,,,0,0,0,0,0,16,16,16,,,,,,,,,,,,,,,,,,,,,,,,,,,,,,,,,,,,,,,,,,,,,,,,,,,,,,,,,,,,,,,,,,,,,,,,,,,,,,,,,,,,,,,,,,,,,,,,,,,,,456.39825473399833,467.60578808599894,,,,,011821,1,2,0,3,0,1,2,0,42,2022_Jan_18_1019,listening_fmri,3.2.4,60.161409451950234,
2,parcelated_audio/33/33_18.ogg,,,,,,,,,0,0,0,0,0,2,2,2,0,0,0,0,,,,,,,,,,,,,0,0,0,0,0,17,17,17,,,,,,,,,,,,,,,,,,,,,,,,,,,,,,,,,,,,,,,,,,,,,,,,,,,,,,,,,,,,,,,,,,,,,,,,,,,,,,,,,,,,,,,,,,,,,,,,,,,,,467.60614128199813,476.06485845000134,,,,,011821,1,2,0,3,0,1,2,0,42,2022_Jan_18_1019,listening_fmri,3.2.4,60.161409451950234,
