count,audio,trials_14.thisRepN,trials_14.thisTrialN,trials_14.thisN,trials_14.thisIndex,trials_3.thisRepN,trials_3.thisTrialN,trials_3.thisN,trials_3.thisIndex,trials_4.thisRepN,trials_4.thisTrialN,trials_4.thisN,trials_4.thisIndex,trials_6.thisRepN,trials_6.thisTrialN,trials_6.thisN,trials_6.thisIndex,trials_9.thisRepN,trials_9.thisTrialN,trials_9.thisN,trials_9.thisIndex,trials_10.thisRepN,trials_10.thisTrialN,trials_10.thisN,trials_10.thisIndex,trials_12.thisRepN,trials_12.thisTrialN,trials_12.thisN,trials_12.thisIndex,trials_25.thisRepN,trials_25.thisTrialN,trials_25.thisN,trials_25.thisIndex,trials_15.thisRepN,trials_15.thisTrialN,trials_15.thisN,trials_15.thisIndex,trials_26.thisRepN,trials_26.thisTrialN,trials_26.thisN,trials_26.thisIndex,story_list_block2,action_list_block2,textTrigger.started,textTrigger.stopped,getTrigger.keys,getTrigger.rt,getTrigger.started,getTrigger.stopped,triggerTime,text_76.started,text_76.stopped,text_77.started,text_77.stopped,startWait,endWait,image_23.started,image_23.stopped,text_55.started,text_55.stopped,text_56.started,text_56.stopped,key_resp_2.keys,key_resp_2.rt,key_resp_2.started,key_resp_2.stopped,text_82.started,text_82.stopped,text_64.started,text_64.stopped,key_resp_20.keys,key_resp_20.rt,key_resp_20.started,key_resp_20.stopped,storyImage_StartTime,storyImage_EndTime,clip_StartTime,clip_EndTime,text_67.started,text_67.stopped,text_68.started,text_68.stopped,participant,sA,sB,lA,lB,block_struct,play_stories,block,behavioral,random_seed,date,expName,psychopyVersion,frameRate,
0,,,,,,,,,,0,0,0,0,0,0,0,0,,,,,,,,,,,,,,,,,,,,,,,,,[33 24 23 34 13 43 14 44],[3 4 2 1 3 2 1 4],14.521844988999874,None,equal,27.601107686000432,14.521844988999874,None,27.628034467999896,14.521844988999874,None,14.521844988999874,None,0.00033590699968044646,5.9990375689994835,42.15166262399998,None,,,,,,,,,,,,,,,,,,,,,,,,,021822,0,2,0,2,3,1,2,0,16,2022_Feb_18_1136,listening_fmri,3.2.4,59.8930702662268,
1,parcelated_audio/24/24_1.ogg,,,,,,,,,0,0,0,0,0,1,1,1,0,0,0,0,,,,,,,,,0,0,0,0,0,0,0,0,,,,,,,,,,,,,,,,,,,,,,48.15404320499965,None,48.15404320499965,None,1,1.2968632050005908,48.15404320499965,None,48.15404320499965,None,49.471153667999715,None,1,1.052854959000797,49.471153667999715,None,8.40815688299972,11.415763912999864,11.422508143999949,21.85653836399979,,,,,021822,0,2,0,2,3,1,2,0,16,2022_Feb_18_1136,listening_fmri,3.2.4,59.8930702662268,
1,parcelated_audio/24/24_2.ogg,,,,,,,,,0,0,0,0,0,1,1,1,0,0,0,0,,,,,,,,,0,0,0,0,0,1,1,1,,,,,,,,,,,,,,,,,,,,,,,,,,,,,,,,,,,,,,,,21.857050268999956,28.181725299999925,,,,,021822,0,2,0,2,3,1,2,0,16,2022_Feb_18_1136,listening_fmri,3.2.4,59.8930702662268,
1,parcelated_audio/24/24_3.ogg,,,,,,,,,0,0,0,0,0,1,1,1,0,0,0,0,,,,,,,,,0,0,0,0,0,2,2,2,,,,,,,,,,,,,,,,,,,,,,,,,,,,,,,,,,,,,,,,28.182281151999632,39.77501546299936,,,,,021822,0,2,0,2,3,1,2,0,16,2022_Feb_18_1136,listening_fmri,3.2.4,59.8930702662268,
1,parcelated_audio/24/24_4.ogg,,,,,,,,,0,0,0,0,0,1,1,1,0,0,0,0,,,,,,,,,0,0,0,0,0,3,3,3,,,,,,,,,,,,,,,,,,,,,,,,,,,,,,,,,,,,,,,,39.77537702999962,46.678944668999975,,,,,021822,0,2,0,2,3,1,2,0,16,2022_Feb_18_1136,listening_fmri,3.2.4,59.8930702662268,
1,parcelated_audio/24/24_5.ogg,,,,,,,,,0,0,0,0,0,1,1,1,0,0,0,0,,,,,,,,,0,0,0,0,0,4,4,4,,,,,,,,,,,,,,,,,,,,,,,,,,,,,,,,,,,,,,,,46.679300558999785,51.64988341099979,,,,,021822,0,2,0,2,3,1,2,0,16,2022_Feb_18_1136,listening_fmri,3.2.4,59.8930702662268,
1,parcelated_audio/24/24_6.ogg,,,,,,,,,0,0,0,0,0,1,1,1,0,0,0,0,,,,,,,,,0,0,0,0,0,5,5,5,,,,,,,,,,,,,,,,,,,,,,,,,,,,,,,,,,,,,,,,51.650412234000214,59.1044309859999,,,,,021822,0,2,0,2,3,1,2,0,16,2022_Feb_18_1136,listening_fmri,3.2.4,59.8930702662268,
1,parcelated_audio/24/24_7.ogg,,,,,,,,,0,0,0,0,0,1,1,1,0,0,0,0,,,,,,,,,0,0,0,0,0,6,6,6,,,,,,,,,,,,,,,,,,,,,,,,,,,,,,,,,,,,,,,,59.10482188599963,63.4854932369999,,,,,021822,0,2,0,2,3,1,2,0,16,2022_Feb_18_1136,listening_fmri,3.2.4,59.8930702662268,
1,parcelated_audio/24/24_8.ogg,,,,,,,,,0,0,0,0,0,1,1,1,0,0,0,0,,,,,,,,,0,0,0,0,0,7,7,7,,,,,,,,,,,,,,,,,,,,,,,,,,,,,,,,,,,,,,,,63.48589997699946,69.5611317339999,,,,,021822,0,2,0,2,3,1,2,0,16,2022_Feb_18_1136,listening_fmri,3.2.4,59.8930702662268,
1,parcelated_audio/24/24_9.ogg,,,,,,,,,0,0,0,0,0,1,1,1,0,0,0,0,,,,,,,,,0,0,0,0,0,8,8,8,,,,,,,,,,,,,,,,,,,,,,,,,,,,,,,,,,,,,,,,69.56157545699989,73.88769017999948,,,,,021822,0,2,0,2,3,1,2,0,16,2022_Feb_18_1136,listening_fmri,3.2.4,59.8930702662268,
1,parcelated_audio/24/24_10.ogg,,,,,,,,,0,0,0,0,0,1,1,1,0,0,0,0,,,,,,,,,0,0,0,0,0,9,9,9,,,,,,,,,,,,,,,,,,,,,,,,,,,,,,,,,,,,,,,,73.88794903799953,77.62109997599964,,,,,021822,0,2,0,2,3,1,2,0,16,2022_Feb_18_1136,listening_fmri,3.2.4,59.8930702662268,
1,parcelated_audio/24/24_11.ogg,,,,,,,,,0,0,0,0,0,1,1,1,0,0,0,0,,,,,,,,,0,0,0,0,0,10,10,10,,,,,,,,,,,,,,,,,,,,,,,,,,,,,,,,,,,,,,,,77.62167318199954,87.73883416999979,,,,,021822,0,2,0,2,3,1,2,0,16,2022_Feb_18_1136,listening_fmri,3.2.4,59.8930702662268,
1,parcelated_audio/24/24_12.ogg,,,,,,,,,0,0,0,0,0,1,1,1,0,0,0,0,,,,,,,,,0,0,0,0,0,11,11,11,,,,,,,,,,,,,,,,,,,,,,,,,,,,,,,,,,,,,,,,87.73918904199945,96.82155163799962,,,,,021822,0,2,0,2,3,1,2,0,16,2022_Feb_18_1136,listening_fmri,3.2.4,59.8930702662268,
1,parcelated_audio/24/24_13.ogg,,,,,,,,,0,0,0,0,0,1,1,1,0,0,0,0,,,,,,,,,0,0,0,0,0,12,12,12,,,,,,,,,,,,,,,,,,,,,,,,,,,,,,,,,,,,,,,,96.82185803199991,100.79760741999962,,,,,021822,0,2,0,2,3,1,2,0,16,2022_Feb_18_1136,listening_fmri,3.2.4,59.8930702662268,
1,parcelated_audio/24/24_14.ogg,,,,,,,,,0,0,0,0,0,1,1,1,0,0,0,0,,,,,,,,,0,0,0,0,0,13,13,13,,,,,,,,,,,,,,,,,,,,,,,,,,,,,,,,,,,,,,,,100.7981778659996,108.18485292100013,,,,,021822,0,2,0,2,3,1,2,0,16,2022_Feb_18_1136,listening_fmri,3.2.4,59.8930702662268,
1,parcelated_audio/24/24_15.ogg,,,,,,,,,0,0,0,0,0,1,1,1,0,0,0,0,,,,,,,,,0,0,0,0,0,14,14,14,,,,,,,,,,,,,,,,,,,,,,,,,,,,,,,,,,,,,,,,108.18530028799978,114.7148958050002,,,,,021822,0,2,0,2,3,1,2,0,16,2022_Feb_18_1136,listening_fmri,3.2.4,59.8930702662268,
1,parcelated_audio/24/24_16.ogg,,,,,,,,,0,0,0,0,0,1,1,1,0,0,0,0,,,,,,,,,0,0,0,0,0,15,15,15,,,,,,,,,,,,,,,,,,,,,,,,,,,,,,,,,,,,,,,,114.7154437299996,121.89898066899968,,,,,021822,0,2,0,2,3,1,2,0,16,2022_Feb_18_1136,listening_fmri,3.2.4,59.8930702662268,
1,parcelated_audio/24/24_17.ogg,,,,,,,,,0,0,0,0,0,1,1,1,0,0,0,0,,,,,,,,,0,0,0,0,0,16,16,16,,,,,,,,,,,,,,,,,,,,,,,,,,,,,,,,,,,,,,,,121.89933893699981,127.8936889229999,,,,,021822,0,2,0,2,3,1,2,0,16,2022_Feb_18_1136,listening_fmri,3.2.4,59.8930702662268,
1,parcelated_audio/24/24_18.ogg,,,,,,,,,0,0,0,0,0,1,1,1,0,0,0,0,,,,,,,,,0,0,0,0,0,17,17,17,,,,,,,,,,,,,,,,,,,,,,,,,,,,,,,,,,,,,,,,127.89405219499986,136.34160893699936,,,,,021822,0,2,0,2,3,1,2,0,16,2022_Feb_18_1136,listening_fmri,3.2.4,59.8930702662268,
1,parcelated_audio/24/24_19.ogg,,,,,,,,,0,0,0,0,0,1,1,1,0,0,0,0,,,,,,,,,0,0,0,0,0,18,18,18,,,,,,,,,,,,,,,,,,,,,,,,,,,,,,,,,,,,,,,,136.34302485399985,145.96983212399937,,,,,021822,0,2,0,2,3,1,2,0,16,2022_Feb_18_1136,listening_fmri,3.2.4,59.8930702662268,
1,parcelated_audio/24/24_20.ogg,,,,,,,,,0,0,0,0,0,1,1,1,0,0,0,0,,,,,,,,,0,0,0,0,0,19,19,19,,,,,,,,,,,,,,,,,,,,,,,,,,,,,,,,,,,,,,,,145.97036815399952,150.46682748999956,,,,,021822,0,2,0,2,3,1,2,0,16,2022_Feb_18_1136,listening_fmri,3.2.4,59.8930702662268,
1,parcelated_audio/24/24_21.ogg,,,,,,,,,0,0,0,0,0,1,1,1,0,0,0,0,,,,,,,,,0,0,0,0,0,20,20,20,,,,,,,,,,,,,,,,,,,,,,,,,,,,,,,,,,,,,,,,150.4671775830002,158.4862181239996,,,,,021822,0,2,0,2,3,1,2,0,16,2022_Feb_18_1136,listening_fmri,3.2.4,59.8930702662268,
1,parcelated_audio/24/24_22.ogg,,,,,,,,,0,0,0,0,0,1,1,1,0,0,0,0,,,,,,,,,0,0,0,0,0,21,21,21,,,,,,,,,,,,,,,,,,,,,,,,,,,,,,,,,,,,,,,,158.48649073700017,169.07100732900017,,,,,021822,0,2,0,2,3,1,2,0,16,2022_Feb_18_1136,listening_fmri,3.2.4,59.8930702662268,
1,parcelated_audio/24/24_23.ogg,,,,,,,,,0,0,0,0,0,1,1,1,0,0,0,0,,,,,,,,,0,0,0,0,0,22,22,22,,,,,,,,,,,,,,,,,,,,,,,,,,,,,,,,,,,,,,,,169.07135503100017,179.27231050799946,,,,,021822,0,2,0,2,3,1,2,0,16,2022_Feb_18_1136,listening_fmri,3.2.4,59.8930702662268,
1,parcelated_audio/24/24_24.ogg,,,,,,,,,0,0,0,0,0,1,1,1,0,0,0,0,,,,,,,,,0,0,0,0,0,23,23,23,,,,,,,,,,,,,,,,,,,,,,,,,,,,,,,,,,,,,,,,179.2733372169996,185.858029901,,,,,021822,0,2,0,2,3,1,2,0,16,2022_Feb_18_1136,listening_fmri,3.2.4,59.8930702662268,
1,parcelated_audio/24/24_25.ogg,,,,,,,,,0,0,0,0,0,1,1,1,0,0,0,0,,,,,,,,,0,0,0,0,0,24,24,24,,,,,,,,,,,,,,,,,,,,,,,,,,,,,,,,,,,,,,,,185.85859930100014,194.59101197400014,,,,,021822,0,2,0,2,3,1,2,0,16,2022_Feb_18_1136,listening_fmri,3.2.4,59.8930702662268,
1,parcelated_audio/24/24_26.ogg,,,,,,,,,0,0,0,0,0,1,1,1,0,0,0,0,,,,,,,,,0,0,0,0,0,25,25,25,,,,,,,,,,,,,,,,,,,,,,,,,,,,,,,,,,,,,,,,194.59158304599987,201.16108548600005,,,,,021822,0,2,0,2,3,1,2,0,16,2022_Feb_18_1136,listening_fmri,3.2.4,59.8930702662268,
1,parcelated_audio/24/24_27.ogg,,,,,,,,,0,0,0,0,0,1,1,1,0,0,0,0,,,,,,,,,0,0,0,0,0,26,26,26,,,,,,,,,,,,,,,,,,,,,,,,,,,,,,,,,,,,,,,,201.16165453399935,207.33025240299958,,,,,021822,0,2,0,2,3,1,2,0,16,2022_Feb_18_1136,listening_fmri,3.2.4,59.8930702662268,
1,parcelated_audio/24/24_28.ogg,,,,,,,,,0,0,0,0,0,1,1,1,0,0,0,0,,,,,,,,,0,0,0,0,0,27,27,27,,,,,,,,,,,,,,,,,,,,,,,,,,,,,,,,,,,,,,,,207.3305961219994,211.82002595299946,,,,,021822,0,2,0,2,3,1,2,0,16,2022_Feb_18_1136,listening_fmri,3.2.4,59.8930702662268,
1,parcelated_audio/24/24_29.ogg,,,,,,,,,0,0,0,0,0,1,1,1,0,0,0,0,,,,,,,,,0,0,0,0,0,28,28,28,,,,,,,,,,,,,,,,,,,,,,,,,,,,,,,,,,,,,,,,211.82138245399983,218.20574895800019,,,,,021822,0,2,0,2,3,1,2,0,16,2022_Feb_18_1136,listening_fmri,3.2.4,59.8930702662268,
1,parcelated_audio/24/24_30.ogg,,,,,,,,,0,0,0,0,0,1,1,1,0,0,0,0,,,,,,,,,0,0,0,0,0,29,29,29,,,,,,,,,,,,,,,,,,,,,,,,,,,,,,,,,,,,,,,,218.2060907089999,224.46686464199956,,,,,021822,0,2,0,2,3,1,2,0,16,2022_Feb_18_1136,listening_fmri,3.2.4,59.8930702662268,
1,parcelated_audio/24/24_31.ogg,,,,,,,,,0,0,0,0,0,1,1,1,0,0,0,0,,,,,,,,,0,0,0,0,0,30,30,30,,,,,,,,,,,,,,,,,,,,,,,,,,,,,,,,,,,,,,,,224.46721790499942,231.13605822699992,,,,,021822,0,2,0,2,3,1,2,0,16,2022_Feb_18_1136,listening_fmri,3.2.4,59.8930702662268,
1,parcelated_audio/24/24_32.ogg,,,,,,,,,0,0,0,0,0,1,1,1,0,0,0,0,,,,,,,,,0,0,0,0,0,31,31,31,,,,,,,,,,,,,,,,,,,,,,,,,,,,,,,,,,,,,,,,231.1366451619997,241.92098695999994,,,,,021822,0,2,0,2,3,1,2,0,16,2022_Feb_18_1136,listening_fmri,3.2.4,59.8930702662268,
1,,,,,,,,,,0,0,0,0,0,1,1,1,0,0,0,0,,,,,,,,,0,0,0,0,,,,,,,,,,,,,,,,,,,,,,,,,,,,,,,,,,,,,,,,,,,,,,,,,,021822,0,2,0,2,3,1,2,0,16,2022_Feb_18_1136,listening_fmri,3.2.4,59.8930702662268,
,,,,,,,,,,,,,,,,,,,,,,,,,,,,,,,,,,,,,,,,,,,,,,,,,,,,,,,241.9214784119995,247.91692881299969,284.0680083339994,None,,,,,,,,,,,,,,,,,,,,,290.06845267300014,None,290.06845267300014,None,,,,,,,,,,,,,,,
﻿count,audio,trials_14.thisRepN,trials_14.thisTrialN,trials_14.thisN,trials_14.thisIndex,trials_3.thisRepN,trials_3.thisTrialN,trials_3.thisN,trials_3.thisIndex,trials_4.thisRepN,trials_4.thisTrialN,trials_4.thisN,trials_4.thisIndex,trials_6.thisRepN,trials_6.thisTrialN,trials_6.thisN,trials_6.thisIndex,trials_9.thisRepN,trials_9.thisTrialN,trials_9.thisN,trials_9.thisIndex,trials_10.thisRepN,trials_10.thisTrialN,trials_10.thisN,trials_10.thisIndex,trials_12.thisRepN,trials_12.thisTrialN,trials_12.thisN,trials_12.thisIndex,trials_25.thisRepN,trials_25.thisTrialN,trials_25.thisN,trials_25.thisIndex,trials_15.thisRepN,trials_15.thisTrialN,trials_15.thisN,trials_15.thisIndex,trials_26.thisRepN,trials_26.thisTrialN,trials_26.thisN,trials_26.thisIndex,trials_11.thisRepN,trials_11.thisTrialN,trials_11.thisN,trials_11.thisIndex,story_list_block2,action_list_block2,textTrigger.started,textTrigger.stopped,getTrigger.keys,getTrigger.rt,getTrigger.started,getTrigger.stopped,triggerTime,text_76.started,text_76.stopped,text_77.started,text_77.stopped,startWait,endWait,image_23.started,image_23.stopped,text_55.started,text_55.stopped,text_56.started,text_56.stopped,key_resp_2.keys,key_resp_2.rt,key_resp_2.started,key_resp_2.stopped,text_82.started,text_82.stopped,text_64.started,text_64.stopped,key_resp_20.keys,key_resp_20.rt,key_resp_20.started,key_resp_20.stopped,storyImage_StartTime,storyImage_EndTime,clip_StartTime,clip_EndTime,text_67.started,text_67.stopped,text_68.started,text_68.stopped,text_57.started,text_57.stopped,key_resp_17.keys,key_resp_17.rt,key_resp_17.started,key_resp_17.stopped,text_83.started,text_83.stopped,text_60.started,text_60.stopped,image_2.started,image_2.stopped,text_58.started,text_58.stopped,key_resp_23.keys,key_resp_23.rt,key_resp_23.started,key_resp_23.stopped,text_62.started,text_62.stopped,key_resp_18.keys,key_resp_18.rt,key_resp_18.started,key_resp_18.stopped,text_84.started,text_84.stopped,question1_2.started,question1_2.stopped,question2_2.started,question2_2.stopped,question3_2.started,question3_2.stopped,question4_2.started,question4_2.stopped,question5_2.started,question5_2.stopped,question6_2.started,question6_2.stopped,image_15.started,image_15.stopped,key_resp.keys,key_resp.started,key_resp.stopped,text_59.started,text_59.stopped,key_resp_19.keys,key_resp_19.rt,key_resp_19.started,key_resp_19.stopped,text_85.started,text_85.stopped,text_61.started,text_61.stopped,image_17.started,image_17.stopped,text_63.started,text_63.stopped,key_resp_24.keys,key_resp_24.rt,key_resp_24.started,key_resp_24.stopped,participant,sA,sB,lA,lB,block_struct,play_stories,block,behavioral,random_seed,date,expName,psychopyVersion,frameRate,
0,,,,,,,,,,0,0,0,0,0,0,0,0,,,,,,,,,,,,,,,,,,,,,,,,,,,,,[33 24 23 34 13 43 14 44],[3 4 2 1 3 2 1 4],14.521844988999874,None,equal,27.601107686000432,14.521844988999874,None,27.628034467999896,14.521844988999874,None,14.521844988999874,None,0.00033590699968044646,5.9990375689994835,42.15166262399998,None,,,,,,,,,,,,,,,,,,,,,,,,,,,,,,,,,,,,,,,,,,,,,,,,,,,,,,,,,,,,,,,,,,,,,,,,,,,,,,,,,,,,,,021822,0,2,0,2,3,1,2,0,16,2022_Feb_18_1136,listening_fmri,3.2.4,59.8930702662268,
1,parcelated_audio/24/24_1.ogg,,,,,,,,,0,0,0,0,0,1,1,1,0,0,0,0,,,,,,,,,0,0,0,0,0,0,0,0,,,,,,,,,,,,,,,,,,,,,,,,,,48.15404320499965,None,48.15404320499965,None,1,1.2968632050005908,48.15404320499965,None,48.15404320499965,None,49.471153667999715,None,1,1.052854959000797,49.471153667999715,None,8.40815688299972,11.415763912999864,11.422508143999949,21.85653836399979,,,,,,,,,,,,,,,,,,,,,,,,,,,,,,,,,,,,,,,,,,,,,,,,,,,,,,,,,,,,,,,,,,021822,0,2,0,2,3,1,2,0,16,2022_Feb_18_1136,listening_fmri,3.2.4,59.8930702662268,
1,parcelated_audio/24/24_2.ogg,,,,,,,,,0,0,0,0,0,1,1,1,0,0,0,0,,,,,,,,,0,0,0,0,0,1,1,1,,,,,,,,,,,,,,,,,,,,,,,,,,,,,,,,,,,,,,,,,,,,21.857050268999956,28.181725299999925,,,,,,,,,,,,,,,,,,,,,,,,,,,,,,,,,,,,,,,,,,,,,,,,,,,,,,,,,,,,,,,,,,021822,0,2,0,2,3,1,2,0,16,2022_Feb_18_1136,listening_fmri,3.2.4,59.8930702662268,
1,parcelated_audio/24/24_3.ogg,,,,,,,,,0,0,0,0,0,1,1,1,0,0,0,0,,,,,,,,,0,0,0,0,0,2,2,2,,,,,,,,,,,,,,,,,,,,,,,,,,,,,,,,,,,,,,,,,,,,28.182281151999632,39.77501546299936,,,,,,,,,,,,,,,,,,,,,,,,,,,,,,,,,,,,,,,,,,,,,,,,,,,,,,,,,,,,,,,,,,021822,0,2,0,2,3,1,2,0,16,2022_Feb_18_1136,listening_fmri,3.2.4,59.8930702662268,
1,parcelated_audio/24/24_4.ogg,,,,,,,,,0,0,0,0,0,1,1,1,0,0,0,0,,,,,,,,,0,0,0,0,0,3,3,3,,,,,,,,,,,,,,,,,,,,,,,,,,,,,,,,,,,,,,,,,,,,39.77537702999962,46.678944668999975,,,,,,,,,,,,,,,,,,,,,,,,,,,,,,,,,,,,,,,,,,,,,,,,,,,,,,,,,,,,,,,,,,021822,0,2,0,2,3,1,2,0,16,2022_Feb_18_1136,listening_fmri,3.2.4,59.8930702662268,
1,parcelated_audio/24/24_5.ogg,,,,,,,,,0,0,0,0,0,1,1,1,0,0,0,0,,,,,,,,,0,0,0,0,0,4,4,4,,,,,,,,,,,,,,,,,,,,,,,,,,,,,,,,,,,,,,,,,,,,46.679300558999785,51.64988341099979,,,,,,,,,,,,,,,,,,,,,,,,,,,,,,,,,,,,,,,,,,,,,,,,,,,,,,,,,,,,,,,,,,021822,0,2,0,2,3,1,2,0,16,2022_Feb_18_1136,listening_fmri,3.2.4,59.8930702662268,
1,parcelated_audio/24/24_6.ogg,,,,,,,,,0,0,0,0,0,1,1,1,0,0,0,0,,,,,,,,,0,0,0,0,0,5,5,5,,,,,,,,,,,,,,,,,,,,,,,,,,,,,,,,,,,,,,,,,,,,51.650412234000214,59.1044309859999,,,,,,,,,,,,,,,,,,,,,,,,,,,,,,,,,,,,,,,,,,,,,,,,,,,,,,,,,,,,,,,,,,021822,0,2,0,2,3,1,2,0,16,2022_Feb_18_1136,listening_fmri,3.2.4,59.8930702662268,
1,parcelated_audio/24/24_7.ogg,,,,,,,,,0,0,0,0,0,1,1,1,0,0,0,0,,,,,,,,,0,0,0,0,0,6,6,6,,,,,,,,,,,,,,,,,,,,,,,,,,,,,,,,,,,,,,,,,,,,59.10482188599963,63.4854932369999,,,,,,,,,,,,,,,,,,,,,,,,,,,,,,,,,,,,,,,,,,,,,,,,,,,,,,,,,,,,,,,,,,021822,0,2,0,2,3,1,2,0,16,2022_Feb_18_1136,listening_fmri,3.2.4,59.8930702662268,
1,parcelated_audio/24/24_8.ogg,,,,,,,,,0,0,0,0,0,1,1,1,0,0,0,0,,,,,,,,,0,0,0,0,0,7,7,7,,,,,,,,,,,,,,,,,,,,,,,,,,,,,,,,,,,,,,,,,,,,63.48589997699946,69.5611317339999,,,,,,,,,,,,,,,,,,,,,,,,,,,,,,,,,,,,,,,,,,,,,,,,,,,,,,,,,,,,,,,,,,021822,0,2,0,2,3,1,2,0,16,2022_Feb_18_1136,listening_fmri,3.2.4,59.8930702662268,
1,parcelated_audio/24/24_9.ogg,,,,,,,,,0,0,0,0,0,1,1,1,0,0,0,0,,,,,,,,,0,0,0,0,0,8,8,8,,,,,,,,,,,,,,,,,,,,,,,,,,,,,,,,,,,,,,,,,,,,69.56157545699989,73.88769017999948,,,,,,,,,,,,,,,,,,,,,,,,,,,,,,,,,,,,,,,,,,,,,,,,,,,,,,,,,,,,,,,,,,021822,0,2,0,2,3,1,2,0,16,2022_Feb_18_1136,listening_fmri,3.2.4,59.8930702662268,
1,parcelated_audio/24/24_10.ogg,,,,,,,,,0,0,0,0,0,1,1,1,0,0,0,0,,,,,,,,,0,0,0,0,0,9,9,9,,,,,,,,,,,,,,,,,,,,,,,,,,,,,,,,,,,,,,,,,,,,73.88794903799953,77.62109997599964,,,,,,,,,,,,,,,,,,,,,,,,,,,,,,,,,,,,,,,,,,,,,,,,,,,,,,,,,,,,,,,,,,021822,0,2,0,2,3,1,2,0,16,2022_Feb_18_1136,listening_fmri,3.2.4,59.8930702662268,
1,parcelated_audio/24/24_11.ogg,,,,,,,,,0,0,0,0,0,1,1,1,0,0,0,0,,,,,,,,,0,0,0,0,0,10,10,10,,,,,,,,,,,,,,,,,,,,,,,,,,,,,,,,,,,,,,,,,,,,77.62167318199954,87.73883416999979,,,,,,,,,,,,,,,,,,,,,,,,,,,,,,,,,,,,,,,,,,,,,,,,,,,,,,,,,,,,,,,,,,021822,0,2,0,2,3,1,2,0,16,2022_Feb_18_1136,listening_fmri,3.2.4,59.8930702662268,
1,parcelated_audio/24/24_12.ogg,,,,,,,,,0,0,0,0,0,1,1,1,0,0,0,0,,,,,,,,,0,0,0,0,0,11,11,11,,,,,,,,,,,,,,,,,,,,,,,,,,,,,,,,,,,,,,,,,,,,87.73918904199945,96.82155163799962,,,,,,,,,,,,,,,,,,,,,,,,,,,,,,,,,,,,,,,,,,,,,,,,,,,,,,,,,,,,,,,,,,021822,0,2,0,2,3,1,2,0,16,2022_Feb_18_1136,listening_fmri,3.2.4,59.8930702662268,
1,parcelated_audio/24/24_13.ogg,,,,,,,,,0,0,0,0,0,1,1,1,0,0,0,0,,,,,,,,,0,0,0,0,0,12,12,12,,,,,,,,,,,,,,,,,,,,,,,,,,,,,,,,,,,,,,,,,,,,96.82185803199991,100.79760741999962,,,,,,,,,,,,,,,,,,,,,,,,,,,,,,,,,,,,,,,,,,,,,,,,,,,,,,,,,,,,,,,,,,021822,0,2,0,2,3,1,2,0,16,2022_Feb_18_1136,listening_fmri,3.2.4,59.8930702662268,
1,parcelated_audio/24/24_14.ogg,,,,,,,,,0,0,0,0,0,1,1,1,0,0,0,0,,,,,,,,,0,0,0,0,0,13,13,13,,,,,,,,,,,,,,,,,,,,,,,,,,,,,,,,,,,,,,,,,,,,100.7981778659996,108.18485292100013,,,,,,,,,,,,,,,,,,,,,,,,,,,,,,,,,,,,,,,,,,,,,,,,,,,,,,,,,,,,,,,,,,021822,0,2,0,2,3,1,2,0,16,2022_Feb_18_1136,listening_fmri,3.2.4,59.8930702662268,
1,parcelated_audio/24/24_15.ogg,,,,,,,,,0,0,0,0,0,1,1,1,0,0,0,0,,,,,,,,,0,0,0,0,0,14,14,14,,,,,,,,,,,,,,,,,,,,,,,,,,,,,,,,,,,,,,,,,,,,108.18530028799978,114.7148958050002,,,,,,,,,,,,,,,,,,,,,,,,,,,,,,,,,,,,,,,,,,,,,,,,,,,,,,,,,,,,,,,,,,021822,0,2,0,2,3,1,2,0,16,2022_Feb_18_1136,listening_fmri,3.2.4,59.8930702662268,
1,parcelated_audio/24/24_16.ogg,,,,,,,,,0,0,0,0,0,1,1,1,0,0,0,0,,,,,,,,,0,0,0,0,0,15,15,15,,,,,,,,,,,,,,,,,,,,,,,,,,,,,,,,,,,,,,,,,,,,114.7154437299996,121.89898066899968,,,,,,,,,,,,,,,,,,,,,,,,,,,,,,,,,,,,,,,,,,,,,,,,,,,,,,,,,,,,,,,,,,021822,0,2,0,2,3,1,2,0,16,2022_Feb_18_1136,listening_fmri,3.2.4,59.8930702662268,
1,parcelated_audio/24/24_17.ogg,,,,,,,,,0,0,0,0,0,1,1,1,0,0,0,0,,,,,,,,,0,0,0,0,0,16,16,16,,,,,,,,,,,,,,,,,,,,,,,,,,,,,,,,,,,,,,,,,,,,121.89933893699981,127.8936889229999,,,,,,,,,,,,,,,,,,,,,,,,,,,,,,,,,,,,,,,,,,,,,,,,,,,,,,,,,,,,,,,,,,021822,0,2,0,2,3,1,2,0,16,2022_Feb_18_1136,listening_fmri,3.2.4,59.8930702662268,
1,parcelated_audio/24/24_18.ogg,,,,,,,,,0,0,0,0,0,1,1,1,0,0,0,0,,,,,,,,,0,0,0,0,0,17,17,17,,,,,,,,,,,,,,,,,,,,,,,,,,,,,,,,,,,,,,,,,,,,127.89405219499986,136.34160893699936,,,,,,,,,,,,,,,,,,,,,,,,,,,,,,,,,,,,,,,,,,,,,,,,,,,,,,,,,,,,,,,,,,021822,0,2,0,2,3,1,2,0,16,2022_Feb_18_1136,listening_fmri,3.2.4,59.8930702662268,
1,parcelated_audio/24/24_19.ogg,,,,,,,,,0,0,0,0,0,1,1,1,0,0,0,0,,,,,,,,,0,0,0,0,0,18,18,18,,,,,,,,,,,,,,,,,,,,,,,,,,,,,,,,,,,,,,,,,,,,136.34302485399985,145.96983212399937,,,,,,,,,,,,,,,,,,,,,,,,,,,,,,,,,,,,,,,,,,,,,,,,,,,,,,,,,,,,,,,,,,021822,0,2,0,2,3,1,2,0,16,2022_Feb_18_1136,listening_fmri,3.2.4,59.8930702662268,
1,parcelated_audio/24/24_20.ogg,,,,,,,,,0,0,0,0,0,1,1,1,0,0,0,0,,,,,,,,,0,0,0,0,0,19,19,19,,,,,,,,,,,,,,,,,,,,,,,,,,,,,,,,,,,,,,,,,,,,145.97036815399952,150.46682748999956,,,,,,,,,,,,,,,,,,,,,,,,,,,,,,,,,,,,,,,,,,,,,,,,,,,,,,,,,,,,,,,,,,021822,0,2,0,2,3,1,2,0,16,2022_Feb_18_1136,listening_fmri,3.2.4,59.8930702662268,
1,parcelated_audio/24/24_21.ogg,,,,,,,,,0,0,0,0,0,1,1,1,0,0,0,0,,,,,,,,,0,0,0,0,0,20,20,20,,,,,,,,,,,,,,,,,,,,,,,,,,,,,,,,,,,,,,,,,,,,150.4671775830002,158.4862181239996,,,,,,,,,,,,,,,,,,,,,,,,,,,,,,,,,,,,,,,,,,,,,,,,,,,,,,,,,,,,,,,,,,021822,0,2,0,2,3,1,2,0,16,2022_Feb_18_1136,listening_fmri,3.2.4,59.8930702662268,
1,parcelated_audio/24/24_22.ogg,,,,,,,,,0,0,0,0,0,1,1,1,0,0,0,0,,,,,,,,,0,0,0,0,0,21,21,21,,,,,,,,,,,,,,,,,,,,,,,,,,,,,,,,,,,,,,,,,,,,158.48649073700017,169.07100732900017,,,,,,,,,,,,,,,,,,,,,,,,,,,,,,,,,,,,,,,,,,,,,,,,,,,,,,,,,,,,,,,,,,021822,0,2,0,2,3,1,2,0,16,2022_Feb_18_1136,listening_fmri,3.2.4,59.8930702662268,
1,parcelated_audio/24/24_23.ogg,,,,,,,,,0,0,0,0,0,1,1,1,0,0,0,0,,,,,,,,,0,0,0,0,0,22,22,22,,,,,,,,,,,,,,,,,,,,,,,,,,,,,,,,,,,,,,,,,,,,169.07135503100017,179.27231050799946,,,,,,,,,,,,,,,,,,,,,,,,,,,,,,,,,,,,,,,,,,,,,,,,,,,,,,,,,,,,,,,,,,021822,0,2,0,2,3,1,2,0,16,2022_Feb_18_1136,listening_fmri,3.2.4,59.8930702662268,
1,parcelated_audio/24/24_24.ogg,,,,,,,,,0,0,0,0,0,1,1,1,0,0,0,0,,,,,,,,,0,0,0,0,0,23,23,23,,,,,,,,,,,,,,,,,,,,,,,,,,,,,,,,,,,,,,,,,,,,179.2733372169996,185.858029901,,,,,,,,,,,,,,,,,,,,,,,,,,,,,,,,,,,,,,,,,,,,,,,,,,,,,,,,,,,,,,,,,,021822,0,2,0,2,3,1,2,0,16,2022_Feb_18_1136,listening_fmri,3.2.4,59.8930702662268,
1,parcelated_audio/24/24_25.ogg,,,,,,,,,0,0,0,0,0,1,1,1,0,0,0,0,,,,,,,,,0,0,0,0,0,24,24,24,,,,,,,,,,,,,,,,,,,,,,,,,,,,,,,,,,,,,,,,,,,,185.85859930100014,194.59101197400014,,,,,,,,,,,,,,,,,,,,,,,,,,,,,,,,,,,,,,,,,,,,,,,,,,,,,,,,,,,,,,,,,,021822,0,2,0,2,3,1,2,0,16,2022_Feb_18_1136,listening_fmri,3.2.4,59.8930702662268,
1,parcelated_audio/24/24_26.ogg,,,,,,,,,0,0,0,0,0,1,1,1,0,0,0,0,,,,,,,,,0,0,0,0,0,25,25,25,,,,,,,,,,,,,,,,,,,,,,,,,,,,,,,,,,,,,,,,,,,,194.59158304599987,201.16108548600005,,,,,,,,,,,,,,,,,,,,,,,,,,,,,,,,,,,,,,,,,,,,,,,,,,,,,,,,,,,,,,,,,,021822,0,2,0,2,3,1,2,0,16,2022_Feb_18_1136,listening_fmri,3.2.4,59.8930702662268,
1,parcelated_audio/24/24_27.ogg,,,,,,,,,0,0,0,0,0,1,1,1,0,0,0,0,,,,,,,,,0,0,0,0,0,26,26,26,,,,,,,,,,,,,,,,,,,,,,,,,,,,,,,,,,,,,,,,,,,,201.16165453399935,207.33025240299958,,,,,,,,,,,,,,,,,,,,,,,,,,,,,,,,,,,,,,,,,,,,,,,,,,,,,,,,,,,,,,,,,,021822,0,2,0,2,3,1,2,0,16,2022_Feb_18_1136,listening_fmri,3.2.4,59.8930702662268,
1,parcelated_audio/24/24_28.ogg,,,,,,,,,0,0,0,0,0,1,1,1,0,0,0,0,,,,,,,,,0,0,0,0,0,27,27,27,,,,,,,,,,,,,,,,,,,,,,,,,,,,,,,,,,,,,,,,,,,,207.3305961219994,211.82002595299946,,,,,,,,,,,,,,,,,,,,,,,,,,,,,,,,,,,,,,,,,,,,,,,,,,,,,,,,,,,,,,,,,,021822,0,2,0,2,3,1,2,0,16,2022_Feb_18_1136,listening_fmri,3.2.4,59.8930702662268,
1,parcelated_audio/24/24_29.ogg,,,,,,,,,0,0,0,0,0,1,1,1,0,0,0,0,,,,,,,,,0,0,0,0,0,28,28,28,,,,,,,,,,,,,,,,,,,,,,,,,,,,,,,,,,,,,,,,,,,,211.82138245399983,218.20574895800019,,,,,,,,,,,,,,,,,,,,,,,,,,,,,,,,,,,,,,,,,,,,,,,,,,,,,,,,,,,,,,,,,,021822,0,2,0,2,3,1,2,0,16,2022_Feb_18_1136,listening_fmri,3.2.4,59.8930702662268,
1,parcelated_audio/24/24_30.ogg,,,,,,,,,0,0,0,0,0,1,1,1,0,0,0,0,,,,,,,,,0,0,0,0,0,29,29,29,,,,,,,,,,,,,,,,,,,,,,,,,,,,,,,,,,,,,,,,,,,,218.2060907089999,224.46686464199956,,,,,,,,,,,,,,,,,,,,,,,,,,,,,,,,,,,,,,,,,,,,,,,,,,,,,,,,,,,,,,,,,,021822,0,2,0,2,3,1,2,0,16,2022_Feb_18_1136,listening_fmri,3.2.4,59.8930702662268,
1,parcelated_audio/24/24_31.ogg,,,,,,,,,0,0,0,0,0,1,1,1,0,0,0,0,,,,,,,,,0,0,0,0,0,30,30,30,,,,,,,,,,,,,,,,,,,,,,,,,,,,,,,,,,,,,,,,,,,,224.46721790499942,231.13605822699992,,,,,,,,,,,,,,,,,,,,,,,,,,,,,,,,,,,,,,,,,,,,,,,,,,,,,,,,,,,,,,,,,,021822,0,2,0,2,3,1,2,0,16,2022_Feb_18_1136,listening_fmri,3.2.4,59.8930702662268,
1,parcelated_audio/24/24_32.ogg,,,,,,,,,0,0,0,0,0,1,1,1,0,0,0,0,,,,,,,,,0,0,0,0,0,31,31,31,,,,,,,,,,,,,,,,,,,,,,,,,,,,,,,,,,,,,,,,,,,,231.1366451619997,241.92098695999994,,,,,,,,,,,,,,,,,,,,,,,,,,,,,,,,,,,,,,,,,,,,,,,,,,,,,,,,,,,,,,,,,,021822,0,2,0,2,3,1,2,0,16,2022_Feb_18_1136,listening_fmri,3.2.4,59.8930702662268,
1,,,,,,,,,,0,0,0,0,0,1,1,1,0,0,0,0,,,,,,,,,0,0,0,0,,,,,,,,,,,,,,,,,,,,,,,,,,,,,,,,,,,,,,,,,,,,,,,,,,,,,,,,,,,,,,,,,,,,,,,,,,,,,,,,,,,,,,,,,,,,,,,,,,,,,,,,,,,,,,,,,,,021822,0,2,0,2,3,1,2,0,16,2022_Feb_18_1136,listening_fmri,3.2.4,59.8930702662268,
1,,,,,,,,,,0,0,0,0,0,1,1,1,0,0,0,0,,,,,,,,,,,,,,,,,,,,,,,,,,,,,,,,,,,,,,241.9214784119995,247.91692881299969,284.0680083339994,None,,,,,,,,,,,,,,,,,,,,,290.06845267300014,None,290.06845267300014,None,,,,,,,,,,,,,,,,,,,,,,,,,,,,,,,,,,,,,,,,,,,,,,,,,,,,,,,,,,,,,,021822,0,2,0,2,3,1,2,0,16,2022_Feb_18_1136,listening_fmri,3.2.4,59.8930702662268,
1,,,,,,,,,,0,0,0,0,0,1,1,1,,,,,,,,,,,,,,,,,,,,,,,,,,,,,,,,,,,,,,,,,,,,,,,,,,,,,,,,,,,,,,,,,,,,,,,,,,,,,,,,,,,,,,,,,,,,,,,,,,,,,,,,,,,,,,,,,,,,,,,,,,,,,,,,,,,021822,0,2,0,2,3,1,2,0,16,2022_Feb_18_1136,listening_fmri,3.2.4,59.8930702662268,
2,,,,,,,,,,0,0,0,0,0,2,2,2,0,0,0,0,0,0,0,0,,,,,,,,,,,,,,,,,0,0,0,0,,,,,,,,,,,,,,,,,,291.06797505600025,None,291.06797505600025,None,6,4.554024428000048,291.06797505600025,None,291.06797505600025,None,,,,,,,,,,,,,,,295.651422379,None,6,0.8174356130002707,295.651422379,None,295.651422379,None,296.5179671400001,None,296.5179671400001,None,296.5179671400001,None,6,0.8230315780001547,296.5179671400001,None,297.3685548249996,None,6,0.9123980140002459,297.3685548249996,None,297.3685548249996,None,298.43421586800014,None,298.43421586800014,None,298.43421586800014,None,298.43421586800014,None,298.43421586800014,None,298.43421586800014,None,298.43421586800014,None,None,298.43421586800014,None,,,,,,,,,,,,,,,,,,,021822,0,2,0,2,3,1,2,0,16,2022_Feb_18_1136,listening_fmri,3.2.4,59.8930702662268,
2,,,,,,,,,,0,0,0,0,0,2,2,2,0,0,0,0,0,0,0,0,,,,,,,,,,,,,,,,,1,0,1,0,,,,,,,,,,,,,,,,,,,,,,,,,,,,,,,,,,,,,,,,,,,,,,,,,,314.0347313259999,None,314.0347313259999,None,314.0347313259999,None,6,0.7962612709998211,314.0347313259999,None,314.85121168600017,None,6,0.5377782549994663,314.85121168600017,None,314.85121168600017,None,315.501205134,None,315.501205134,None,315.501205134,None,315.501205134,None,315.501205134,None,315.501205134,None,315.501205134,None,None,315.501205134,None,,,,,,,,,,,,,,,,,,,021822,0,2,0,2,3,1,2,0,16,2022_Feb_18_1136,listening_fmri,3.2.4,59.8930702662268,
2,,,,,,,,,,0,0,0,0,0,2,2,2,0,0,0,0,0,0,0,0,,,,,,,,,,,,,,,,,,,,,,,,,,,,,,,,,,,,,,,,,,,,,,,,,,,,,,,,,,,,,,,,,,,,,,,,,,,,,,,,,,,,,,,,,,,,,,,,,,,,,,,,,343.7346268649999,None,1,1.1683687539998573,343.7346268649999,None,343.7346268649999,None,344.95058393599993,None,344.95058393599993,None,344.95058393599993,None,1,0.5704167719995894,344.95058393599993,None,021822,0,2,0,2,3,1,2,0,16,2022_Feb_18_1136,listening_fmri,3.2.4,59.8930702662268,
2,parcelated_audio/23/23_1.ogg,,,,,,,,,0,0,0,0,0,2,2,2,0,0,0,0,,,,,,,,,0,0,0,0,0,0,0,0,,,,,,,,,,,,,,,,,,,,,,,,,,,,,,,,,,,,345.55089058700014,None,1,0.819106035999539,345.55089058700014,None,304.2928942689996,307.298912577,307.3051975970002,317.70152217600025,,,,,,,,,,,,,,,,,,,,,,,,,,,,,,,,,,,,,,,,,,,,,,,,,,,,,,,,,,,,,,,,,,021822,0,2,0,2,3,1,2,0,16,2022_Feb_18_1136,listening_fmri,3.2.4,59.8930702662268,
2,parcelated_audio/23/23_2.ogg,,,,,,,,,0,0,0,0,0,2,2,2,0,0,0,0,,,,,,,,,0,0,0,0,0,1,1,1,,,,,,,,,,,,,,,,,,,,,,,,,,,,,,,,,,,,,,,,,,,,317.70301327299967,324.5810574669995,,,,,,,,,,,,,,,,,,,,,,,,,,,,,,,,,,,,,,,,,,,,,,,,,,,,,,,,,,,,,,,,,,021822,0,2,0,2,3,1,2,0,16,2022_Feb_18_1136,listening_fmri,3.2.4,59.8930702662268,
2,parcelated_audio/23/23_3.ogg,,,,,,,,,0,0,0,0,0,2,2,2,0,0,0,0,,,,,,,,,0,0,0,0,0,2,2,2,,,,,,,,,,,,,,,,,,,,,,,,,,,,,,,,,,,,,,,,,,,,324.5813412110001,330.3521619129997,,,,,,,,,,,,,,,,,,,,,,,,,,,,,,,,,,,,,,,,,,,,,,,,,,,,,,,,,,,,,,,,,,021822,0,2,0,2,3,1,2,0,16,2022_Feb_18_1136,listening_fmri,3.2.4,59.8930702662268,
2,parcelated_audio/23/23_4.ogg,,,,,,,,,0,0,0,0,0,2,2,2,0,0,0,0,,,,,,,,,0,0,0,0,0,3,3,3,,,,,,,,,,,,,,,,,,,,,,,,,,,,,,,,,,,,,,,,,,,,330.3525270909995,341.6210938719996,,,,,,,,,,,,,,,,,,,,,,,,,,,,,,,,,,,,,,,,,,,,,,,,,,,,,,,,,,,,,,,,,,021822,0,2,0,2,3,1,2,0,16,2022_Feb_18_1136,listening_fmri,3.2.4,59.8930702662268,
2,parcelated_audio/23/23_5.ogg,,,,,,,,,0,0,0,0,0,2,2,2,0,0,0,0,,,,,,,,,0,0,0,0,0,4,4,4,,,,,,,,,,,,,,,,,,,,,,,,,,,,,,,,,,,,,,,,,,,,341.6216210579996,347.8349819699997,,,,,,,,,,,,,,,,,,,,,,,,,,,,,,,,,,,,,,,,,,,,,,,,,,,,,,,,,,,,,,,,,,021822,0,2,0,2,3,1,2,0,16,2022_Feb_18_1136,listening_fmri,3.2.4,59.8930702662268,
2,parcelated_audio/23/23_6.ogg,,,,,,,,,0,0,0,0,0,2,2,2,0,0,0,0,,,,,,,,,0,0,0,0,0,5,5,5,,,,,,,,,,,,,,,,,,,,,,,,,,,,,,,,,,,,,,,,,,,,347.8353357569995,355.248302512,,,,,,,,,,,,,,,,,,,,,,,,,,,,,,,,,,,,,,,,,,,,,,,,,,,,,,,,,,,,,,,,,,021822,0,2,0,2,3,1,2,0,16,2022_Feb_18_1136,listening_fmri,3.2.4,59.8930702662268,
2,parcelated_audio/23/23_7.ogg,,,,,,,,,0,0,0,0,0,2,2,2,0,0,0,0,,,,,,,,,0,0,0,0,0,6,6,6,,,,,,,,,,,,,,,,,,,,,,,,,,,,,,,,,,,,,,,,,,,,355.24865905800016,362.0162264159999,,,,,,,,,,,,,,,,,,,,,,,,,,,,,,,,,,,,,,,,,,,,,,,,,,,,,,,,,,,,,,,,,,021822,0,2,0,2,3,1,2,0,16,2022_Feb_18_1136,listening_fmri,3.2.4,59.8930702662268,
2,parcelated_audio/23/23_8.ogg,,,,,,,,,0,0,0,0,0,2,2,2,0,0,0,0,,,,,,,,,0,0,0,0,0,7,7,7,,,,,,,,,,,,,,,,,,,,,,,,,,,,,,,,,,,,,,,,,,,,362.01676530700024,367.41889048600024,,,,,,,,,,,,,,,,,,,,,,,,,,,,,,,,,,,,,,,,,,,,,,,,,,,,,,,,,,,,,,,,,,021822,0,2,0,2,3,1,2,0,16,2022_Feb_18_1136,listening_fmri,3.2.4,59.8930702662268,
2,parcelated_audio/23/23_9.ogg,,,,,,,,,0,0,0,0,0,2,2,2,0,0,0,0,,,,,,,,,0,0,0,0,0,8,8,8,,,,,,,,,,,,,,,,,,,,,,,,,,,,,,,,,,,,,,,,,,,,367.41924353000013,371.8003698399998,,,,,,,,,,,,,,,,,,,,,,,,,,,,,,,,,,,,,,,,,,,,,,,,,,,,,,,,,,,,,,,,,,021822,0,2,0,2,3,1,2,0,16,2022_Feb_18_1136,listening_fmri,3.2.4,59.8930702662268,
2,parcelated_audio/23/23_10.ogg,,,,,,,,,0,0,0,0,0,2,2,2,0,0,0,0,,,,,,,,,0,0,0,0,0,9,9,9,,,,,,,,,,,,,,,,,,,,,,,,,,,,,,,,,,,,,,,,,,,,371.8007383759996,375.85346582199963,,,,,,,,,,,,,,,,,,,,,,,,,,,,,,,,,,,,,,,,,,,,,,,,,,,,,,,,,,,,,,,,,,021822,0,2,0,2,3,1,2,0,16,2022_Feb_18_1136,listening_fmri,3.2.4,59.8930702662268,
2,parcelated_audio/23/23_11.ogg,,,,,,,,,0,0,0,0,0,2,2,2,0,0,0,0,,,,,,,,,0,0,0,0,0,10,10,10,,,,,,,,,,,,,,,,,,,,,,,,,,,,,,,,,,,,,,,,,,,,375.853821228,383.97606511399954,,,,,,,,,,,,,,,,,,,,,,,,,,,,,,,,,,,,,,,,,,,,,,,,,,,,,,,,,,,,,,,,,,021822,0,2,0,2,3,1,2,0,16,2022_Feb_18_1136,listening_fmri,3.2.4,59.8930702662268,
2,parcelated_audio/23/23_12.ogg,,,,,,,,,0,0,0,0,0,2,2,2,0,0,0,0,,,,,,,,,0,0,0,0,0,11,11,11,,,,,,,,,,,,,,,,,,,,,,,,,,,,,,,,,,,,,,,,,,,,383.9765459829996,391.1150868369996,,,,,,,,,,,,,,,,,,,,,,,,,,,,,,,,,,,,,,,,,,,,,,,,,,,,,,,,,,,,,,,,,,021822,0,2,0,2,3,1,2,0,16,2022_Feb_18_1136,listening_fmri,3.2.4,59.8930702662268,
2,parcelated_audio/23/23_13.ogg,,,,,,,,,0,0,0,0,0,2,2,2,0,0,0,0,,,,,,,,,0,0,0,0,0,12,12,12,,,,,,,,,,,,,,,,,,,,,,,,,,,,,,,,,,,,,,,,,,,,391.1154491979996,397.8920597719998,,,,,,,,,,,,,,,,,,,,,,,,,,,,,,,,,,,,,,,,,,,,,,,,,,,,,,,,,,,,,,,,,,021822,0,2,0,2,3,1,2,0,16,2022_Feb_18_1136,listening_fmri,3.2.4,59.8930702662268,
2,parcelated_audio/23/23_14.ogg,,,,,,,,,0,0,0,0,0,2,2,2,0,0,0,0,,,,,,,,,0,0,0,0,0,13,13,13,,,,,,,,,,,,,,,,,,,,,,,,,,,,,,,,,,,,,,,,,,,,397.89241676799975,402.26940734599975,,,,,,,,,,,,,,,,,,,,,,,,,,,,,,,,,,,,,,,,,,,,,,,,,,,,,,,,,,,,,,,,,,021822,0,2,0,2,3,1,2,0,16,2022_Feb_18_1136,listening_fmri,3.2.4,59.8930702662268,
2,parcelated_audio/23/23_15.ogg,,,,,,,,,0,0,0,0,0,2,2,2,0,0,0,0,,,,,,,,,0,0,0,0,0,14,14,14,,,,,,,,,,,,,,,,,,,,,,,,,,,,,,,,,,,,,,,,,,,,402.2697436489998,406.6980727729997,,,,,,,,,,,,,,,,,,,,,,,,,,,,,,,,,,,,,,,,,,,,,,,,,,,,,,,,,,,,,,,,,,021822,0,2,0,2,3,1,2,0,16,2022_Feb_18_1136,listening_fmri,3.2.4,59.8930702662268,
2,parcelated_audio/23/23_16.ogg,,,,,,,,,0,0,0,0,0,2,2,2,0,0,0,0,,,,,,,,,0,0,0,0,0,15,15,15,,,,,,,,,,,,,,,,,,,,,,,,,,,,,,,,,,,,,,,,,,,,406.6989221650001,413.2790293319995,,,,,,,,,,,,,,,,,,,,,,,,,,,,,,,,,,,,,,,,,,,,,,,,,,,,,,,,,,,,,,,,,,021822,0,2,0,2,3,1,2,0,16,2022_Feb_18_1136,listening_fmri,3.2.4,59.8930702662268,
2,parcelated_audio/23/23_17.ogg,,,,,,,,,0,0,0,0,0,2,2,2,0,0,0,0,,,,,,,,,0,0,0,0,0,16,16,16,,,,,,,,,,,,,,,,,,,,,,,,,,,,,,,,,,,,,,,,,,,,413.2793871519998,420.02002541299953,,,,,,,,,,,,,,,,,,,,,,,,,,,,,,,,,,,,,,,,,,,,,,,,,,,,,,,,,,,,,,,,,,021822,0,2,0,2,3,1,2,0,16,2022_Feb_18_1136,listening_fmri,3.2.4,59.8930702662268,
2,parcelated_audio/23/23_18.ogg,,,,,,,,,0,0,0,0,0,2,2,2,0,0,0,0,,,,,,,,,0,0,0,0,0,17,17,17,,,,,,,,,,,,,,,,,,,,,,,,,,,,,,,,,,,,,,,,,,,,420.0205366829996,432.0043078339995,,,,,,,,,,,,,,,,,,,,,,,,,,,,,,,,,,,,,,,,,,,,,,,,,,,,,,,,,,,,,,,,,,021822,0,2,0,2,3,1,2,0,16,2022_Feb_18_1136,listening_fmri,3.2.4,59.8930702662268,
2,parcelated_audio/23/23_19.ogg,,,,,,,,,0,0,0,0,0,2,2,2,0,0,0,0,,,,,,,,,0,0,0,0,0,18,18,18,,,,,,,,,,,,,,,,,,,,,,,,,,,,,,,,,,,,,,,,,,,,432.0046554599994,437.7737145229994,,,,,,,,,,,,,,,,,,,,,,,,,,,,,,,,,,,,,,,,,,,,,,,,,,,,,,,,,,,,,,,,,,021822,0,2,0,2,3,1,2,0,16,2022_Feb_18_1136,listening_fmri,3.2.4,59.8930702662268,
2,parcelated_audio/23/23_20.ogg,,,,,,,,,0,0,0,0,0,2,2,2,0,0,0,0,,,,,,,,,0,0,0,0,0,19,19,19,,,,,,,,,,,,,,,,,,,,,,,,,,,,,,,,,,,,,,,,,,,,437.7741358429994,440.6469006589996,,,,,,,,,,,,,,,,,,,,,,,,,,,,,,,,,,,,,,,,,,,,,,,,,,,,,,,,,,,,,,,,,,021822,0,2,0,2,3,1,2,0,16,2022_Feb_18_1136,listening_fmri,3.2.4,59.8930702662268,
2,parcelated_audio/23/23_21.ogg,,,,,,,,,0,0,0,0,0,2,2,2,0,0,0,0,,,,,,,,,0,0,0,0,0,20,20,20,,,,,,,,,,,,,,,,,,,,,,,,,,,,,,,,,,,,,,,,,,,,440.6472308479997,448.3211092800002,,,,,,,,,,,,,,,,,,,,,,,,,,,,,,,,,,,,,,,,,,,,,,,,,,,,,,,,,,,,,,,,,,021822,0,2,0,2,3,1,2,0,16,2022_Feb_18_1136,listening_fmri,3.2.4,59.8930702662268,
2,parcelated_audio/23/23_22.ogg,,,,,,,,,0,0,0,0,0,2,2,2,0,0,0,0,,,,,,,,,0,0,0,0,0,21,21,21,,,,,,,,,,,,,,,,,,,,,,,,,,,,,,,,,,,,,,,,,,,,448.3214672489994,450.9759111809999,,,,,,,,,,,,,,,,,,,,,,,,,,,,,,,,,,,,,,,,,,,,,,,,,,,,,,,,,,,,,,,,,,021822,0,2,0,2,3,1,2,0,16,2022_Feb_18_1136,listening_fmri,3.2.4,59.8930702662268,
2,parcelated_audio/23/23_23.ogg,,,,,,,,,0,0,0,0,0,2,2,2,0,0,0,0,,,,,,,,,0,0,0,0,0,22,22,22,,,,,,,,,,,,,,,,,,,,,,,,,,,,,,,,,,,,,,,,,,,,450.9762522589999,455.13885740299975,,,,,,,,,,,,,,,,,,,,,,,,,,,,,,,,,,,,,,,,,,,,,,,,,,,,,,,,,,,,,,,,,,021822,0,2,0,2,3,1,2,0,16,2022_Feb_18_1136,listening_fmri,3.2.4,59.8930702662268,
2,parcelated_audio/23/23_24.ogg,,,,,,,,,0,0,0,0,0,2,2,2,0,0,0,0,,,,,,,,,0,0,0,0,0,23,23,23,,,,,,,,,,,,,,,,,,,,,,,,,,,,,,,,,,,,,,,,,,,,455.13920847699956,458.5839334679995,,,,,,,,,,,,,,,,,,,,,,,,,,,,,,,,,,,,,,,,,,,,,,,,,,,,,,,,,,,,,,,,,,021822,0,2,0,2,3,1,2,0,16,2022_Feb_18_1136,listening_fmri,3.2.4,59.8930702662268,
2,parcelated_audio/23/23_25.ogg,,,,,,,,,0,0,0,0,0,2,2,2,0,0,0,0,,,,,,,,,0,0,0,0,0,24,24,24,,,,,,,,,,,,,,,,,,,,,,,,,,,,,,,,,,,,,,,,,,,,458.584278112,462.731592397,,,,,,,,,,,,,,,,,,,,,,,,,,,,,,,,,,,,,,,,,,,,,,,,,,,,,,,,,,,,,,,,,,021822,0,2,0,2,3,1,2,0,16,2022_Feb_18_1136,listening_fmri,3.2.4,59.8930702662268,
2,parcelated_audio/23/23_26.ogg,,,,,,,,,0,0,0,0,0,2,2,2,0,0,0,0,,,,,,,,,0,0,0,0,0,25,25,25,,,,,,,,,,,,,,,,,,,,,,,,,,,,,,,,,,,,,,,,,,,,462.73216098800003,468.9867284379998,,,,,,,,,,,,,,,,,,,,,,,,,,,,,,,,,,,,,,,,,,,,,,,,,,,,,,,,,,,,,,,,,,021822,0,2,0,2,3,1,2,0,16,2022_Feb_18_1136,listening_fmri,3.2.4,59.8930702662268,
2,parcelated_audio/23/23_27.ogg,,,,,,,,,0,0,0,0,0,2,2,2,0,0,0,0,,,,,,,,,0,0,0,0,0,26,26,26,,,,,,,,,,,,,,,,,,,,,,,,,,,,,,,,,,,,,,,,,,,,468.9871852589995,474.25173226900006,,,,,,,,,,,,,,,,,,,,,,,,,,,,,,,,,,,,,,,,,,,,,,,,,,,,,,,,,,,,,,,,,,021822,0,2,0,2,3,1,2,0,16,2022_Feb_18_1136,listening_fmri,3.2.4,59.8930702662268,
2,parcelated_audio/23/23_28.ogg,,,,,,,,,0,0,0,0,0,2,2,2,0,0,0,0,,,,,,,,,0,0,0,0,0,27,27,27,,,,,,,,,,,,,,,,,,,,,,,,,,,,,,,,,,,,,,,,,,,,474.2520863139998,482.2035971639998,,,,,,,,,,,,,,,,,,,,,,,,,,,,,,,,,,,,,,,,,,,,,,,,,,,,,,,,,,,,,,,,,,021822,0,2,0,2,3,1,2,0,16,2022_Feb_18_1136,listening_fmri,3.2.4,59.8930702662268,
2,parcelated_audio/23/23_29.ogg,,,,,,,,,0,0,0,0,0,2,2,2,0,0,0,0,,,,,,,,,0,0,0,0,0,28,28,28,,,,,,,,,,,,,,,,,,,,,,,,,,,,,,,,,,,,,,,,,,,,482.2040240259994,485.9541805439994,,,,,,,,,,,,,,,,,,,,,,,,,,,,,,,,,,,,,,,,,,,,,,,,,,,,,,,,,,,,,,,,,,021822,0,2,0,2,3,1,2,0,16,2022_Feb_18_1136,listening_fmri,3.2.4,59.8930702662268,
2,parcelated_audio/23/23_30.ogg,,,,,,,,,0,0,0,0,0,2,2,2,0,0,0,0,,,,,,,,,0,0,0,0,0,29,29,29,,,,,,,,,,,,,,,,,,,,,,,,,,,,,,,,,,,,,,,,,,,,485.9545438639998,491.8611274249997,,,,,,,,,,,,,,,,,,,,,,,,,,,,,,,,,,,,,,,,,,,,,,,,,,,,,,,,,,,,,,,,,,021822,0,2,0,2,3,1,2,0,16,2022_Feb_18_1136,listening_fmri,3.2.4,59.8930702662268,
2,parcelated_audio/23/23_31.ogg,,,,,,,,,0,0,0,0,0,2,2,2,0,0,0,0,,,,,,,,,0,0,0,0,0,30,30,30,,,,,,,,,,,,,,,,,,,,,,,,,,,,,,,,,,,,,,,,,,,,491.86147653699936,493.86933551199945,,,,,,,,,,,,,,,,,,,,,,,,,,,,,,,,,,,,,,,,,,,,,,,,,,,,,,,,,,,,,,,,,,021822,0,2,0,2,3,1,2,0,16,2022_Feb_18_1136,listening_fmri,3.2.4,59.8930702662268,
2,parcelated_audio/23/23_32.ogg,,,,,,,,,0,0,0,0,0,2,2,2,0,0,0,0,,,,,,,,,0,0,0,0,0,31,31,31,,,,,,,,,,,,,,,,,,,,,,,,,,,,,,,,,,,,,,,,,,,,493.8698085369997,497.5657150999996,,,,,,,,,,,,,,,,,,,,,,,,,,,,,,,,,,,,,,,,,,,,,,,,,,,,,,,,,,,,,,,,,,021822,0,2,0,2,3,1,2,0,16,2022_Feb_18_1136,listening_fmri,3.2.4,59.8930702662268,
2,parcelated_audio/23/23_33.ogg,,,,,,,,,0,0,0,0,0,2,2,2,0,0,0,0,,,,,,,,,0,0,0,0,0,32,32,32,,,,,,,,,,,,,,,,,,,,,,,,,,,,,,,,,,,,,,,,,,,,497.56606884399935,503.6129970109996,,,,,,,,,,,,,,,,,,,,,,,,,,,,,,,,,,,,,,,,,,,,,,,,,,,,,,,,,,,,,,,,,,021822,0,2,0,2,3,1,2,0,16,2022_Feb_18_1136,listening_fmri,3.2.4,59.8930702662268,
2,parcelated_audio/23/23_34.ogg,,,,,,,,,0,0,0,0,0,2,2,2,0,0,0,0,,,,,,,,,0,0,0,0,0,33,33,33,,,,,,,,,,,,,,,,,,,,,,,,,,,,,,,,,,,,,,,,,,,,503.61336041100003,507.15077605199986,,,,,,,,,,,,,,,,,,,,,,,,,,,,,,,,,,,,,,,,,,,,,,,,,,,,,,,,,,,,,,,,,,021822,0,2,0,2,3,1,2,0,16,2022_Feb_18_1136,listening_fmri,3.2.4,59.8930702662268,
2,parcelated_audio/23/23_35.ogg,,,,,,,,,0,0,0,0,0,2,2,2,0,0,0,0,,,,,,,,,0,0,0,0,0,34,34,34,,,,,,,,,,,,,,,,,,,,,,,,,,,,,,,,,,,,,,,,,,,,507.15126113099996,511.4319434959998,,,,,,,,,,,,,,,,,,,,,,,,,,,,,,,,,,,,,,,,,,,,,,,,,,,,,,,,,,,,,,,,,,021822,0,2,0,2,3,1,2,0,16,2022_Feb_18_1136,listening_fmri,3.2.4,59.8930702662268,
2,parcelated_audio/23/23_36.ogg,,,,,,,,,0,0,0,0,0,2,2,2,0,0,0,0,,,,,,,,,0,0,0,0,0,35,35,35,,,,,,,,,,,,,,,,,,,,,,,,,,,,,,,,,,,,,,,,,,,,511.4324164310001,516.0508596849995,,,,,,,,,,,,,,,,,,,,,,,,,,,,,,,,,,,,,,,,,,,,,,,,,,,,,,,,,,,,,,,,,,021822,0,2,0,2,3,1,2,0,16,2022_Feb_18_1136,listening_fmri,3.2.4,59.8930702662268,
2,parcelated_audio/23/23_37.ogg,,,,,,,,,0,0,0,0,0,2,2,2,0,0,0,0,,,,,,,,,0,0,0,0,0,36,36,36,,,,,,,,,,,,,,,,,,,,,,,,,,,,,,,,,,,,,,,,,,,,516.0512133000002,520.8306385639999,,,,,,,,,,,,,,,,,,,,,,,,,,,,,,,,,,,,,,,,,,,,,,,,,,,,,,,,,,,,,,,,,,021822,0,2,0,2,3,1,2,0,16,2022_Feb_18_1136,listening_fmri,3.2.4,59.8930702662268,
2,parcelated_audio/23/23_38.ogg,,,,,,,,,0,0,0,0,0,2,2,2,0,0,0,0,,,,,,,,,0,0,0,0,0,37,37,37,,,,,,,,,,,,,,,,,,,,,,,,,,,,,,,,,,,,,,,,,,,,520.8310029919994,528.3144167439996,,,,,,,,,,,,,,,,,,,,,,,,,,,,,,,,,,,,,,,,,,,,,,,,,,,,,,,,,,,,,,,,,,021822,0,2,0,2,3,1,2,0,16,2022_Feb_18_1136,listening_fmri,3.2.4,59.8930702662268,
2,parcelated_audio/23/23_39.ogg,,,,,,,,,0,0,0,0,0,2,2,2,0,0,0,0,,,,,,,,,0,0,0,0,0,38,38,38,,,,,,,,,,,,,,,,,,,,,,,,,,,,,,,,,,,,,,,,,,,,528.314780146,534.5811042099995,,,,,,,,,,,,,,,,,,,,,,,,,,,,,,,,,,,,,,,,,,,,,,,,,,,,,,,,,,,,,,,,,,021822,0,2,0,2,3,1,2,0,16,2022_Feb_18_1136,listening_fmri,3.2.4,59.8930702662268,
2,,,,,,,,,,0,0,0,0,0,2,2,2,0,0,0,0,,,,,,,,,0,0,0,0,,,,,,,,,,,,,,,,,,,,,,,,,,,,,,,,,,,,,,,,,,,,,,,,,,,,,,,,,,,,,,,,,,,,,,,,,,,,,,,,,,,,,,,,,,,,,,,,,,,,,,,,,,,,,,,,,,,021822,0,2,0,2,3,1,2,0,16,2022_Feb_18_1136,listening_fmri,3.2.4,59.8930702662268,
,,,,,,,,,,,,,,,,,,,,,,,,,,,,,,,,,,,,,,,,,,,,,,,,,,,,,,,,,,,534.5816267809996,540.5835989159996,576.7316368439997,None,,,,,,,,,,,,,,,,,,,,,582.7360539749998,None,582.7360539749998,None,,,,,,,,,,,,,,,,,,,,,,,,,,,,,,,,,,,,,,,,,,,,,,,,,,,,,,,,,,,,,,,,,,,,,,,,,,,,
﻿count,audio,trials_14.thisRepN,trials_14.thisTrialN,trials_14.thisN,trials_14.thisIndex,trials_3.thisRepN,trials_3.thisTrialN,trials_3.thisN,trials_3.thisIndex,trials_4.thisRepN,trials_4.thisTrialN,trials_4.thisN,trials_4.thisIndex,trials_6.thisRepN,trials_6.thisTrialN,trials_6.thisN,trials_6.thisIndex,trials_9.thisRepN,trials_9.thisTrialN,trials_9.thisN,trials_9.thisIndex,trials_10.thisRepN,trials_10.thisTrialN,trials_10.thisN,trials_10.thisIndex,trials_12.thisRepN,trials_12.thisTrialN,trials_12.thisN,trials_12.thisIndex,trials_25.thisRepN,trials_25.thisTrialN,trials_25.thisN,trials_25.thisIndex,trials_15.thisRepN,trials_15.thisTrialN,trials_15.thisN,trials_15.thisIndex,trials_26.thisRepN,trials_26.thisTrialN,trials_26.thisN,trials_26.thisIndex,trials_11.thisRepN,trials_11.thisTrialN,trials_11.thisN,trials_11.thisIndex,story_list_block2,action_list_block2,textTrigger.started,textTrigger.stopped,getTrigger.keys,getTrigger.rt,getTrigger.started,getTrigger.stopped,triggerTime,text_76.started,text_76.stopped,text_77.started,text_77.stopped,startWait,endWait,image_23.started,image_23.stopped,text_55.started,text_55.stopped,text_56.started,text_56.stopped,key_resp_2.keys,key_resp_2.rt,key_resp_2.started,key_resp_2.stopped,text_82.started,text_82.stopped,text_64.started,text_64.stopped,key_resp_20.keys,key_resp_20.rt,key_resp_20.started,key_resp_20.stopped,storyImage_StartTime,storyImage_EndTime,clip_StartTime,clip_EndTime,text_67.started,text_67.stopped,text_68.started,text_68.stopped,text_57.started,text_57.stopped,key_resp_17.keys,key_resp_17.rt,key_resp_17.started,key_resp_17.stopped,text_83.started,text_83.stopped,text_60.started,text_60.stopped,image_2.started,image_2.stopped,text_58.started,text_58.stopped,key_resp_23.keys,key_resp_23.rt,key_resp_23.started,key_resp_23.stopped,text_62.started,text_62.stopped,key_resp_18.keys,key_resp_18.rt,key_resp_18.started,key_resp_18.stopped,text_84.started,text_84.stopped,question1_2.started,question1_2.stopped,question2_2.started,question2_2.stopped,question3_2.started,question3_2.stopped,question4_2.started,question4_2.stopped,question5_2.started,question5_2.stopped,question6_2.started,question6_2.stopped,image_15.started,image_15.stopped,key_resp.keys,key_resp.started,key_resp.stopped,text_59.started,text_59.stopped,key_resp_19.keys,key_resp_19.rt,key_resp_19.started,key_resp_19.stopped,text_85.started,text_85.stopped,text_61.started,text_61.stopped,image_17.started,image_17.stopped,text_63.started,text_63.stopped,key_resp_24.keys,key_resp_24.rt,key_resp_24.started,key_resp_24.stopped,participant,sA,sB,lA,lB,block_struct,play_stories,block,behavioral,random_seed,date,expName,psychopyVersion,frameRate,
0,,,,,,,,,,0,0,0,0,0,0,0,0,,,,,,,,,,,,,,,,,,,,,,,,,,,,,[33 24 23 34 13 43 14 44],[3 4 2 1 3 2 1 4],14.521844988999874,None,equal,27.601107686000432,14.521844988999874,None,27.628034467999896,14.521844988999874,None,14.521844988999874,None,0.00033590699968044646,5.9990375689994835,42.15166262399998,None,,,,,,,,,,,,,,,,,,,,,,,,,,,,,,,,,,,,,,,,,,,,,,,,,,,,,,,,,,,,,,,,,,,,,,,,,,,,,,,,,,,,,,021822,0,2,0,2,3,1,2,0,16,2022_Feb_18_1136,listening_fmri,3.2.4,59.8930702662268,
1,parcelated_audio/24/24_1.ogg,,,,,,,,,0,0,0,0,0,1,1,1,0,0,0,0,,,,,,,,,0,0,0,0,0,0,0,0,,,,,,,,,,,,,,,,,,,,,,,,,,48.15404320499965,None,48.15404320499965,None,1,1.2968632050005908,48.15404320499965,None,48.15404320499965,None,49.471153667999715,None,1,1.052854959000797,49.471153667999715,None,8.40815688299972,11.415763912999864,11.422508143999949,21.85653836399979,,,,,,,,,,,,,,,,,,,,,,,,,,,,,,,,,,,,,,,,,,,,,,,,,,,,,,,,,,,,,,,,,,021822,0,2,0,2,3,1,2,0,16,2022_Feb_18_1136,listening_fmri,3.2.4,59.8930702662268,
1,parcelated_audio/24/24_2.ogg,,,,,,,,,0,0,0,0,0,1,1,1,0,0,0,0,,,,,,,,,0,0,0,0,0,1,1,1,,,,,,,,,,,,,,,,,,,,,,,,,,,,,,,,,,,,,,,,,,,,21.857050268999956,28.181725299999925,,,,,,,,,,,,,,,,,,,,,,,,,,,,,,,,,,,,,,,,,,,,,,,,,,,,,,,,,,,,,,,,,,021822,0,2,0,2,3,1,2,0,16,2022_Feb_18_1136,listening_fmri,3.2.4,59.8930702662268,
1,parcelated_audio/24/24_3.ogg,,,,,,,,,0,0,0,0,0,1,1,1,0,0,0,0,,,,,,,,,0,0,0,0,0,2,2,2,,,,,,,,,,,,,,,,,,,,,,,,,,,,,,,,,,,,,,,,,,,,28.182281151999632,39.77501546299936,,,,,,,,,,,,,,,,,,,,,,,,,,,,,,,,,,,,,,,,,,,,,,,,,,,,,,,,,,,,,,,,,,021822,0,2,0,2,3,1,2,0,16,2022_Feb_18_1136,listening_fmri,3.2.4,59.8930702662268,
1,parcelated_audio/24/24_4.ogg,,,,,,,,,0,0,0,0,0,1,1,1,0,0,0,0,,,,,,,,,0,0,0,0,0,3,3,3,,,,,,,,,,,,,,,,,,,,,,,,,,,,,,,,,,,,,,,,,,,,39.77537702999962,46.678944668999975,,,,,,,,,,,,,,,,,,,,,,,,,,,,,,,,,,,,,,,,,,,,,,,,,,,,,,,,,,,,,,,,,,021822,0,2,0,2,3,1,2,0,16,2022_Feb_18_1136,listening_fmri,3.2.4,59.8930702662268,
1,parcelated_audio/24/24_5.ogg,,,,,,,,,0,0,0,0,0,1,1,1,0,0,0,0,,,,,,,,,0,0,0,0,0,4,4,4,,,,,,,,,,,,,,,,,,,,,,,,,,,,,,,,,,,,,,,,,,,,46.679300558999785,51.64988341099979,,,,,,,,,,,,,,,,,,,,,,,,,,,,,,,,,,,,,,,,,,,,,,,,,,,,,,,,,,,,,,,,,,021822,0,2,0,2,3,1,2,0,16,2022_Feb_18_1136,listening_fmri,3.2.4,59.8930702662268,
1,parcelated_audio/24/24_6.ogg,,,,,,,,,0,0,0,0,0,1,1,1,0,0,0,0,,,,,,,,,0,0,0,0,0,5,5,5,,,,,,,,,,,,,,,,,,,,,,,,,,,,,,,,,,,,,,,,,,,,51.650412234000214,59.1044309859999,,,,,,,,,,,,,,,,,,,,,,,,,,,,,,,,,,,,,,,,,,,,,,,,,,,,,,,,,,,,,,,,,,021822,0,2,0,2,3,1,2,0,16,2022_Feb_18_1136,listening_fmri,3.2.4,59.8930702662268,
1,parcelated_audio/24/24_7.ogg,,,,,,,,,0,0,0,0,0,1,1,1,0,0,0,0,,,,,,,,,0,0,0,0,0,6,6,6,,,,,,,,,,,,,,,,,,,,,,,,,,,,,,,,,,,,,,,,,,,,59.10482188599963,63.4854932369999,,,,,,,,,,,,,,,,,,,,,,,,,,,,,,,,,,,,,,,,,,,,,,,,,,,,,,,,,,,,,,,,,,021822,0,2,0,2,3,1,2,0,16,2022_Feb_18_1136,listening_fmri,3.2.4,59.8930702662268,
1,parcelated_audio/24/24_8.ogg,,,,,,,,,0,0,0,0,0,1,1,1,0,0,0,0,,,,,,,,,0,0,0,0,0,7,7,7,,,,,,,,,,,,,,,,,,,,,,,,,,,,,,,,,,,,,,,,,,,,63.48589997699946,69.5611317339999,,,,,,,,,,,,,,,,,,,,,,,,,,,,,,,,,,,,,,,,,,,,,,,,,,,,,,,,,,,,,,,,,,021822,0,2,0,2,3,1,2,0,16,2022_Feb_18_1136,listening_fmri,3.2.4,59.8930702662268,
1,parcelated_audio/24/24_9.ogg,,,,,,,,,0,0,0,0,0,1,1,1,0,0,0,0,,,,,,,,,0,0,0,0,0,8,8,8,,,,,,,,,,,,,,,,,,,,,,,,,,,,,,,,,,,,,,,,,,,,69.56157545699989,73.88769017999948,,,,,,,,,,,,,,,,,,,,,,,,,,,,,,,,,,,,,,,,,,,,,,,,,,,,,,,,,,,,,,,,,,021822,0,2,0,2,3,1,2,0,16,2022_Feb_18_1136,listening_fmri,3.2.4,59.8930702662268,
1,parcelated_audio/24/24_10.ogg,,,,,,,,,0,0,0,0,0,1,1,1,0,0,0,0,,,,,,,,,0,0,0,0,0,9,9,9,,,,,,,,,,,,,,,,,,,,,,,,,,,,,,,,,,,,,,,,,,,,73.88794903799953,77.62109997599964,,,,,,,,,,,,,,,,,,,,,,,,,,,,,,,,,,,,,,,,,,,,,,,,,,,,,,,,,,,,,,,,,,021822,0,2,0,2,3,1,2,0,16,2022_Feb_18_1136,listening_fmri,3.2.4,59.8930702662268,
1,parcelated_audio/24/24_11.ogg,,,,,,,,,0,0,0,0,0,1,1,1,0,0,0,0,,,,,,,,,0,0,0,0,0,10,10,10,,,,,,,,,,,,,,,,,,,,,,,,,,,,,,,,,,,,,,,,,,,,77.62167318199954,87.73883416999979,,,,,,,,,,,,,,,,,,,,,,,,,,,,,,,,,,,,,,,,,,,,,,,,,,,,,,,,,,,,,,,,,,021822,0,2,0,2,3,1,2,0,16,2022_Feb_18_1136,listening_fmri,3.2.4,59.8930702662268,
1,parcelated_audio/24/24_12.ogg,,,,,,,,,0,0,0,0,0,1,1,1,0,0,0,0,,,,,,,,,0,0,0,0,0,11,11,11,,,,,,,,,,,,,,,,,,,,,,,,,,,,,,,,,,,,,,,,,,,,87.73918904199945,96.82155163799962,,,,,,,,,,,,,,,,,,,,,,,,,,,,,,,,,,,,,,,,,,,,,,,,,,,,,,,,,,,,,,,,,,021822,0,2,0,2,3,1,2,0,16,2022_Feb_18_1136,listening_fmri,3.2.4,59.8930702662268,
1,parcelated_audio/24/24_13.ogg,,,,,,,,,0,0,0,0,0,1,1,1,0,0,0,0,,,,,,,,,0,0,0,0,0,12,12,12,,,,,,,,,,,,,,,,,,,,,,,,,,,,,,,,,,,,,,,,,,,,96.82185803199991,100.79760741999962,,,,,,,,,,,,,,,,,,,,,,,,,,,,,,,,,,,,,,,,,,,,,,,,,,,,,,,,,,,,,,,,,,021822,0,2,0,2,3,1,2,0,16,2022_Feb_18_1136,listening_fmri,3.2.4,59.8930702662268,
1,parcelated_audio/24/24_14.ogg,,,,,,,,,0,0,0,0,0,1,1,1,0,0,0,0,,,,,,,,,0,0,0,0,0,13,13,13,,,,,,,,,,,,,,,,,,,,,,,,,,,,,,,,,,,,,,,,,,,,100.7981778659996,108.18485292100013,,,,,,,,,,,,,,,,,,,,,,,,,,,,,,,,,,,,,,,,,,,,,,,,,,,,,,,,,,,,,,,,,,021822,0,2,0,2,3,1,2,0,16,2022_Feb_18_1136,listening_fmri,3.2.4,59.8930702662268,
1,parcelated_audio/24/24_15.ogg,,,,,,,,,0,0,0,0,0,1,1,1,0,0,0,0,,,,,,,,,0,0,0,0,0,14,14,14,,,,,,,,,,,,,,,,,,,,,,,,,,,,,,,,,,,,,,,,,,,,108.18530028799978,114.7148958050002,,,,,,,,,,,,,,,,,,,,,,,,,,,,,,,,,,,,,,,,,,,,,,,,,,,,,,,,,,,,,,,,,,021822,0,2,0,2,3,1,2,0,16,2022_Feb_18_1136,listening_fmri,3.2.4,59.8930702662268,
1,parcelated_audio/24/24_16.ogg,,,,,,,,,0,0,0,0,0,1,1,1,0,0,0,0,,,,,,,,,0,0,0,0,0,15,15,15,,,,,,,,,,,,,,,,,,,,,,,,,,,,,,,,,,,,,,,,,,,,114.7154437299996,121.89898066899968,,,,,,,,,,,,,,,,,,,,,,,,,,,,,,,,,,,,,,,,,,,,,,,,,,,,,,,,,,,,,,,,,,021822,0,2,0,2,3,1,2,0,16,2022_Feb_18_1136,listening_fmri,3.2.4,59.8930702662268,
1,parcelated_audio/24/24_17.ogg,,,,,,,,,0,0,0,0,0,1,1,1,0,0,0,0,,,,,,,,,0,0,0,0,0,16,16,16,,,,,,,,,,,,,,,,,,,,,,,,,,,,,,,,,,,,,,,,,,,,121.89933893699981,127.8936889229999,,,,,,,,,,,,,,,,,,,,,,,,,,,,,,,,,,,,,,,,,,,,,,,,,,,,,,,,,,,,,,,,,,021822,0,2,0,2,3,1,2,0,16,2022_Feb_18_1136,listening_fmri,3.2.4,59.8930702662268,
1,parcelated_audio/24/24_18.ogg,,,,,,,,,0,0,0,0,0,1,1,1,0,0,0,0,,,,,,,,,0,0,0,0,0,17,17,17,,,,,,,,,,,,,,,,,,,,,,,,,,,,,,,,,,,,,,,,,,,,127.89405219499986,136.34160893699936,,,,,,,,,,,,,,,,,,,,,,,,,,,,,,,,,,,,,,,,,,,,,,,,,,,,,,,,,,,,,,,,,,021822,0,2,0,2,3,1,2,0,16,2022_Feb_18_1136,listening_fmri,3.2.4,59.8930702662268,
1,parcelated_audio/24/24_19.ogg,,,,,,,,,0,0,0,0,0,1,1,1,0,0,0,0,,,,,,,,,0,0,0,0,0,18,18,18,,,,,,,,,,,,,,,,,,,,,,,,,,,,,,,,,,,,,,,,,,,,136.34302485399985,145.96983212399937,,,,,,,,,,,,,,,,,,,,,,,,,,,,,,,,,,,,,,,,,,,,,,,,,,,,,,,,,,,,,,,,,,021822,0,2,0,2,3,1,2,0,16,2022_Feb_18_1136,listening_fmri,3.2.4,59.8930702662268,
1,parcelated_audio/24/24_20.ogg,,,,,,,,,0,0,0,0,0,1,1,1,0,0,0,0,,,,,,,,,0,0,0,0,0,19,19,19,,,,,,,,,,,,,,,,,,,,,,,,,,,,,,,,,,,,,,,,,,,,145.97036815399952,150.46682748999956,,,,,,,,,,,,,,,,,,,,,,,,,,,,,,,,,,,,,,,,,,,,,,,,,,,,,,,,,,,,,,,,,,021822,0,2,0,2,3,1,2,0,16,2022_Feb_18_1136,listening_fmri,3.2.4,59.8930702662268,
1,parcelated_audio/24/24_21.ogg,,,,,,,,,0,0,0,0,0,1,1,1,0,0,0,0,,,,,,,,,0,0,0,0,0,20,20,20,,,,,,,,,,,,,,,,,,,,,,,,,,,,,,,,,,,,,,,,,,,,150.4671775830002,158.4862181239996,,,,,,,,,,,,,,,,,,,,,,,,,,,,,,,,,,,,,,,,,,,,,,,,,,,,,,,,,,,,,,,,,,021822,0,2,0,2,3,1,2,0,16,2022_Feb_18_1136,listening_fmri,3.2.4,59.8930702662268,
1,parcelated_audio/24/24_22.ogg,,,,,,,,,0,0,0,0,0,1,1,1,0,0,0,0,,,,,,,,,0,0,0,0,0,21,21,21,,,,,,,,,,,,,,,,,,,,,,,,,,,,,,,,,,,,,,,,,,,,158.48649073700017,169.07100732900017,,,,,,,,,,,,,,,,,,,,,,,,,,,,,,,,,,,,,,,,,,,,,,,,,,,,,,,,,,,,,,,,,,021822,0,2,0,2,3,1,2,0,16,2022_Feb_18_1136,listening_fmri,3.2.4,59.8930702662268,
1,parcelated_audio/24/24_23.ogg,,,,,,,,,0,0,0,0,0,1,1,1,0,0,0,0,,,,,,,,,0,0,0,0,0,22,22,22,,,,,,,,,,,,,,,,,,,,,,,,,,,,,,,,,,,,,,,,,,,,169.07135503100017,179.27231050799946,,,,,,,,,,,,,,,,,,,,,,,,,,,,,,,,,,,,,,,,,,,,,,,,,,,,,,,,,,,,,,,,,,021822,0,2,0,2,3,1,2,0,16,2022_Feb_18_1136,listening_fmri,3.2.4,59.8930702662268,
1,parcelated_audio/24/24_24.ogg,,,,,,,,,0,0,0,0,0,1,1,1,0,0,0,0,,,,,,,,,0,0,0,0,0,23,23,23,,,,,,,,,,,,,,,,,,,,,,,,,,,,,,,,,,,,,,,,,,,,179.2733372169996,185.858029901,,,,,,,,,,,,,,,,,,,,,,,,,,,,,,,,,,,,,,,,,,,,,,,,,,,,,,,,,,,,,,,,,,021822,0,2,0,2,3,1,2,0,16,2022_Feb_18_1136,listening_fmri,3.2.4,59.8930702662268,
1,parcelated_audio/24/24_25.ogg,,,,,,,,,0,0,0,0,0,1,1,1,0,0,0,0,,,,,,,,,0,0,0,0,0,24,24,24,,,,,,,,,,,,,,,,,,,,,,,,,,,,,,,,,,,,,,,,,,,,185.85859930100014,194.59101197400014,,,,,,,,,,,,,,,,,,,,,,,,,,,,,,,,,,,,,,,,,,,,,,,,,,,,,,,,,,,,,,,,,,021822,0,2,0,2,3,1,2,0,16,2022_Feb_18_1136,listening_fmri,3.2.4,59.8930702662268,
1,parcelated_audio/24/24_26.ogg,,,,,,,,,0,0,0,0,0,1,1,1,0,0,0,0,,,,,,,,,0,0,0,0,0,25,25,25,,,,,,,,,,,,,,,,,,,,,,,,,,,,,,,,,,,,,,,,,,,,194.59158304599987,201.16108548600005,,,,,,,,,,,,,,,,,,,,,,,,,,,,,,,,,,,,,,,,,,,,,,,,,,,,,,,,,,,,,,,,,,021822,0,2,0,2,3,1,2,0,16,2022_Feb_18_1136,listening_fmri,3.2.4,59.8930702662268,
1,parcelated_audio/24/24_27.ogg,,,,,,,,,0,0,0,0,0,1,1,1,0,0,0,0,,,,,,,,,0,0,0,0,0,26,26,26,,,,,,,,,,,,,,,,,,,,,,,,,,,,,,,,,,,,,,,,,,,,201.16165453399935,207.33025240299958,,,,,,,,,,,,,,,,,,,,,,,,,,,,,,,,,,,,,,,,,,,,,,,,,,,,,,,,,,,,,,,,,,021822,0,2,0,2,3,1,2,0,16,2022_Feb_18_1136,listening_fmri,3.2.4,59.8930702662268,
1,parcelated_audio/24/24_28.ogg,,,,,,,,,0,0,0,0,0,1,1,1,0,0,0,0,,,,,,,,,0,0,0,0,0,27,27,27,,,,,,,,,,,,,,,,,,,,,,,,,,,,,,,,,,,,,,,,,,,,207.3305961219994,211.82002595299946,,,,,,,,,,,,,,,,,,,,,,,,,,,,,,,,,,,,,,,,,,,,,,,,,,,,,,,,,,,,,,,,,,021822,0,2,0,2,3,1,2,0,16,2022_Feb_18_1136,listening_fmri,3.2.4,59.8930702662268,
1,parcelated_audio/24/24_29.ogg,,,,,,,,,0,0,0,0,0,1,1,1,0,0,0,0,,,,,,,,,0,0,0,0,0,28,28,28,,,,,,,,,,,,,,,,,,,,,,,,,,,,,,,,,,,,,,,,,,,,211.82138245399983,218.20574895800019,,,,,,,,,,,,,,,,,,,,,,,,,,,,,,,,,,,,,,,,,,,,,,,,,,,,,,,,,,,,,,,,,,021822,0,2,0,2,3,1,2,0,16,2022_Feb_18_1136,listening_fmri,3.2.4,59.8930702662268,
1,parcelated_audio/24/24_30.ogg,,,,,,,,,0,0,0,0,0,1,1,1,0,0,0,0,,,,,,,,,0,0,0,0,0,29,29,29,,,,,,,,,,,,,,,,,,,,,,,,,,,,,,,,,,,,,,,,,,,,218.2060907089999,224.46686464199956,,,,,,,,,,,,,,,,,,,,,,,,,,,,,,,,,,,,,,,,,,,,,,,,,,,,,,,,,,,,,,,,,,021822,0,2,0,2,3,1,2,0,16,2022_Feb_18_1136,listening_fmri,3.2.4,59.8930702662268,
1,parcelated_audio/24/24_31.ogg,,,,,,,,,0,0,0,0,0,1,1,1,0,0,0,0,,,,,,,,,0,0,0,0,0,30,30,30,,,,,,,,,,,,,,,,,,,,,,,,,,,,,,,,,,,,,,,,,,,,224.46721790499942,231.13605822699992,,,,,,,,,,,,,,,,,,,,,,,,,,,,,,,,,,,,,,,,,,,,,,,,,,,,,,,,,,,,,,,,,,021822,0,2,0,2,3,1,2,0,16,2022_Feb_18_1136,listening_fmri,3.2.4,59.8930702662268,
1,parcelated_audio/24/24_32.ogg,,,,,,,,,0,0,0,0,0,1,1,1,0,0,0,0,,,,,,,,,0,0,0,0,0,31,31,31,,,,,,,,,,,,,,,,,,,,,,,,,,,,,,,,,,,,,,,,,,,,231.1366451619997,241.92098695999994,,,,,,,,,,,,,,,,,,,,,,,,,,,,,,,,,,,,,,,,,,,,,,,,,,,,,,,,,,,,,,,,,,021822,0,2,0,2,3,1,2,0,16,2022_Feb_18_1136,listening_fmri,3.2.4,59.8930702662268,
1,,,,,,,,,,0,0,0,0,0,1,1,1,0,0,0,0,,,,,,,,,0,0,0,0,,,,,,,,,,,,,,,,,,,,,,,,,,,,,,,,,,,,,,,,,,,,,,,,,,,,,,,,,,,,,,,,,,,,,,,,,,,,,,,,,,,,,,,,,,,,,,,,,,,,,,,,,,,,,,,,,,,021822,0,2,0,2,3,1,2,0,16,2022_Feb_18_1136,listening_fmri,3.2.4,59.8930702662268,
1,,,,,,,,,,0,0,0,0,0,1,1,1,0,0,0,0,,,,,,,,,,,,,,,,,,,,,,,,,,,,,,,,,,,,,,241.9214784119995,247.91692881299969,284.0680083339994,None,,,,,,,,,,,,,,,,,,,,,290.06845267300014,None,290.06845267300014,None,,,,,,,,,,,,,,,,,,,,,,,,,,,,,,,,,,,,,,,,,,,,,,,,,,,,,,,,,,,,,,021822,0,2,0,2,3,1,2,0,16,2022_Feb_18_1136,listening_fmri,3.2.4,59.8930702662268,
1,,,,,,,,,,0,0,0,0,0,1,1,1,,,,,,,,,,,,,,,,,,,,,,,,,,,,,,,,,,,,,,,,,,,,,,,,,,,,,,,,,,,,,,,,,,,,,,,,,,,,,,,,,,,,,,,,,,,,,,,,,,,,,,,,,,,,,,,,,,,,,,,,,,,,,,,,,,,021822,0,2,0,2,3,1,2,0,16,2022_Feb_18_1136,listening_fmri,3.2.4,59.8930702662268,
2,,,,,,,,,,0,0,0,0,0,2,2,2,0,0,0,0,0,0,0,0,,,,,,,,,,,,,,,,,0,0,0,0,,,,,,,,,,,,,,,,,,291.06797505600025,None,291.06797505600025,None,6,4.554024428000048,291.06797505600025,None,291.06797505600025,None,,,,,,,,,,,,,,,295.651422379,None,6,0.8174356130002707,295.651422379,None,295.651422379,None,296.5179671400001,None,296.5179671400001,None,296.5179671400001,None,6,0.8230315780001547,296.5179671400001,None,297.3685548249996,None,6,0.9123980140002459,297.3685548249996,None,297.3685548249996,None,298.43421586800014,None,298.43421586800014,None,298.43421586800014,None,298.43421586800014,None,298.43421586800014,None,298.43421586800014,None,298.43421586800014,None,None,298.43421586800014,None,,,,,,,,,,,,,,,,,,,021822,0,2,0,2,3,1,2,0,16,2022_Feb_18_1136,listening_fmri,3.2.4,59.8930702662268,
2,,,,,,,,,,0,0,0,0,0,2,2,2,0,0,0,0,0,0,0,0,,,,,,,,,,,,,,,,,1,0,1,0,,,,,,,,,,,,,,,,,,,,,,,,,,,,,,,,,,,,,,,,,,,,,,,,,,314.0347313259999,None,314.0347313259999,None,314.0347313259999,None,6,0.7962612709998211,314.0347313259999,None,314.85121168600017,None,6,0.5377782549994663,314.85121168600017,None,314.85121168600017,None,315.501205134,None,315.501205134,None,315.501205134,None,315.501205134,None,315.501205134,None,315.501205134,None,315.501205134,None,None,315.501205134,None,,,,,,,,,,,,,,,,,,,021822,0,2,0,2,3,1,2,0,16,2022_Feb_18_1136,listening_fmri,3.2.4,59.8930702662268,
2,,,,,,,,,,0,0,0,0,0,2,2,2,0,0,0,0,0,0,0,0,,,,,,,,,,,,,,,,,,,,,,,,,,,,,,,,,,,,,,,,,,,,,,,,,,,,,,,,,,,,,,,,,,,,,,,,,,,,,,,,,,,,,,,,,,,,,,,,,,,,,,,,,343.7346268649999,None,1,1.1683687539998573,343.7346268649999,None,343.7346268649999,None,344.95058393599993,None,344.95058393599993,None,344.95058393599993,None,1,0.5704167719995894,344.95058393599993,None,021822,0,2,0,2,3,1,2,0,16,2022_Feb_18_1136,listening_fmri,3.2.4,59.8930702662268,
2,parcelated_audio/23/23_1.ogg,,,,,,,,,0,0,0,0,0,2,2,2,0,0,0,0,,,,,,,,,0,0,0,0,0,0,0,0,,,,,,,,,,,,,,,,,,,,,,,,,,,,,,,,,,,,345.55089058700014,None,1,0.819106035999539,345.55089058700014,None,304.2928942689996,307.298912577,307.3051975970002,317.70152217600025,,,,,,,,,,,,,,,,,,,,,,,,,,,,,,,,,,,,,,,,,,,,,,,,,,,,,,,,,,,,,,,,,,021822,0,2,0,2,3,1,2,0,16,2022_Feb_18_1136,listening_fmri,3.2.4,59.8930702662268,
2,parcelated_audio/23/23_2.ogg,,,,,,,,,0,0,0,0,0,2,2,2,0,0,0,0,,,,,,,,,0,0,0,0,0,1,1,1,,,,,,,,,,,,,,,,,,,,,,,,,,,,,,,,,,,,,,,,,,,,317.70301327299967,324.5810574669995,,,,,,,,,,,,,,,,,,,,,,,,,,,,,,,,,,,,,,,,,,,,,,,,,,,,,,,,,,,,,,,,,,021822,0,2,0,2,3,1,2,0,16,2022_Feb_18_1136,listening_fmri,3.2.4,59.8930702662268,
2,parcelated_audio/23/23_3.ogg,,,,,,,,,0,0,0,0,0,2,2,2,0,0,0,0,,,,,,,,,0,0,0,0,0,2,2,2,,,,,,,,,,,,,,,,,,,,,,,,,,,,,,,,,,,,,,,,,,,,324.5813412110001,330.3521619129997,,,,,,,,,,,,,,,,,,,,,,,,,,,,,,,,,,,,,,,,,,,,,,,,,,,,,,,,,,,,,,,,,,021822,0,2,0,2,3,1,2,0,16,2022_Feb_18_1136,listening_fmri,3.2.4,59.8930702662268,
2,parcelated_audio/23/23_4.ogg,,,,,,,,,0,0,0,0,0,2,2,2,0,0,0,0,,,,,,,,,0,0,0,0,0,3,3,3,,,,,,,,,,,,,,,,,,,,,,,,,,,,,,,,,,,,,,,,,,,,330.3525270909995,341.6210938719996,,,,,,,,,,,,,,,,,,,,,,,,,,,,,,,,,,,,,,,,,,,,,,,,,,,,,,,,,,,,,,,,,,021822,0,2,0,2,3,1,2,0,16,2022_Feb_18_1136,listening_fmri,3.2.4,59.8930702662268,
2,parcelated_audio/23/23_5.ogg,,,,,,,,,0,0,0,0,0,2,2,2,0,0,0,0,,,,,,,,,0,0,0,0,0,4,4,4,,,,,,,,,,,,,,,,,,,,,,,,,,,,,,,,,,,,,,,,,,,,341.6216210579996,347.8349819699997,,,,,,,,,,,,,,,,,,,,,,,,,,,,,,,,,,,,,,,,,,,,,,,,,,,,,,,,,,,,,,,,,,021822,0,2,0,2,3,1,2,0,16,2022_Feb_18_1136,listening_fmri,3.2.4,59.8930702662268,
2,parcelated_audio/23/23_6.ogg,,,,,,,,,0,0,0,0,0,2,2,2,0,0,0,0,,,,,,,,,0,0,0,0,0,5,5,5,,,,,,,,,,,,,,,,,,,,,,,,,,,,,,,,,,,,,,,,,,,,347.8353357569995,355.248302512,,,,,,,,,,,,,,,,,,,,,,,,,,,,,,,,,,,,,,,,,,,,,,,,,,,,,,,,,,,,,,,,,,021822,0,2,0,2,3,1,2,0,16,2022_Feb_18_1136,listening_fmri,3.2.4,59.8930702662268,
2,parcelated_audio/23/23_7.ogg,,,,,,,,,0,0,0,0,0,2,2,2,0,0,0,0,,,,,,,,,0,0,0,0,0,6,6,6,,,,,,,,,,,,,,,,,,,,,,,,,,,,,,,,,,,,,,,,,,,,355.24865905800016,362.0162264159999,,,,,,,,,,,,,,,,,,,,,,,,,,,,,,,,,,,,,,,,,,,,,,,,,,,,,,,,,,,,,,,,,,021822,0,2,0,2,3,1,2,0,16,2022_Feb_18_1136,listening_fmri,3.2.4,59.8930702662268,
2,parcelated_audio/23/23_8.ogg,,,,,,,,,0,0,0,0,0,2,2,2,0,0,0,0,,,,,,,,,0,0,0,0,0,7,7,7,,,,,,,,,,,,,,,,,,,,,,,,,,,,,,,,,,,,,,,,,,,,362.01676530700024,367.41889048600024,,,,,,,,,,,,,,,,,,,,,,,,,,,,,,,,,,,,,,,,,,,,,,,,,,,,,,,,,,,,,,,,,,021822,0,2,0,2,3,1,2,0,16,2022_Feb_18_1136,listening_fmri,3.2.4,59.8930702662268,
2,parcelated_audio/23/23_9.ogg,,,,,,,,,0,0,0,0,0,2,2,2,0,0,0,0,,,,,,,,,0,0,0,0,0,8,8,8,,,,,,,,,,,,,,,,,,,,,,,,,,,,,,,,,,,,,,,,,,,,367.41924353000013,371.8003698399998,,,,,,,,,,,,,,,,,,,,,,,,,,,,,,,,,,,,,,,,,,,,,,,,,,,,,,,,,,,,,,,,,,021822,0,2,0,2,3,1,2,0,16,2022_Feb_18_1136,listening_fmri,3.2.4,59.8930702662268,
2,parcelated_audio/23/23_10.ogg,,,,,,,,,0,0,0,0,0,2,2,2,0,0,0,0,,,,,,,,,0,0,0,0,0,9,9,9,,,,,,,,,,,,,,,,,,,,,,,,,,,,,,,,,,,,,,,,,,,,371.8007383759996,375.85346582199963,,,,,,,,,,,,,,,,,,,,,,,,,,,,,,,,,,,,,,,,,,,,,,,,,,,,,,,,,,,,,,,,,,021822,0,2,0,2,3,1,2,0,16,2022_Feb_18_1136,listening_fmri,3.2.4,59.8930702662268,
2,parcelated_audio/23/23_11.ogg,,,,,,,,,0,0,0,0,0,2,2,2,0,0,0,0,,,,,,,,,0,0,0,0,0,10,10,10,,,,,,,,,,,,,,,,,,,,,,,,,,,,,,,,,,,,,,,,,,,,375.853821228,383.97606511399954,,,,,,,,,,,,,,,,,,,,,,,,,,,,,,,,,,,,,,,,,,,,,,,,,,,,,,,,,,,,,,,,,,021822,0,2,0,2,3,1,2,0,16,2022_Feb_18_1136,listening_fmri,3.2.4,59.8930702662268,
2,parcelated_audio/23/23_12.ogg,,,,,,,,,0,0,0,0,0,2,2,2,0,0,0,0,,,,,,,,,0,0,0,0,0,11,11,11,,,,,,,,,,,,,,,,,,,,,,,,,,,,,,,,,,,,,,,,,,,,383.9765459829996,391.1150868369996,,,,,,,,,,,,,,,,,,,,,,,,,,,,,,,,,,,,,,,,,,,,,,,,,,,,,,,,,,,,,,,,,,021822,0,2,0,2,3,1,2,0,16,2022_Feb_18_1136,listening_fmri,3.2.4,59.8930702662268,
2,parcelated_audio/23/23_13.ogg,,,,,,,,,0,0,0,0,0,2,2,2,0,0,0,0,,,,,,,,,0,0,0,0,0,12,12,12,,,,,,,,,,,,,,,,,,,,,,,,,,,,,,,,,,,,,,,,,,,,391.1154491979996,397.8920597719998,,,,,,,,,,,,,,,,,,,,,,,,,,,,,,,,,,,,,,,,,,,,,,,,,,,,,,,,,,,,,,,,,,021822,0,2,0,2,3,1,2,0,16,2022_Feb_18_1136,listening_fmri,3.2.4,59.8930702662268,
2,parcelated_audio/23/23_14.ogg,,,,,,,,,0,0,0,0,0,2,2,2,0,0,0,0,,,,,,,,,0,0,0,0,0,13,13,13,,,,,,,,,,,,,,,,,,,,,,,,,,,,,,,,,,,,,,,,,,,,397.89241676799975,402.26940734599975,,,,,,,,,,,,,,,,,,,,,,,,,,,,,,,,,,,,,,,,,,,,,,,,,,,,,,,,,,,,,,,,,,021822,0,2,0,2,3,1,2,0,16,2022_Feb_18_1136,listening_fmri,3.2.4,59.8930702662268,
2,parcelated_audio/23/23_15.ogg,,,,,,,,,0,0,0,0,0,2,2,2,0,0,0,0,,,,,,,,,0,0,0,0,0,14,14,14,,,,,,,,,,,,,,,,,,,,,,,,,,,,,,,,,,,,,,,,,,,,402.2697436489998,406.6980727729997,,,,,,,,,,,,,,,,,,,,,,,,,,,,,,,,,,,,,,,,,,,,,,,,,,,,,,,,,,,,,,,,,,021822,0,2,0,2,3,1,2,0,16,2022_Feb_18_1136,listening_fmri,3.2.4,59.8930702662268,
2,parcelated_audio/23/23_16.ogg,,,,,,,,,0,0,0,0,0,2,2,2,0,0,0,0,,,,,,,,,0,0,0,0,0,15,15,15,,,,,,,,,,,,,,,,,,,,,,,,,,,,,,,,,,,,,,,,,,,,406.6989221650001,413.2790293319995,,,,,,,,,,,,,,,,,,,,,,,,,,,,,,,,,,,,,,,,,,,,,,,,,,,,,,,,,,,,,,,,,,021822,0,2,0,2,3,1,2,0,16,2022_Feb_18_1136,listening_fmri,3.2.4,59.8930702662268,
2,parcelated_audio/23/23_17.ogg,,,,,,,,,0,0,0,0,0,2,2,2,0,0,0,0,,,,,,,,,0,0,0,0,0,16,16,16,,,,,,,,,,,,,,,,,,,,,,,,,,,,,,,,,,,,,,,,,,,,413.2793871519998,420.02002541299953,,,,,,,,,,,,,,,,,,,,,,,,,,,,,,,,,,,,,,,,,,,,,,,,,,,,,,,,,,,,,,,,,,021822,0,2,0,2,3,1,2,0,16,2022_Feb_18_1136,listening_fmri,3.2.4,59.8930702662268,
2,parcelated_audio/23/23_18.ogg,,,,,,,,,0,0,0,0,0,2,2,2,0,0,0,0,,,,,,,,,0,0,0,0,0,17,17,17,,,,,,,,,,,,,,,,,,,,,,,,,,,,,,,,,,,,,,,,,,,,420.0205366829996,432.0043078339995,,,,,,,,,,,,,,,,,,,,,,,,,,,,,,,,,,,,,,,,,,,,,,,,,,,,,,,,,,,,,,,,,,021822,0,2,0,2,3,1,2,0,16,2022_Feb_18_1136,listening_fmri,3.2.4,59.8930702662268,
2,parcelated_audio/23/23_19.ogg,,,,,,,,,0,0,0,0,0,2,2,2,0,0,0,0,,,,,,,,,0,0,0,0,0,18,18,18,,,,,,,,,,,,,,,,,,,,,,,,,,,,,,,,,,,,,,,,,,,,432.0046554599994,437.7737145229994,,,,,,,,,,,,,,,,,,,,,,,,,,,,,,,,,,,,,,,,,,,,,,,,,,,,,,,,,,,,,,,,,,021822,0,2,0,2,3,1,2,0,16,2022_Feb_18_1136,listening_fmri,3.2.4,59.8930702662268,
2,parcelated_audio/23/23_20.ogg,,,,,,,,,0,0,0,0,0,2,2,2,0,0,0,0,,,,,,,,,0,0,0,0,0,19,19,19,,,,,,,,,,,,,,,,,,,,,,,,,,,,,,,,,,,,,,,,,,,,437.7741358429994,440.6469006589996,,,,,,,,,,,,,,,,,,,,,,,,,,,,,,,,,,,,,,,,,,,,,,,,,,,,,,,,,,,,,,,,,,021822,0,2,0,2,3,1,2,0,16,2022_Feb_18_1136,listening_fmri,3.2.4,59.8930702662268,
2,parcelated_audio/23/23_21.ogg,,,,,,,,,0,0,0,0,0,2,2,2,0,0,0,0,,,,,,,,,0,0,0,0,0,20,20,20,,,,,,,,,,,,,,,,,,,,,,,,,,,,,,,,,,,,,,,,,,,,440.6472308479997,448.3211092800002,,,,,,,,,,,,,,,,,,,,,,,,,,,,,,,,,,,,,,,,,,,,,,,,,,,,,,,,,,,,,,,,,,021822,0,2,0,2,3,1,2,0,16,2022_Feb_18_1136,listening_fmri,3.2.4,59.8930702662268,
2,parcelated_audio/23/23_22.ogg,,,,,,,,,0,0,0,0,0,2,2,2,0,0,0,0,,,,,,,,,0,0,0,0,0,21,21,21,,,,,,,,,,,,,,,,,,,,,,,,,,,,,,,,,,,,,,,,,,,,448.3214672489994,450.9759111809999,,,,,,,,,,,,,,,,,,,,,,,,,,,,,,,,,,,,,,,,,,,,,,,,,,,,,,,,,,,,,,,,,,021822,0,2,0,2,3,1,2,0,16,2022_Feb_18_1136,listening_fmri,3.2.4,59.8930702662268,
2,parcelated_audio/23/23_23.ogg,,,,,,,,,0,0,0,0,0,2,2,2,0,0,0,0,,,,,,,,,0,0,0,0,0,22,22,22,,,,,,,,,,,,,,,,,,,,,,,,,,,,,,,,,,,,,,,,,,,,450.9762522589999,455.13885740299975,,,,,,,,,,,,,,,,,,,,,,,,,,,,,,,,,,,,,,,,,,,,,,,,,,,,,,,,,,,,,,,,,,021822,0,2,0,2,3,1,2,0,16,2022_Feb_18_1136,listening_fmri,3.2.4,59.8930702662268,
2,parcelated_audio/23/23_24.ogg,,,,,,,,,0,0,0,0,0,2,2,2,0,0,0,0,,,,,,,,,0,0,0,0,0,23,23,23,,,,,,,,,,,,,,,,,,,,,,,,,,,,,,,,,,,,,,,,,,,,455.13920847699956,458.5839334679995,,,,,,,,,,,,,,,,,,,,,,,,,,,,,,,,,,,,,,,,,,,,,,,,,,,,,,,,,,,,,,,,,,021822,0,2,0,2,3,1,2,0,16,2022_Feb_18_1136,listening_fmri,3.2.4,59.8930702662268,
2,parcelated_audio/23/23_25.ogg,,,,,,,,,0,0,0,0,0,2,2,2,0,0,0,0,,,,,,,,,0,0,0,0,0,24,24,24,,,,,,,,,,,,,,,,,,,,,,,,,,,,,,,,,,,,,,,,,,,,458.584278112,462.731592397,,,,,,,,,,,,,,,,,,,,,,,,,,,,,,,,,,,,,,,,,,,,,,,,,,,,,,,,,,,,,,,,,,021822,0,2,0,2,3,1,2,0,16,2022_Feb_18_1136,listening_fmri,3.2.4,59.8930702662268,
2,parcelated_audio/23/23_26.ogg,,,,,,,,,0,0,0,0,0,2,2,2,0,0,0,0,,,,,,,,,0,0,0,0,0,25,25,25,,,,,,,,,,,,,,,,,,,,,,,,,,,,,,,,,,,,,,,,,,,,462.73216098800003,468.9867284379998,,,,,,,,,,,,,,,,,,,,,,,,,,,,,,,,,,,,,,,,,,,,,,,,,,,,,,,,,,,,,,,,,,021822,0,2,0,2,3,1,2,0,16,2022_Feb_18_1136,listening_fmri,3.2.4,59.8930702662268,
2,parcelated_audio/23/23_27.ogg,,,,,,,,,0,0,0,0,0,2,2,2,0,0,0,0,,,,,,,,,0,0,0,0,0,26,26,26,,,,,,,,,,,,,,,,,,,,,,,,,,,,,,,,,,,,,,,,,,,,468.9871852589995,474.25173226900006,,,,,,,,,,,,,,,,,,,,,,,,,,,,,,,,,,,,,,,,,,,,,,,,,,,,,,,,,,,,,,,,,,021822,0,2,0,2,3,1,2,0,16,2022_Feb_18_1136,listening_fmri,3.2.4,59.8930702662268,
2,parcelated_audio/23/23_28.ogg,,,,,,,,,0,0,0,0,0,2,2,2,0,0,0,0,,,,,,,,,0,0,0,0,0,27,27,27,,,,,,,,,,,,,,,,,,,,,,,,,,,,,,,,,,,,,,,,,,,,474.2520863139998,482.2035971639998,,,,,,,,,,,,,,,,,,,,,,,,,,,,,,,,,,,,,,,,,,,,,,,,,,,,,,,,,,,,,,,,,,021822,0,2,0,2,3,1,2,0,16,2022_Feb_18_1136,listening_fmri,3.2.4,59.8930702662268,
2,parcelated_audio/23/23_29.ogg,,,,,,,,,0,0,0,0,0,2,2,2,0,0,0,0,,,,,,,,,0,0,0,0,0,28,28,28,,,,,,,,,,,,,,,,,,,,,,,,,,,,,,,,,,,,,,,,,,,,482.2040240259994,485.9541805439994,,,,,,,,,,,,,,,,,,,,,,,,,,,,,,,,,,,,,,,,,,,,,,,,,,,,,,,,,,,,,,,,,,021822,0,2,0,2,3,1,2,0,16,2022_Feb_18_1136,listening_fmri,3.2.4,59.8930702662268,
2,parcelated_audio/23/23_30.ogg,,,,,,,,,0,0,0,0,0,2,2,2,0,0,0,0,,,,,,,,,0,0,0,0,0,29,29,29,,,,,,,,,,,,,,,,,,,,,,,,,,,,,,,,,,,,,,,,,,,,485.9545438639998,491.8611274249997,,,,,,,,,,,,,,,,,,,,,,,,,,,,,,,,,,,,,,,,,,,,,,,,,,,,,,,,,,,,,,,,,,021822,0,2,0,2,3,1,2,0,16,2022_Feb_18_1136,listening_fmri,3.2.4,59.8930702662268,
2,parcelated_audio/23/23_31.ogg,,,,,,,,,0,0,0,0,0,2,2,2,0,0,0,0,,,,,,,,,0,0,0,0,0,30,30,30,,,,,,,,,,,,,,,,,,,,,,,,,,,,,,,,,,,,,,,,,,,,491.86147653699936,493.86933551199945,,,,,,,,,,,,,,,,,,,,,,,,,,,,,,,,,,,,,,,,,,,,,,,,,,,,,,,,,,,,,,,,,,021822,0,2,0,2,3,1,2,0,16,2022_Feb_18_1136,listening_fmri,3.2.4,59.8930702662268,
2,parcelated_audio/23/23_32.ogg,,,,,,,,,0,0,0,0,0,2,2,2,0,0,0,0,,,,,,,,,0,0,0,0,0,31,31,31,,,,,,,,,,,,,,,,,,,,,,,,,,,,,,,,,,,,,,,,,,,,493.8698085369997,497.5657150999996,,,,,,,,,,,,,,,,,,,,,,,,,,,,,,,,,,,,,,,,,,,,,,,,,,,,,,,,,,,,,,,,,,021822,0,2,0,2,3,1,2,0,16,2022_Feb_18_1136,listening_fmri,3.2.4,59.8930702662268,
2,parcelated_audio/23/23_33.ogg,,,,,,,,,0,0,0,0,0,2,2,2,0,0,0,0,,,,,,,,,0,0,0,0,0,32,32,32,,,,,,,,,,,,,,,,,,,,,,,,,,,,,,,,,,,,,,,,,,,,497.56606884399935,503.6129970109996,,,,,,,,,,,,,,,,,,,,,,,,,,,,,,,,,,,,,,,,,,,,,,,,,,,,,,,,,,,,,,,,,,021822,0,2,0,2,3,1,2,0,16,2022_Feb_18_1136,listening_fmri,3.2.4,59.8930702662268,
2,parcelated_audio/23/23_34.ogg,,,,,,,,,0,0,0,0,0,2,2,2,0,0,0,0,,,,,,,,,0,0,0,0,0,33,33,33,,,,,,,,,,,,,,,,,,,,,,,,,,,,,,,,,,,,,,,,,,,,503.61336041100003,507.15077605199986,,,,,,,,,,,,,,,,,,,,,,,,,,,,,,,,,,,,,,,,,,,,,,,,,,,,,,,,,,,,,,,,,,021822,0,2,0,2,3,1,2,0,16,2022_Feb_18_1136,listening_fmri,3.2.4,59.8930702662268,
2,parcelated_audio/23/23_35.ogg,,,,,,,,,0,0,0,0,0,2,2,2,0,0,0,0,,,,,,,,,0,0,0,0,0,34,34,34,,,,,,,,,,,,,,,,,,,,,,,,,,,,,,,,,,,,,,,,,,,,507.15126113099996,511.4319434959998,,,,,,,,,,,,,,,,,,,,,,,,,,,,,,,,,,,,,,,,,,,,,,,,,,,,,,,,,,,,,,,,,,021822,0,2,0,2,3,1,2,0,16,2022_Feb_18_1136,listening_fmri,3.2.4,59.8930702662268,
2,parcelated_audio/23/23_36.ogg,,,,,,,,,0,0,0,0,0,2,2,2,0,0,0,0,,,,,,,,,0,0,0,0,0,35,35,35,,,,,,,,,,,,,,,,,,,,,,,,,,,,,,,,,,,,,,,,,,,,511.4324164310001,516.0508596849995,,,,,,,,,,,,,,,,,,,,,,,,,,,,,,,,,,,,,,,,,,,,,,,,,,,,,,,,,,,,,,,,,,021822,0,2,0,2,3,1,2,0,16,2022_Feb_18_1136,listening_fmri,3.2.4,59.8930702662268,
2,parcelated_audio/23/23_37.ogg,,,,,,,,,0,0,0,0,0,2,2,2,0,0,0,0,,,,,,,,,0,0,0,0,0,36,36,36,,,,,,,,,,,,,,,,,,,,,,,,,,,,,,,,,,,,,,,,,,,,516.0512133000002,520.8306385639999,,,,,,,,,,,,,,,,,,,,,,,,,,,,,,,,,,,,,,,,,,,,,,,,,,,,,,,,,,,,,,,,,,021822,0,2,0,2,3,1,2,0,16,2022_Feb_18_1136,listening_fmri,3.2.4,59.8930702662268,
2,parcelated_audio/23/23_38.ogg,,,,,,,,,0,0,0,0,0,2,2,2,0,0,0,0,,,,,,,,,0,0,0,0,0,37,37,37,,,,,,,,,,,,,,,,,,,,,,,,,,,,,,,,,,,,,,,,,,,,520.8310029919994,528.3144167439996,,,,,,,,,,,,,,,,,,,,,,,,,,,,,,,,,,,,,,,,,,,,,,,,,,,,,,,,,,,,,,,,,,021822,0,2,0,2,3,1,2,0,16,2022_Feb_18_1136,listening_fmri,3.2.4,59.8930702662268,
2,parcelated_audio/23/23_39.ogg,,,,,,,,,0,0,0,0,0,2,2,2,0,0,0,0,,,,,,,,,0,0,0,0,0,38,38,38,,,,,,,,,,,,,,,,,,,,,,,,,,,,,,,,,,,,,,,,,,,,528.314780146,534.5811042099995,,,,,,,,,,,,,,,,,,,,,,,,,,,,,,,,,,,,,,,,,,,,,,,,,,,,,,,,,,,,,,,,,,021822,0,2,0,2,3,1,2,0,16,2022_Feb_18_1136,listening_fmri,3.2.4,59.8930702662268,
2,,,,,,,,,,0,0,0,0,0,2,2,2,0,0,0,0,,,,,,,,,0,0,0,0,,,,,,,,,,,,,,,,,,,,,,,,,,,,,,,,,,,,,,,,,,,,,,,,,,,,,,,,,,,,,,,,,,,,,,,,,,,,,,,,,,,,,,,,,,,,,,,,,,,,,,,,,,,,,,,,,,,021822,0,2,0,2,3,1,2,0,16,2022_Feb_18_1136,listening_fmri,3.2.4,59.8930702662268,
2,,,,,,,,,,0,0,0,0,0,2,2,2,0,0,0,0,,,,,,,,,,,,,,,,,,,,,,,,,,,,,,,,,,,,,,534.5816267809996,540.5835989159996,576.7316368439997,None,,,,,,,,,,,,,,,,,,,,,582.7360539749998,None,582.7360539749998,None,,,,,,,,,,,,,,,,,,,,,,,,,,,,,,,,,,,,,,,,,,,,,,,,,,,,,,,,,,,,,,021822,0,2,0,2,3,1,2,0,16,2022_Feb_18_1136,listening_fmri,3.2.4,59.8930702662268,
2,,,,,,,,,,0,0,0,0,0,2,2,2,,,,,,,,,,,,,,,,,,,,,,,,,,,,,,,,,,,,,,,,,,,,,,,,,,,,,,,,,,,,,,,,,,,,,,,,,,,,,,,,,,,,,,,,,,,,,,,,,,,,,,,,,,,,,,,,,,,,,,,,,,,,,,,,,,,021822,0,2,0,2,3,1,2,0,16,2022_Feb_18_1136,listening_fmri,3.2.4,59.8930702662268,
3,,,,,,,,,,0,0,0,0,0,3,3,3,0,0,0,0,0,0,0,0,,,,,,,,,,,,,,,,,0,0,0,0,,,,,,,,,,,,,,,,,,583.7648871069996,None,583.7648871069996,None,1,0.7151296649999495,583.7648871069996,None,583.7648871069996,None,,,,,,,,,,,,,,,584.5019376579994,None,1,0.7230566830003227,584.5019376579994,None,584.5019376579994,None,585.2691207819998,None,585.2691207819998,None,585.2691207819998,None,1,0.6218674619994999,585.2691207819998,None,585.9184134420002,None,6,2.5045716129998254,585.9184134420002,None,585.9184134420002,None,588.5311614370003,None,588.5311614370003,None,588.5311614370003,None,588.5311614370003,None,588.5311614370003,None,588.5311614370003,None,588.5311614370003,None,None,588.5311614370003,None,,,,,,,,,,,,,,,,,,,021822,0,2,0,2,3,1,2,0,16,2022_Feb_18_1136,listening_fmri,3.2.4,59.8930702662268,
3,,,,,,,,,,0,0,0,0,0,3,3,3,0,0,0,0,0,0,0,0,,,,,,,,,,,,,,,,,,,,,,,,,,,,,,,,,,,,,,,,,,,,,,,,,,,,,,,,,,,,,,,,,,,,,,,,,,,,,,,,,,,,,,,,,,,,,,,,,,,,,,,,,620.2474221699995,None,1,0.6855677080002351,620.2474221699995,None,620.2474221699995,None,620.968178692,None,620.968178692,None,620.968178692,None,1,0.8846603940000932,620.968178692,None,021822,0,2,0,2,3,1,2,0,16,2022_Feb_18_1136,listening_fmri,3.2.4,59.8930702662268,
3,parcelated_audio/34/34_1.ogg,,,,,,,,,0,0,0,0,0,3,3,3,0,0,0,0,,,,,,,,,0,0,0,0,0,0,0,0,,,,,,,,,,,,,,,,,,,,,,,,,,,,,,,,,,,,621.8852602389998,None,6,1.4727322730004744,621.8852602389998,None,581.2707534769997,584.284230884,584.2900088870001,592.9869015189997,,,,,,,,,,,,,,,,,,,,,,,,,,,,,,,,,,,,,,,,,,,,,,,,,,,,,,,,,,,,,,,,,,021822,0,2,0,2,3,1,2,0,16,2022_Feb_18_1136,listening_fmri,3.2.4,59.8930702662268,
3,parcelated_audio/34/34_2.ogg,,,,,,,,,0,0,0,0,0,3,3,3,0,0,0,0,,,,,,,,,0,0,0,0,0,1,1,1,,,,,,,,,,,,,,,,,,,,,,,,,,,,,,,,,,,,,,,,,,,,592.9874695489998,597.5580490820003,,,,,,,,,,,,,,,,,,,,,,,,,,,,,,,,,,,,,,,,,,,,,,,,,,,,,,,,,,,,,,,,,,021822,0,2,0,2,3,1,2,0,16,2022_Feb_18_1136,listening_fmri,3.2.4,59.8930702662268,
3,parcelated_audio/34/34_3.ogg,,,,,,,,,0,0,0,0,0,3,3,3,0,0,0,0,,,,,,,,,0,0,0,0,0,2,2,2,,,,,,,,,,,,,,,,,,,,,,,,,,,,,,,,,,,,,,,,,,,,597.5585106079998,602.2000259059996,,,,,,,,,,,,,,,,,,,,,,,,,,,,,,,,,,,,,,,,,,,,,,,,,,,,,,,,,,,,,,,,,,021822,0,2,0,2,3,1,2,0,16,2022_Feb_18_1136,listening_fmri,3.2.4,59.8930702662268,
3,parcelated_audio/34/34_4.ogg,,,,,,,,,0,0,0,0,0,3,3,3,0,0,0,0,,,,,,,,,0,0,0,0,0,3,3,3,,,,,,,,,,,,,,,,,,,,,,,,,,,,,,,,,,,,,,,,,,,,602.2003779440001,611.8189652269994,,,,,,,,,,,,,,,,,,,,,,,,,,,,,,,,,,,,,,,,,,,,,,,,,,,,,,,,,,,,,,,,,,021822,0,2,0,2,3,1,2,0,16,2022_Feb_18_1136,listening_fmri,3.2.4,59.8930702662268,
3,parcelated_audio/34/34_5.ogg,,,,,,,,,0,0,0,0,0,3,3,3,0,0,0,0,,,,,,,,,0,0,0,0,0,4,4,4,,,,,,,,,,,,,,,,,,,,,,,,,,,,,,,,,,,,,,,,,,,,611.8195371900001,622.2500221639993,,,,,,,,,,,,,,,,,,,,,,,,,,,,,,,,,,,,,,,,,,,,,,,,,,,,,,,,,,,,,,,,,,021822,0,2,0,2,3,1,2,0,16,2022_Feb_18_1136,listening_fmri,3.2.4,59.8930702662268,
3,parcelated_audio/34/34_6.ogg,,,,,,,,,0,0,0,0,0,3,3,3,0,0,0,0,,,,,,,,,0,0,0,0,0,5,5,5,,,,,,,,,,,,,,,,,,,,,,,,,,,,,,,,,,,,,,,,,,,,622.2503722519996,630.946037828,,,,,,,,,,,,,,,,,,,,,,,,,,,,,,,,,,,,,,,,,,,,,,,,,,,,,,,,,,,,,,,,,,021822,0,2,0,2,3,1,2,0,16,2022_Feb_18_1136,listening_fmri,3.2.4,59.8930702662268,
3,parcelated_audio/34/34_7.ogg,,,,,,,,,0,0,0,0,0,3,3,3,0,0,0,0,,,,,,,,,0,0,0,0,0,6,6,6,,,,,,,,,,,,,,,,,,,,,,,,,,,,,,,,,,,,,,,,,,,,630.946593738,636.9349472240001,,,,,,,,,,,,,,,,,,,,,,,,,,,,,,,,,,,,,,,,,,,,,,,,,,,,,,,,,,,,,,,,,,021822,0,2,0,2,3,1,2,0,16,2022_Feb_18_1136,listening_fmri,3.2.4,59.8930702662268,
3,parcelated_audio/34/34_8.ogg,,,,,,,,,0,0,0,0,0,3,3,3,0,0,0,0,,,,,,,,,0,0,0,0,0,7,7,7,,,,,,,,,,,,,,,,,,,,,,,,,,,,,,,,,,,,,,,,,,,,636.935559865,644.8979478659994,,,,,,,,,,,,,,,,,,,,,,,,,,,,,,,,,,,,,,,,,,,,,,,,,,,,,,,,,,,,,,,,,,021822,0,2,0,2,3,1,2,0,16,2022_Feb_18_1136,listening_fmri,3.2.4,59.8930702662268,
3,parcelated_audio/34/34_9.ogg,,,,,,,,,0,0,0,0,0,3,3,3,0,0,0,0,,,,,,,,,0,0,0,0,0,8,8,8,,,,,,,,,,,,,,,,,,,,,,,,,,,,,,,,,,,,,,,,,,,,644.8991416090003,649.781734534,,,,,,,,,,,,,,,,,,,,,,,,,,,,,,,,,,,,,,,,,,,,,,,,,,,,,,,,,,,,,,,,,,021822,0,2,0,2,3,1,2,0,16,2022_Feb_18_1136,listening_fmri,3.2.4,59.8930702662268,
3,parcelated_audio/34/34_10.ogg,,,,,,,,,0,0,0,0,0,3,3,3,0,0,0,0,,,,,,,,,0,0,0,0,0,9,9,9,,,,,,,,,,,,,,,,,,,,,,,,,,,,,,,,,,,,,,,,,,,,649.7822537920001,656.894988645,,,,,,,,,,,,,,,,,,,,,,,,,,,,,,,,,,,,,,,,,,,,,,,,,,,,,,,,,,,,,,,,,,021822,0,2,0,2,3,1,2,0,16,2022_Feb_18_1136,listening_fmri,3.2.4,59.8930702662268,
3,parcelated_audio/34/34_11.ogg,,,,,,,,,0,0,0,0,0,3,3,3,0,0,0,0,,,,,,,,,0,0,0,0,0,10,10,10,,,,,,,,,,,,,,,,,,,,,,,,,,,,,,,,,,,,,,,,,,,,656.8955720049998,660.3334469390002,,,,,,,,,,,,,,,,,,,,,,,,,,,,,,,,,,,,,,,,,,,,,,,,,,,,,,,,,,,,,,,,,,021822,0,2,0,2,3,1,2,0,16,2022_Feb_18_1136,listening_fmri,3.2.4,59.8930702662268,
3,parcelated_audio/34/34_12.ogg,,,,,,,,,0,0,0,0,0,3,3,3,0,0,0,0,,,,,,,,,0,0,0,0,0,11,11,11,,,,,,,,,,,,,,,,,,,,,,,,,,,,,,,,,,,,,,,,,,,,660.334324032,668.4955491169994,,,,,,,,,,,,,,,,,,,,,,,,,,,,,,,,,,,,,,,,,,,,,,,,,,,,,,,,,,,,,,,,,,021822,0,2,0,2,3,1,2,0,16,2022_Feb_18_1136,listening_fmri,3.2.4,59.8930702662268,
3,parcelated_audio/34/34_13.ogg,,,,,,,,,0,0,0,0,0,3,3,3,0,0,0,0,,,,,,,,,0,0,0,0,0,12,12,12,,,,,,,,,,,,,,,,,,,,,,,,,,,,,,,,,,,,,,,,,,,,668.4959179930001,672.3840175819996,,,,,,,,,,,,,,,,,,,,,,,,,,,,,,,,,,,,,,,,,,,,,,,,,,,,,,,,,,,,,,,,,,021822,0,2,0,2,3,1,2,0,16,2022_Feb_18_1136,listening_fmri,3.2.4,59.8930702662268,
3,parcelated_audio/34/34_14.ogg,,,,,,,,,0,0,0,0,0,3,3,3,0,0,0,0,,,,,,,,,0,0,0,0,0,13,13,13,,,,,,,,,,,,,,,,,,,,,,,,,,,,,,,,,,,,,,,,,,,,672.3845576129997,677.0286290919994,,,,,,,,,,,,,,,,,,,,,,,,,,,,,,,,,,,,,,,,,,,,,,,,,,,,,,,,,,,,,,,,,,021822,0,2,0,2,3,1,2,0,16,2022_Feb_18_1136,listening_fmri,3.2.4,59.8930702662268,
3,parcelated_audio/34/34_15.ogg,,,,,,,,,0,0,0,0,0,3,3,3,0,0,0,0,,,,,,,,,0,0,0,0,0,14,14,14,,,,,,,,,,,,,,,,,,,,,,,,,,,,,,,,,,,,,,,,,,,,677.0289822710001,681.2241586159998,,,,,,,,,,,,,,,,,,,,,,,,,,,,,,,,,,,,,,,,,,,,,,,,,,,,,,,,,,,,,,,,,,021822,0,2,0,2,3,1,2,0,16,2022_Feb_18_1136,listening_fmri,3.2.4,59.8930702662268,
3,parcelated_audio/34/34_16.ogg,,,,,,,,,0,0,0,0,0,3,3,3,0,0,0,0,,,,,,,,,0,0,0,0,0,15,15,15,,,,,,,,,,,,,,,,,,,,,,,,,,,,,,,,,,,,,,,,,,,,681.2244624699997,694.2420461649999,,,,,,,,,,,,,,,,,,,,,,,,,,,,,,,,,,,,,,,,,,,,,,,,,,,,,,,,,,,,,,,,,,021822,0,2,0,2,3,1,2,0,16,2022_Feb_18_1136,listening_fmri,3.2.4,59.8930702662268,
3,parcelated_audio/34/34_17.ogg,,,,,,,,,0,0,0,0,0,3,3,3,0,0,0,0,,,,,,,,,0,0,0,0,0,16,16,16,,,,,,,,,,,,,,,,,,,,,,,,,,,,,,,,,,,,,,,,,,,,694.242392827,703.1760723099997,,,,,,,,,,,,,,,,,,,,,,,,,,,,,,,,,,,,,,,,,,,,,,,,,,,,,,,,,,,,,,,,,,021822,0,2,0,2,3,1,2,0,16,2022_Feb_18_1136,listening_fmri,3.2.4,59.8930702662268,
3,parcelated_audio/34/34_18.ogg,,,,,,,,,0,0,0,0,0,3,3,3,0,0,0,0,,,,,,,,,0,0,0,0,0,17,17,17,,,,,,,,,,,,,,,,,,,,,,,,,,,,,,,,,,,,,,,,,,,,703.1764284479996,709.0509990559995,,,,,,,,,,,,,,,,,,,,,,,,,,,,,,,,,,,,,,,,,,,,,,,,,,,,,,,,,,,,,,,,,,021822,0,2,0,2,3,1,2,0,16,2022_Feb_18_1136,listening_fmri,3.2.4,59.8930702662268,
3,parcelated_audio/34/34_19.ogg,,,,,,,,,0,0,0,0,0,3,3,3,0,0,0,0,,,,,,,,,0,0,0,0,0,18,18,18,,,,,,,,,,,,,,,,,,,,,,,,,,,,,,,,,,,,,,,,,,,,709.0513613309995,715.2731138479994,,,,,,,,,,,,,,,,,,,,,,,,,,,,,,,,,,,,,,,,,,,,,,,,,,,,,,,,,,,,,,,,,,021822,0,2,0,2,3,1,2,0,16,2022_Feb_18_1136,listening_fmri,3.2.4,59.8930702662268,
3,parcelated_audio/34/34_20.ogg,,,,,,,,,0,0,0,0,0,3,3,3,0,0,0,0,,,,,,,,,0,0,0,0,0,19,19,19,,,,,,,,,,,,,,,,,,,,,,,,,,,,,,,,,,,,,,,,,,,,715.2736473099994,723.7336091529996,,,,,,,,,,,,,,,,,,,,,,,,,,,,,,,,,,,,,,,,,,,,,,,,,,,,,,,,,,,,,,,,,,021822,0,2,0,2,3,1,2,0,16,2022_Feb_18_1136,listening_fmri,3.2.4,59.8930702662268,
3,parcelated_audio/34/34_21.ogg,,,,,,,,,0,0,0,0,0,3,3,3,0,0,0,0,,,,,,,,,0,0,0,0,0,20,20,20,,,,,,,,,,,,,,,,,,,,,,,,,,,,,,,,,,,,,,,,,,,,723.7339620249995,730.0946874310002,,,,,,,,,,,,,,,,,,,,,,,,,,,,,,,,,,,,,,,,,,,,,,,,,,,,,,,,,,,,,,,,,,021822,0,2,0,2,3,1,2,0,16,2022_Feb_18_1136,listening_fmri,3.2.4,59.8930702662268,
3,parcelated_audio/34/34_22.ogg,,,,,,,,,0,0,0,0,0,3,3,3,0,0,0,0,,,,,,,,,0,0,0,0,0,21,21,21,,,,,,,,,,,,,,,,,,,,,,,,,,,,,,,,,,,,,,,,,,,,730.0951049380001,735.2295727129995,,,,,,,,,,,,,,,,,,,,,,,,,,,,,,,,,,,,,,,,,,,,,,,,,,,,,,,,,,,,,,,,,,021822,0,2,0,2,3,1,2,0,16,2022_Feb_18_1136,listening_fmri,3.2.4,59.8930702662268,
3,parcelated_audio/34/34_23.ogg,,,,,,,,,0,0,0,0,0,3,3,3,0,0,0,0,,,,,,,,,0,0,0,0,0,22,22,22,,,,,,,,,,,,,,,,,,,,,,,,,,,,,,,,,,,,,,,,,,,,735.2301572819997,743.0296291839995,,,,,,,,,,,,,,,,,,,,,,,,,,,,,,,,,,,,,,,,,,,,,,,,,,,,,,,,,,,,,,,,,,021822,0,2,0,2,3,1,2,0,16,2022_Feb_18_1136,listening_fmri,3.2.4,59.8930702662268,
3,parcelated_audio/34/34_24.ogg,,,,,,,,,0,0,0,0,0,3,3,3,0,0,0,0,,,,,,,,,0,0,0,0,0,23,23,23,,,,,,,,,,,,,,,,,,,,,,,,,,,,,,,,,,,,,,,,,,,,743.0302456959998,748.8209972229997,,,,,,,,,,,,,,,,,,,,,,,,,,,,,,,,,,,,,,,,,,,,,,,,,,,,,,,,,,,,,,,,,,021822,0,2,0,2,3,1,2,0,16,2022_Feb_18_1136,listening_fmri,3.2.4,59.8930702662268,
3,parcelated_audio/34/34_25.ogg,,,,,,,,,0,0,0,0,0,3,3,3,0,0,0,0,,,,,,,,,0,0,0,0,0,24,24,24,,,,,,,,,,,,,,,,,,,,,,,,,,,,,,,,,,,,,,,,,,,,748.8213561519997,755.3919358940002,,,,,,,,,,,,,,,,,,,,,,,,,,,,,,,,,,,,,,,,,,,,,,,,,,,,,,,,,,,,,,,,,,021822,0,2,0,2,3,1,2,0,16,2022_Feb_18_1136,listening_fmri,3.2.4,59.8930702662268,
3,parcelated_audio/34/34_26.ogg,,,,,,,,,0,0,0,0,0,3,3,3,0,0,0,0,,,,,,,,,0,0,0,0,0,25,25,25,,,,,,,,,,,,,,,,,,,,,,,,,,,,,,,,,,,,,,,,,,,,755.3922873029996,765.0455854820002,,,,,,,,,,,,,,,,,,,,,,,,,,,,,,,,,,,,,,,,,,,,,,,,,,,,,,,,,,,,,,,,,,021822,0,2,0,2,3,1,2,0,16,2022_Feb_18_1136,listening_fmri,3.2.4,59.8930702662268,
3,parcelated_audio/34/34_27.ogg,,,,,,,,,0,0,0,0,0,3,3,3,0,0,0,0,,,,,,,,,0,0,0,0,0,26,26,26,,,,,,,,,,,,,,,,,,,,,,,,,,,,,,,,,,,,,,,,,,,,765.0459864650002,772.549175651,,,,,,,,,,,,,,,,,,,,,,,,,,,,,,,,,,,,,,,,,,,,,,,,,,,,,,,,,,,,,,,,,,021822,0,2,0,2,3,1,2,0,16,2022_Feb_18_1136,listening_fmri,3.2.4,59.8930702662268,
3,,,,,,,,,,0,0,0,0,0,3,3,3,0,0,0,0,,,,,,,,,0,0,0,0,,,,,,,,,,,,,,,,,,,,,,,,,,,,,,,,,,,,,,,,,,,,,,,,,,,,,,,,,,,,,,,,,,,,,,,,,,,,,,,,,,,,,,,,,,,,,,,,,,,,,,,,,,,,,,,,,,,021822,0,2,0,2,3,1,2,0,16,2022_Feb_18_1136,listening_fmri,3.2.4,59.8930702662268,
,,,,,,,,,,,,,,,,,,,,,,,,,,,,,,,,,,,,,,,,,,,,,,,,,,,,,,,,,,,772.5496682809999,778.550185223,814.6951573420001,None,,,,,,,,,,,,,,,,,,,,,820.7028094369998,None,820.7028094369998,None,,,,,,,,,,,,,,,,,,,,,,,,,,,,,,,,,,,,,,,,,,,,,,,,,,,,,,,,,,,,,,,,,,,,,,,,,,,,
﻿count,audio,trials_14.thisRepN,trials_14.thisTrialN,trials_14.thisN,trials_14.thisIndex,trials_3.thisRepN,trials_3.thisTrialN,trials_3.thisN,trials_3.thisIndex,trials_4.thisRepN,trials_4.thisTrialN,trials_4.thisN,trials_4.thisIndex,trials_6.thisRepN,trials_6.thisTrialN,trials_6.thisN,trials_6.thisIndex,trials_9.thisRepN,trials_9.thisTrialN,trials_9.thisN,trials_9.thisIndex,trials_10.thisRepN,trials_10.thisTrialN,trials_10.thisN,trials_10.thisIndex,trials_12.thisRepN,trials_12.thisTrialN,trials_12.thisN,trials_12.thisIndex,trials_25.thisRepN,trials_25.thisTrialN,trials_25.thisN,trials_25.thisIndex,trials_15.thisRepN,trials_15.thisTrialN,trials_15.thisN,trials_15.thisIndex,trials_26.thisRepN,trials_26.thisTrialN,trials_26.thisN,trials_26.thisIndex,trials_11.thisRepN,trials_11.thisTrialN,trials_11.thisN,trials_11.thisIndex,story_list_block2,action_list_block2,textTrigger.started,textTrigger.stopped,getTrigger.keys,getTrigger.rt,getTrigger.started,getTrigger.stopped,triggerTime,text_76.started,text_76.stopped,text_77.started,text_77.stopped,startWait,endWait,image_23.started,image_23.stopped,text_55.started,text_55.stopped,text_56.started,text_56.stopped,key_resp_2.keys,key_resp_2.rt,key_resp_2.started,key_resp_2.stopped,text_82.started,text_82.stopped,text_64.started,text_64.stopped,key_resp_20.keys,key_resp_20.rt,key_resp_20.started,key_resp_20.stopped,storyImage_StartTime,storyImage_EndTime,clip_StartTime,clip_EndTime,text_67.started,text_67.stopped,text_68.started,text_68.stopped,text_57.started,text_57.stopped,key_resp_17.keys,key_resp_17.rt,key_resp_17.started,key_resp_17.stopped,text_83.started,text_83.stopped,text_60.started,text_60.stopped,image_2.started,image_2.stopped,text_58.started,text_58.stopped,key_resp_23.keys,key_resp_23.rt,key_resp_23.started,key_resp_23.stopped,text_62.started,text_62.stopped,key_resp_18.keys,key_resp_18.rt,key_resp_18.started,key_resp_18.stopped,text_84.started,text_84.stopped,question1_2.started,question1_2.stopped,question2_2.started,question2_2.stopped,question3_2.started,question3_2.stopped,question4_2.started,question4_2.stopped,question5_2.started,question5_2.stopped,question6_2.started,question6_2.stopped,image_15.started,image_15.stopped,key_resp.keys,key_resp.started,key_resp.stopped,text_59.started,text_59.stopped,key_resp_19.keys,key_resp_19.rt,key_resp_19.started,key_resp_19.stopped,text_85.started,text_85.stopped,text_61.started,text_61.stopped,image_17.started,image_17.stopped,text_63.started,text_63.stopped,key_resp_24.keys,key_resp_24.rt,key_resp_24.started,key_resp_24.stopped,participant,sA,sB,lA,lB,block_struct,play_stories,block,behavioral,random_seed,date,expName,psychopyVersion,frameRate,
0,,,,,,,,,,0,0,0,0,0,0,0,0,,,,,,,,,,,,,,,,,,,,,,,,,,,,,[33 24 23 34 13 43 14 44],[3 4 2 1 3 2 1 4],14.521844988999874,None,equal,27.601107686000432,14.521844988999874,None,27.628034467999896,14.521844988999874,None,14.521844988999874,None,0.00033590699968044646,5.9990375689994835,42.15166262399998,None,,,,,,,,,,,,,,,,,,,,,,,,,,,,,,,,,,,,,,,,,,,,,,,,,,,,,,,,,,,,,,,,,,,,,,,,,,,,,,,,,,,,,,021822,0,2,0,2,3,1,2,0,16,2022_Feb_18_1136,listening_fmri,3.2.4,59.8930702662268,
1,parcelated_audio/24/24_1.ogg,,,,,,,,,0,0,0,0,0,1,1,1,0,0,0,0,,,,,,,,,0,0,0,0,0,0,0,0,,,,,,,,,,,,,,,,,,,,,,,,,,48.15404320499965,None,48.15404320499965,None,1,1.2968632050005908,48.15404320499965,None,48.15404320499965,None,49.471153667999715,None,1,1.052854959000797,49.471153667999715,None,8.40815688299972,11.415763912999864,11.422508143999949,21.85653836399979,,,,,,,,,,,,,,,,,,,,,,,,,,,,,,,,,,,,,,,,,,,,,,,,,,,,,,,,,,,,,,,,,,021822,0,2,0,2,3,1,2,0,16,2022_Feb_18_1136,listening_fmri,3.2.4,59.8930702662268,
1,parcelated_audio/24/24_2.ogg,,,,,,,,,0,0,0,0,0,1,1,1,0,0,0,0,,,,,,,,,0,0,0,0,0,1,1,1,,,,,,,,,,,,,,,,,,,,,,,,,,,,,,,,,,,,,,,,,,,,21.857050268999956,28.181725299999925,,,,,,,,,,,,,,,,,,,,,,,,,,,,,,,,,,,,,,,,,,,,,,,,,,,,,,,,,,,,,,,,,,021822,0,2,0,2,3,1,2,0,16,2022_Feb_18_1136,listening_fmri,3.2.4,59.8930702662268,
1,parcelated_audio/24/24_3.ogg,,,,,,,,,0,0,0,0,0,1,1,1,0,0,0,0,,,,,,,,,0,0,0,0,0,2,2,2,,,,,,,,,,,,,,,,,,,,,,,,,,,,,,,,,,,,,,,,,,,,28.182281151999632,39.77501546299936,,,,,,,,,,,,,,,,,,,,,,,,,,,,,,,,,,,,,,,,,,,,,,,,,,,,,,,,,,,,,,,,,,021822,0,2,0,2,3,1,2,0,16,2022_Feb_18_1136,listening_fmri,3.2.4,59.8930702662268,
1,parcelated_audio/24/24_4.ogg,,,,,,,,,0,0,0,0,0,1,1,1,0,0,0,0,,,,,,,,,0,0,0,0,0,3,3,3,,,,,,,,,,,,,,,,,,,,,,,,,,,,,,,,,,,,,,,,,,,,39.77537702999962,46.678944668999975,,,,,,,,,,,,,,,,,,,,,,,,,,,,,,,,,,,,,,,,,,,,,,,,,,,,,,,,,,,,,,,,,,021822,0,2,0,2,3,1,2,0,16,2022_Feb_18_1136,listening_fmri,3.2.4,59.8930702662268,
1,parcelated_audio/24/24_5.ogg,,,,,,,,,0,0,0,0,0,1,1,1,0,0,0,0,,,,,,,,,0,0,0,0,0,4,4,4,,,,,,,,,,,,,,,,,,,,,,,,,,,,,,,,,,,,,,,,,,,,46.679300558999785,51.64988341099979,,,,,,,,,,,,,,,,,,,,,,,,,,,,,,,,,,,,,,,,,,,,,,,,,,,,,,,,,,,,,,,,,,021822,0,2,0,2,3,1,2,0,16,2022_Feb_18_1136,listening_fmri,3.2.4,59.8930702662268,
1,parcelated_audio/24/24_6.ogg,,,,,,,,,0,0,0,0,0,1,1,1,0,0,0,0,,,,,,,,,0,0,0,0,0,5,5,5,,,,,,,,,,,,,,,,,,,,,,,,,,,,,,,,,,,,,,,,,,,,51.650412234000214,59.1044309859999,,,,,,,,,,,,,,,,,,,,,,,,,,,,,,,,,,,,,,,,,,,,,,,,,,,,,,,,,,,,,,,,,,021822,0,2,0,2,3,1,2,0,16,2022_Feb_18_1136,listening_fmri,3.2.4,59.8930702662268,
1,parcelated_audio/24/24_7.ogg,,,,,,,,,0,0,0,0,0,1,1,1,0,0,0,0,,,,,,,,,0,0,0,0,0,6,6,6,,,,,,,,,,,,,,,,,,,,,,,,,,,,,,,,,,,,,,,,,,,,59.10482188599963,63.4854932369999,,,,,,,,,,,,,,,,,,,,,,,,,,,,,,,,,,,,,,,,,,,,,,,,,,,,,,,,,,,,,,,,,,021822,0,2,0,2,3,1,2,0,16,2022_Feb_18_1136,listening_fmri,3.2.4,59.8930702662268,
1,parcelated_audio/24/24_8.ogg,,,,,,,,,0,0,0,0,0,1,1,1,0,0,0,0,,,,,,,,,0,0,0,0,0,7,7,7,,,,,,,,,,,,,,,,,,,,,,,,,,,,,,,,,,,,,,,,,,,,63.48589997699946,69.5611317339999,,,,,,,,,,,,,,,,,,,,,,,,,,,,,,,,,,,,,,,,,,,,,,,,,,,,,,,,,,,,,,,,,,021822,0,2,0,2,3,1,2,0,16,2022_Feb_18_1136,listening_fmri,3.2.4,59.8930702662268,
1,parcelated_audio/24/24_9.ogg,,,,,,,,,0,0,0,0,0,1,1,1,0,0,0,0,,,,,,,,,0,0,0,0,0,8,8,8,,,,,,,,,,,,,,,,,,,,,,,,,,,,,,,,,,,,,,,,,,,,69.56157545699989,73.88769017999948,,,,,,,,,,,,,,,,,,,,,,,,,,,,,,,,,,,,,,,,,,,,,,,,,,,,,,,,,,,,,,,,,,021822,0,2,0,2,3,1,2,0,16,2022_Feb_18_1136,listening_fmri,3.2.4,59.8930702662268,
1,parcelated_audio/24/24_10.ogg,,,,,,,,,0,0,0,0,0,1,1,1,0,0,0,0,,,,,,,,,0,0,0,0,0,9,9,9,,,,,,,,,,,,,,,,,,,,,,,,,,,,,,,,,,,,,,,,,,,,73.88794903799953,77.62109997599964,,,,,,,,,,,,,,,,,,,,,,,,,,,,,,,,,,,,,,,,,,,,,,,,,,,,,,,,,,,,,,,,,,021822,0,2,0,2,3,1,2,0,16,2022_Feb_18_1136,listening_fmri,3.2.4,59.8930702662268,
1,parcelated_audio/24/24_11.ogg,,,,,,,,,0,0,0,0,0,1,1,1,0,0,0,0,,,,,,,,,0,0,0,0,0,10,10,10,,,,,,,,,,,,,,,,,,,,,,,,,,,,,,,,,,,,,,,,,,,,77.62167318199954,87.73883416999979,,,,,,,,,,,,,,,,,,,,,,,,,,,,,,,,,,,,,,,,,,,,,,,,,,,,,,,,,,,,,,,,,,021822,0,2,0,2,3,1,2,0,16,2022_Feb_18_1136,listening_fmri,3.2.4,59.8930702662268,
1,parcelated_audio/24/24_12.ogg,,,,,,,,,0,0,0,0,0,1,1,1,0,0,0,0,,,,,,,,,0,0,0,0,0,11,11,11,,,,,,,,,,,,,,,,,,,,,,,,,,,,,,,,,,,,,,,,,,,,87.73918904199945,96.82155163799962,,,,,,,,,,,,,,,,,,,,,,,,,,,,,,,,,,,,,,,,,,,,,,,,,,,,,,,,,,,,,,,,,,021822,0,2,0,2,3,1,2,0,16,2022_Feb_18_1136,listening_fmri,3.2.4,59.8930702662268,
1,parcelated_audio/24/24_13.ogg,,,,,,,,,0,0,0,0,0,1,1,1,0,0,0,0,,,,,,,,,0,0,0,0,0,12,12,12,,,,,,,,,,,,,,,,,,,,,,,,,,,,,,,,,,,,,,,,,,,,96.82185803199991,100.79760741999962,,,,,,,,,,,,,,,,,,,,,,,,,,,,,,,,,,,,,,,,,,,,,,,,,,,,,,,,,,,,,,,,,,021822,0,2,0,2,3,1,2,0,16,2022_Feb_18_1136,listening_fmri,3.2.4,59.8930702662268,
1,parcelated_audio/24/24_14.ogg,,,,,,,,,0,0,0,0,0,1,1,1,0,0,0,0,,,,,,,,,0,0,0,0,0,13,13,13,,,,,,,,,,,,,,,,,,,,,,,,,,,,,,,,,,,,,,,,,,,,100.7981778659996,108.18485292100013,,,,,,,,,,,,,,,,,,,,,,,,,,,,,,,,,,,,,,,,,,,,,,,,,,,,,,,,,,,,,,,,,,021822,0,2,0,2,3,1,2,0,16,2022_Feb_18_1136,listening_fmri,3.2.4,59.8930702662268,
1,parcelated_audio/24/24_15.ogg,,,,,,,,,0,0,0,0,0,1,1,1,0,0,0,0,,,,,,,,,0,0,0,0,0,14,14,14,,,,,,,,,,,,,,,,,,,,,,,,,,,,,,,,,,,,,,,,,,,,108.18530028799978,114.7148958050002,,,,,,,,,,,,,,,,,,,,,,,,,,,,,,,,,,,,,,,,,,,,,,,,,,,,,,,,,,,,,,,,,,021822,0,2,0,2,3,1,2,0,16,2022_Feb_18_1136,listening_fmri,3.2.4,59.8930702662268,
1,parcelated_audio/24/24_16.ogg,,,,,,,,,0,0,0,0,0,1,1,1,0,0,0,0,,,,,,,,,0,0,0,0,0,15,15,15,,,,,,,,,,,,,,,,,,,,,,,,,,,,,,,,,,,,,,,,,,,,114.7154437299996,121.89898066899968,,,,,,,,,,,,,,,,,,,,,,,,,,,,,,,,,,,,,,,,,,,,,,,,,,,,,,,,,,,,,,,,,,021822,0,2,0,2,3,1,2,0,16,2022_Feb_18_1136,listening_fmri,3.2.4,59.8930702662268,
1,parcelated_audio/24/24_17.ogg,,,,,,,,,0,0,0,0,0,1,1,1,0,0,0,0,,,,,,,,,0,0,0,0,0,16,16,16,,,,,,,,,,,,,,,,,,,,,,,,,,,,,,,,,,,,,,,,,,,,121.89933893699981,127.8936889229999,,,,,,,,,,,,,,,,,,,,,,,,,,,,,,,,,,,,,,,,,,,,,,,,,,,,,,,,,,,,,,,,,,021822,0,2,0,2,3,1,2,0,16,2022_Feb_18_1136,listening_fmri,3.2.4,59.8930702662268,
1,parcelated_audio/24/24_18.ogg,,,,,,,,,0,0,0,0,0,1,1,1,0,0,0,0,,,,,,,,,0,0,0,0,0,17,17,17,,,,,,,,,,,,,,,,,,,,,,,,,,,,,,,,,,,,,,,,,,,,127.89405219499986,136.34160893699936,,,,,,,,,,,,,,,,,,,,,,,,,,,,,,,,,,,,,,,,,,,,,,,,,,,,,,,,,,,,,,,,,,021822,0,2,0,2,3,1,2,0,16,2022_Feb_18_1136,listening_fmri,3.2.4,59.8930702662268,
1,parcelated_audio/24/24_19.ogg,,,,,,,,,0,0,0,0,0,1,1,1,0,0,0,0,,,,,,,,,0,0,0,0,0,18,18,18,,,,,,,,,,,,,,,,,,,,,,,,,,,,,,,,,,,,,,,,,,,,136.34302485399985,145.96983212399937,,,,,,,,,,,,,,,,,,,,,,,,,,,,,,,,,,,,,,,,,,,,,,,,,,,,,,,,,,,,,,,,,,021822,0,2,0,2,3,1,2,0,16,2022_Feb_18_1136,listening_fmri,3.2.4,59.8930702662268,
1,parcelated_audio/24/24_20.ogg,,,,,,,,,0,0,0,0,0,1,1,1,0,0,0,0,,,,,,,,,0,0,0,0,0,19,19,19,,,,,,,,,,,,,,,,,,,,,,,,,,,,,,,,,,,,,,,,,,,,145.97036815399952,150.46682748999956,,,,,,,,,,,,,,,,,,,,,,,,,,,,,,,,,,,,,,,,,,,,,,,,,,,,,,,,,,,,,,,,,,021822,0,2,0,2,3,1,2,0,16,2022_Feb_18_1136,listening_fmri,3.2.4,59.8930702662268,
1,parcelated_audio/24/24_21.ogg,,,,,,,,,0,0,0,0,0,1,1,1,0,0,0,0,,,,,,,,,0,0,0,0,0,20,20,20,,,,,,,,,,,,,,,,,,,,,,,,,,,,,,,,,,,,,,,,,,,,150.4671775830002,158.4862181239996,,,,,,,,,,,,,,,,,,,,,,,,,,,,,,,,,,,,,,,,,,,,,,,,,,,,,,,,,,,,,,,,,,021822,0,2,0,2,3,1,2,0,16,2022_Feb_18_1136,listening_fmri,3.2.4,59.8930702662268,
1,parcelated_audio/24/24_22.ogg,,,,,,,,,0,0,0,0,0,1,1,1,0,0,0,0,,,,,,,,,0,0,0,0,0,21,21,21,,,,,,,,,,,,,,,,,,,,,,,,,,,,,,,,,,,,,,,,,,,,158.48649073700017,169.07100732900017,,,,,,,,,,,,,,,,,,,,,,,,,,,,,,,,,,,,,,,,,,,,,,,,,,,,,,,,,,,,,,,,,,021822,0,2,0,2,3,1,2,0,16,2022_Feb_18_1136,listening_fmri,3.2.4,59.8930702662268,
1,parcelated_audio/24/24_23.ogg,,,,,,,,,0,0,0,0,0,1,1,1,0,0,0,0,,,,,,,,,0,0,0,0,0,22,22,22,,,,,,,,,,,,,,,,,,,,,,,,,,,,,,,,,,,,,,,,,,,,169.07135503100017,179.27231050799946,,,,,,,,,,,,,,,,,,,,,,,,,,,,,,,,,,,,,,,,,,,,,,,,,,,,,,,,,,,,,,,,,,021822,0,2,0,2,3,1,2,0,16,2022_Feb_18_1136,listening_fmri,3.2.4,59.8930702662268,
1,parcelated_audio/24/24_24.ogg,,,,,,,,,0,0,0,0,0,1,1,1,0,0,0,0,,,,,,,,,0,0,0,0,0,23,23,23,,,,,,,,,,,,,,,,,,,,,,,,,,,,,,,,,,,,,,,,,,,,179.2733372169996,185.858029901,,,,,,,,,,,,,,,,,,,,,,,,,,,,,,,,,,,,,,,,,,,,,,,,,,,,,,,,,,,,,,,,,,021822,0,2,0,2,3,1,2,0,16,2022_Feb_18_1136,listening_fmri,3.2.4,59.8930702662268,
1,parcelated_audio/24/24_25.ogg,,,,,,,,,0,0,0,0,0,1,1,1,0,0,0,0,,,,,,,,,0,0,0,0,0,24,24,24,,,,,,,,,,,,,,,,,,,,,,,,,,,,,,,,,,,,,,,,,,,,185.85859930100014,194.59101197400014,,,,,,,,,,,,,,,,,,,,,,,,,,,,,,,,,,,,,,,,,,,,,,,,,,,,,,,,,,,,,,,,,,021822,0,2,0,2,3,1,2,0,16,2022_Feb_18_1136,listening_fmri,3.2.4,59.8930702662268,
1,parcelated_audio/24/24_26.ogg,,,,,,,,,0,0,0,0,0,1,1,1,0,0,0,0,,,,,,,,,0,0,0,0,0,25,25,25,,,,,,,,,,,,,,,,,,,,,,,,,,,,,,,,,,,,,,,,,,,,194.59158304599987,201.16108548600005,,,,,,,,,,,,,,,,,,,,,,,,,,,,,,,,,,,,,,,,,,,,,,,,,,,,,,,,,,,,,,,,,,021822,0,2,0,2,3,1,2,0,16,2022_Feb_18_1136,listening_fmri,3.2.4,59.8930702662268,
1,parcelated_audio/24/24_27.ogg,,,,,,,,,0,0,0,0,0,1,1,1,0,0,0,0,,,,,,,,,0,0,0,0,0,26,26,26,,,,,,,,,,,,,,,,,,,,,,,,,,,,,,,,,,,,,,,,,,,,201.16165453399935,207.33025240299958,,,,,,,,,,,,,,,,,,,,,,,,,,,,,,,,,,,,,,,,,,,,,,,,,,,,,,,,,,,,,,,,,,021822,0,2,0,2,3,1,2,0,16,2022_Feb_18_1136,listening_fmri,3.2.4,59.8930702662268,
1,parcelated_audio/24/24_28.ogg,,,,,,,,,0,0,0,0,0,1,1,1,0,0,0,0,,,,,,,,,0,0,0,0,0,27,27,27,,,,,,,,,,,,,,,,,,,,,,,,,,,,,,,,,,,,,,,,,,,,207.3305961219994,211.82002595299946,,,,,,,,,,,,,,,,,,,,,,,,,,,,,,,,,,,,,,,,,,,,,,,,,,,,,,,,,,,,,,,,,,021822,0,2,0,2,3,1,2,0,16,2022_Feb_18_1136,listening_fmri,3.2.4,59.8930702662268,
1,parcelated_audio/24/24_29.ogg,,,,,,,,,0,0,0,0,0,1,1,1,0,0,0,0,,,,,,,,,0,0,0,0,0,28,28,28,,,,,,,,,,,,,,,,,,,,,,,,,,,,,,,,,,,,,,,,,,,,211.82138245399983,218.20574895800019,,,,,,,,,,,,,,,,,,,,,,,,,,,,,,,,,,,,,,,,,,,,,,,,,,,,,,,,,,,,,,,,,,021822,0,2,0,2,3,1,2,0,16,2022_Feb_18_1136,listening_fmri,3.2.4,59.8930702662268,
1,parcelated_audio/24/24_30.ogg,,,,,,,,,0,0,0,0,0,1,1,1,0,0,0,0,,,,,,,,,0,0,0,0,0,29,29,29,,,,,,,,,,,,,,,,,,,,,,,,,,,,,,,,,,,,,,,,,,,,218.2060907089999,224.46686464199956,,,,,,,,,,,,,,,,,,,,,,,,,,,,,,,,,,,,,,,,,,,,,,,,,,,,,,,,,,,,,,,,,,021822,0,2,0,2,3,1,2,0,16,2022_Feb_18_1136,listening_fmri,3.2.4,59.8930702662268,
1,parcelated_audio/24/24_31.ogg,,,,,,,,,0,0,0,0,0,1,1,1,0,0,0,0,,,,,,,,,0,0,0,0,0,30,30,30,,,,,,,,,,,,,,,,,,,,,,,,,,,,,,,,,,,,,,,,,,,,224.46721790499942,231.13605822699992,,,,,,,,,,,,,,,,,,,,,,,,,,,,,,,,,,,,,,,,,,,,,,,,,,,,,,,,,,,,,,,,,,021822,0,2,0,2,3,1,2,0,16,2022_Feb_18_1136,listening_fmri,3.2.4,59.8930702662268,
1,parcelated_audio/24/24_32.ogg,,,,,,,,,0,0,0,0,0,1,1,1,0,0,0,0,,,,,,,,,0,0,0,0,0,31,31,31,,,,,,,,,,,,,,,,,,,,,,,,,,,,,,,,,,,,,,,,,,,,231.1366451619997,241.92098695999994,,,,,,,,,,,,,,,,,,,,,,,,,,,,,,,,,,,,,,,,,,,,,,,,,,,,,,,,,,,,,,,,,,021822,0,2,0,2,3,1,2,0,16,2022_Feb_18_1136,listening_fmri,3.2.4,59.8930702662268,
1,,,,,,,,,,0,0,0,0,0,1,1,1,0,0,0,0,,,,,,,,,0,0,0,0,,,,,,,,,,,,,,,,,,,,,,,,,,,,,,,,,,,,,,,,,,,,,,,,,,,,,,,,,,,,,,,,,,,,,,,,,,,,,,,,,,,,,,,,,,,,,,,,,,,,,,,,,,,,,,,,,,,021822,0,2,0,2,3,1,2,0,16,2022_Feb_18_1136,listening_fmri,3.2.4,59.8930702662268,
1,,,,,,,,,,0,0,0,0,0,1,1,1,0,0,0,0,,,,,,,,,,,,,,,,,,,,,,,,,,,,,,,,,,,,,,241.9214784119995,247.91692881299969,284.0680083339994,None,,,,,,,,,,,,,,,,,,,,,290.06845267300014,None,290.06845267300014,None,,,,,,,,,,,,,,,,,,,,,,,,,,,,,,,,,,,,,,,,,,,,,,,,,,,,,,,,,,,,,,021822,0,2,0,2,3,1,2,0,16,2022_Feb_18_1136,listening_fmri,3.2.4,59.8930702662268,
1,,,,,,,,,,0,0,0,0,0,1,1,1,,,,,,,,,,,,,,,,,,,,,,,,,,,,,,,,,,,,,,,,,,,,,,,,,,,,,,,,,,,,,,,,,,,,,,,,,,,,,,,,,,,,,,,,,,,,,,,,,,,,,,,,,,,,,,,,,,,,,,,,,,,,,,,,,,,021822,0,2,0,2,3,1,2,0,16,2022_Feb_18_1136,listening_fmri,3.2.4,59.8930702662268,
2,,,,,,,,,,0,0,0,0,0,2,2,2,0,0,0,0,0,0,0,0,,,,,,,,,,,,,,,,,0,0,0,0,,,,,,,,,,,,,,,,,,291.06797505600025,None,291.06797505600025,None,6,4.554024428000048,291.06797505600025,None,291.06797505600025,None,,,,,,,,,,,,,,,295.651422379,None,6,0.8174356130002707,295.651422379,None,295.651422379,None,296.5179671400001,None,296.5179671400001,None,296.5179671400001,None,6,0.8230315780001547,296.5179671400001,None,297.3685548249996,None,6,0.9123980140002459,297.3685548249996,None,297.3685548249996,None,298.43421586800014,None,298.43421586800014,None,298.43421586800014,None,298.43421586800014,None,298.43421586800014,None,298.43421586800014,None,298.43421586800014,None,None,298.43421586800014,None,,,,,,,,,,,,,,,,,,,021822,0,2,0,2,3,1,2,0,16,2022_Feb_18_1136,listening_fmri,3.2.4,59.8930702662268,
2,,,,,,,,,,0,0,0,0,0,2,2,2,0,0,0,0,0,0,0,0,,,,,,,,,,,,,,,,,1,0,1,0,,,,,,,,,,,,,,,,,,,,,,,,,,,,,,,,,,,,,,,,,,,,,,,,,,314.0347313259999,None,314.0347313259999,None,314.0347313259999,None,6,0.7962612709998211,314.0347313259999,None,314.85121168600017,None,6,0.5377782549994663,314.85121168600017,None,314.85121168600017,None,315.501205134,None,315.501205134,None,315.501205134,None,315.501205134,None,315.501205134,None,315.501205134,None,315.501205134,None,None,315.501205134,None,,,,,,,,,,,,,,,,,,,021822,0,2,0,2,3,1,2,0,16,2022_Feb_18_1136,listening_fmri,3.2.4,59.8930702662268,
2,,,,,,,,,,0,0,0,0,0,2,2,2,0,0,0,0,0,0,0,0,,,,,,,,,,,,,,,,,,,,,,,,,,,,,,,,,,,,,,,,,,,,,,,,,,,,,,,,,,,,,,,,,,,,,,,,,,,,,,,,,,,,,,,,,,,,,,,,,,,,,,,,,343.7346268649999,None,1,1.1683687539998573,343.7346268649999,None,343.7346268649999,None,344.95058393599993,None,344.95058393599993,None,344.95058393599993,None,1,0.5704167719995894,344.95058393599993,None,021822,0,2,0,2,3,1,2,0,16,2022_Feb_18_1136,listening_fmri,3.2.4,59.8930702662268,
2,parcelated_audio/23/23_1.ogg,,,,,,,,,0,0,0,0,0,2,2,2,0,0,0,0,,,,,,,,,0,0,0,0,0,0,0,0,,,,,,,,,,,,,,,,,,,,,,,,,,,,,,,,,,,,345.55089058700014,None,1,0.819106035999539,345.55089058700014,None,304.2928942689996,307.298912577,307.3051975970002,317.70152217600025,,,,,,,,,,,,,,,,,,,,,,,,,,,,,,,,,,,,,,,,,,,,,,,,,,,,,,,,,,,,,,,,,,021822,0,2,0,2,3,1,2,0,16,2022_Feb_18_1136,listening_fmri,3.2.4,59.8930702662268,
2,parcelated_audio/23/23_2.ogg,,,,,,,,,0,0,0,0,0,2,2,2,0,0,0,0,,,,,,,,,0,0,0,0,0,1,1,1,,,,,,,,,,,,,,,,,,,,,,,,,,,,,,,,,,,,,,,,,,,,317.70301327299967,324.5810574669995,,,,,,,,,,,,,,,,,,,,,,,,,,,,,,,,,,,,,,,,,,,,,,,,,,,,,,,,,,,,,,,,,,021822,0,2,0,2,3,1,2,0,16,2022_Feb_18_1136,listening_fmri,3.2.4,59.8930702662268,
2,parcelated_audio/23/23_3.ogg,,,,,,,,,0,0,0,0,0,2,2,2,0,0,0,0,,,,,,,,,0,0,0,0,0,2,2,2,,,,,,,,,,,,,,,,,,,,,,,,,,,,,,,,,,,,,,,,,,,,324.5813412110001,330.3521619129997,,,,,,,,,,,,,,,,,,,,,,,,,,,,,,,,,,,,,,,,,,,,,,,,,,,,,,,,,,,,,,,,,,021822,0,2,0,2,3,1,2,0,16,2022_Feb_18_1136,listening_fmri,3.2.4,59.8930702662268,
2,parcelated_audio/23/23_4.ogg,,,,,,,,,0,0,0,0,0,2,2,2,0,0,0,0,,,,,,,,,0,0,0,0,0,3,3,3,,,,,,,,,,,,,,,,,,,,,,,,,,,,,,,,,,,,,,,,,,,,330.3525270909995,341.6210938719996,,,,,,,,,,,,,,,,,,,,,,,,,,,,,,,,,,,,,,,,,,,,,,,,,,,,,,,,,,,,,,,,,,021822,0,2,0,2,3,1,2,0,16,2022_Feb_18_1136,listening_fmri,3.2.4,59.8930702662268,
2,parcelated_audio/23/23_5.ogg,,,,,,,,,0,0,0,0,0,2,2,2,0,0,0,0,,,,,,,,,0,0,0,0,0,4,4,4,,,,,,,,,,,,,,,,,,,,,,,,,,,,,,,,,,,,,,,,,,,,341.6216210579996,347.8349819699997,,,,,,,,,,,,,,,,,,,,,,,,,,,,,,,,,,,,,,,,,,,,,,,,,,,,,,,,,,,,,,,,,,021822,0,2,0,2,3,1,2,0,16,2022_Feb_18_1136,listening_fmri,3.2.4,59.8930702662268,
2,parcelated_audio/23/23_6.ogg,,,,,,,,,0,0,0,0,0,2,2,2,0,0,0,0,,,,,,,,,0,0,0,0,0,5,5,5,,,,,,,,,,,,,,,,,,,,,,,,,,,,,,,,,,,,,,,,,,,,347.8353357569995,355.248302512,,,,,,,,,,,,,,,,,,,,,,,,,,,,,,,,,,,,,,,,,,,,,,,,,,,,,,,,,,,,,,,,,,021822,0,2,0,2,3,1,2,0,16,2022_Feb_18_1136,listening_fmri,3.2.4,59.8930702662268,
2,parcelated_audio/23/23_7.ogg,,,,,,,,,0,0,0,0,0,2,2,2,0,0,0,0,,,,,,,,,0,0,0,0,0,6,6,6,,,,,,,,,,,,,,,,,,,,,,,,,,,,,,,,,,,,,,,,,,,,355.24865905800016,362.0162264159999,,,,,,,,,,,,,,,,,,,,,,,,,,,,,,,,,,,,,,,,,,,,,,,,,,,,,,,,,,,,,,,,,,021822,0,2,0,2,3,1,2,0,16,2022_Feb_18_1136,listening_fmri,3.2.4,59.8930702662268,
2,parcelated_audio/23/23_8.ogg,,,,,,,,,0,0,0,0,0,2,2,2,0,0,0,0,,,,,,,,,0,0,0,0,0,7,7,7,,,,,,,,,,,,,,,,,,,,,,,,,,,,,,,,,,,,,,,,,,,,362.01676530700024,367.41889048600024,,,,,,,,,,,,,,,,,,,,,,,,,,,,,,,,,,,,,,,,,,,,,,,,,,,,,,,,,,,,,,,,,,021822,0,2,0,2,3,1,2,0,16,2022_Feb_18_1136,listening_fmri,3.2.4,59.8930702662268,
2,parcelated_audio/23/23_9.ogg,,,,,,,,,0,0,0,0,0,2,2,2,0,0,0,0,,,,,,,,,0,0,0,0,0,8,8,8,,,,,,,,,,,,,,,,,,,,,,,,,,,,,,,,,,,,,,,,,,,,367.41924353000013,371.8003698399998,,,,,,,,,,,,,,,,,,,,,,,,,,,,,,,,,,,,,,,,,,,,,,,,,,,,,,,,,,,,,,,,,,021822,0,2,0,2,3,1,2,0,16,2022_Feb_18_1136,listening_fmri,3.2.4,59.8930702662268,
2,parcelated_audio/23/23_10.ogg,,,,,,,,,0,0,0,0,0,2,2,2,0,0,0,0,,,,,,,,,0,0,0,0,0,9,9,9,,,,,,,,,,,,,,,,,,,,,,,,,,,,,,,,,,,,,,,,,,,,371.8007383759996,375.85346582199963,,,,,,,,,,,,,,,,,,,,,,,,,,,,,,,,,,,,,,,,,,,,,,,,,,,,,,,,,,,,,,,,,,021822,0,2,0,2,3,1,2,0,16,2022_Feb_18_1136,listening_fmri,3.2.4,59.8930702662268,
2,parcelated_audio/23/23_11.ogg,,,,,,,,,0,0,0,0,0,2,2,2,0,0,0,0,,,,,,,,,0,0,0,0,0,10,10,10,,,,,,,,,,,,,,,,,,,,,,,,,,,,,,,,,,,,,,,,,,,,375.853821228,383.97606511399954,,,,,,,,,,,,,,,,,,,,,,,,,,,,,,,,,,,,,,,,,,,,,,,,,,,,,,,,,,,,,,,,,,021822,0,2,0,2,3,1,2,0,16,2022_Feb_18_1136,listening_fmri,3.2.4,59.8930702662268,
2,parcelated_audio/23/23_12.ogg,,,,,,,,,0,0,0,0,0,2,2,2,0,0,0,0,,,,,,,,,0,0,0,0,0,11,11,11,,,,,,,,,,,,,,,,,,,,,,,,,,,,,,,,,,,,,,,,,,,,383.9765459829996,391.1150868369996,,,,,,,,,,,,,,,,,,,,,,,,,,,,,,,,,,,,,,,,,,,,,,,,,,,,,,,,,,,,,,,,,,021822,0,2,0,2,3,1,2,0,16,2022_Feb_18_1136,listening_fmri,3.2.4,59.8930702662268,
2,parcelated_audio/23/23_13.ogg,,,,,,,,,0,0,0,0,0,2,2,2,0,0,0,0,,,,,,,,,0,0,0,0,0,12,12,12,,,,,,,,,,,,,,,,,,,,,,,,,,,,,,,,,,,,,,,,,,,,391.1154491979996,397.8920597719998,,,,,,,,,,,,,,,,,,,,,,,,,,,,,,,,,,,,,,,,,,,,,,,,,,,,,,,,,,,,,,,,,,021822,0,2,0,2,3,1,2,0,16,2022_Feb_18_1136,listening_fmri,3.2.4,59.8930702662268,
2,parcelated_audio/23/23_14.ogg,,,,,,,,,0,0,0,0,0,2,2,2,0,0,0,0,,,,,,,,,0,0,0,0,0,13,13,13,,,,,,,,,,,,,,,,,,,,,,,,,,,,,,,,,,,,,,,,,,,,397.89241676799975,402.26940734599975,,,,,,,,,,,,,,,,,,,,,,,,,,,,,,,,,,,,,,,,,,,,,,,,,,,,,,,,,,,,,,,,,,021822,0,2,0,2,3,1,2,0,16,2022_Feb_18_1136,listening_fmri,3.2.4,59.8930702662268,
