count,audio,trials_14.thisRepN,trials_14.thisTrialN,trials_14.thisN,trials_14.thisIndex,trials_3.thisRepN,trials_3.thisTrialN,trials_3.thisN,trials_3.thisIndex,trials_4.thisRepN,trials_4.thisTrialN,trials_4.thisN,trials_4.thisIndex,trials_6.thisRepN,trials_6.thisTrialN,trials_6.thisN,trials_6.thisIndex,trials_9.thisRepN,trials_9.thisTrialN,trials_9.thisN,trials_9.thisIndex,trials_10.thisRepN,trials_10.thisTrialN,trials_10.thisN,trials_10.thisIndex,trials_11.thisRepN,trials_11.thisTrialN,trials_11.thisN,trials_11.thisIndex,trials_12.thisRepN,trials_12.thisTrialN,trials_12.thisN,trials_12.thisIndex,trials_25.thisRepN,trials_25.thisTrialN,trials_25.thisN,trials_25.thisIndex,trials_15.thisRepN,trials_15.thisTrialN,trials_15.thisN,trials_15.thisIndex,trials_26.thisRepN,trials_26.thisTrialN,trials_26.thisN,trials_26.thisIndex,story_list_block2,action_list_block2,textTrigger.started,textTrigger.stopped,getTrigger.keys,getTrigger.rt,getTrigger.started,getTrigger.stopped,triggerTime,text_76.started,text_76.stopped,text_77.started,text_77.stopped,startWait,endWait,image_23.started,image_23.stopped,text_55.started,text_55.stopped,text_56.started,text_56.stopped,key_resp_2.keys,key_resp_2.rt,key_resp_2.started,key_resp_2.stopped,text_82.started,text_82.stopped,text_57.started,text_57.stopped,key_resp_17.keys,key_resp_17.rt,key_resp_17.started,key_resp_17.stopped,text_83.started,text_83.stopped,text_60.started,text_60.stopped,image_2.started,image_2.stopped,text_58.started,text_58.stopped,key_resp_23.keys,key_resp_23.rt,key_resp_23.started,key_resp_23.stopped,text_62.started,text_62.stopped,key_resp_18.keys,key_resp_18.rt,key_resp_18.started,key_resp_18.stopped,text_84.started,text_84.stopped,question1_2.started,question1_2.stopped,question2_2.started,question2_2.stopped,question3_2.started,question3_2.stopped,question4_2.started,question4_2.stopped,question5_2.started,question5_2.stopped,question6_2.started,question6_2.stopped,image_15.started,image_15.stopped,key_resp.keys,key_resp.started,key_resp.stopped,text_59.started,text_59.stopped,key_resp_19.keys,key_resp_19.rt,key_resp_19.started,key_resp_19.stopped,text_85.started,text_85.stopped,text_61.started,text_61.stopped,image_17.started,image_17.stopped,text_63.started,text_63.stopped,key_resp_24.keys,key_resp_24.rt,key_resp_24.started,key_resp_24.stopped,text_64.started,text_64.stopped,key_resp_20.keys,key_resp_20.rt,key_resp_20.started,key_resp_20.stopped,storyImage_StartTime,storyImage_EndTime,clip_StartTime,clip_EndTime,text_67.started,text_67.stopped,text_68.started,text_68.stopped,participant,sA,sB,lA,lB,block_struct,play_stories,block,behavioral,random_seed,date,expName,psychopyVersion,frameRate,
0,,,,,,,,,,0,0,0,0,0,0,0,0,0,0,0,0,0,0,0,0,0,0,0,0,,,,,,,,,,,,,,,,,[22 44 13 31 33 42 11 24],[2 1 1 2 4 3 3 4],13.040823266000189,None,equal,21.855663614999685,13.040823266000189,None,21.88445075999971,13.040823266000189,None,13.040823266000189,None,0.00034292100008315174,5.9981482660004986,34.92697462199976,None,40.927075067999795,None,40.927075067999795,None,8,1.6004167039991444,40.927075067999795,None,40.927075067999795,None,42.54384687200036,None,8,0.6865636630000154,42.54384687200036,None,42.54384687200036,None,43.27760180600035,None,43.27760180600035,None,43.27760180600035,None,8,1.1537742499995147,43.27760180600035,None,44.46062145700034,None,7,1.294882501999382,44.46062145700034,None,44.46062145700034,None,45.85665805999997,None,45.85665805999997,None,45.85665805999997,None,45.85665805999997,None,45.85665805999997,None,45.85665805999997,None,45.85665805999997,None,None,45.85665805999997,None,,,,,,,,,,,,,,,,,,,,,,,,,,,,,,,,,110621,0,3,0,1,0,1,2,0,26,2021_Nov_06_1127,listening_fmri,3.2.4,59.73082375952112,
0,,,,,,,,,,0,0,0,0,0,0,0,0,0,0,0,0,0,0,0,0,,,,,,,,,,,,,,,,,,,,,,,,,,,,,,,,,,,,,,,,,,,,,,,,,,,,,,,,,,,,,,,,,,,,,,,,,,,,,,,,,,,,,,,,,,,64.94330063799953,None,3,2.1412146270004087,64.94330063799953,None,64.94330063799953,None,67.12368625099953,None,67.12368625099953,None,67.12368625099953,None,2,0.725825370000166,67.12368625099953,None,,,,,,,,,,,,,,,110621,0,3,0,1,0,1,2,0,26,2021_Nov_06_1127,listening_fmri,3.2.4,59.73082375952112,
0,parcelated_audio/22/22_1.ogg,,,,,,,,,0,0,0,0,0,0,0,0,0,0,0,0,,,,,,,,,,,,,0,0,0,0,0,0,0,0,,,,,,,,,,,,,,,,,,,,,,,,,,,,,,,,,,,,,,,,,,,,,,,,,,,,,,,,,,,,,,,,,,,,,,,,,,,,,,,,,,,,,,,,,,,,,67.87671737599976,None,3,1.6967939930000284,67.87671737599976,None,34.68361138399996,37.698742839999795,37.7048370120001,50.77264916100012,,,,,110621,0,3,0,1,0,1,2,0,26,2021_Nov_06_1127,listening_fmri,3.2.4,59.73082375952112,
0,parcelated_audio/22/22_2.ogg,,,,,,,,,0,0,0,0,0,0,0,0,0,0,0,0,,,,,,,,,,,,,0,0,0,0,0,1,1,1,,,,,,,,,,,,,,,,,,,,,,,,,,,,,,,,,,,,,,,,,,,,,,,,,,,,,,,,,,,,,,,,,,,,,,,,,,,,,,,,,,,,,,,,,,,,,,,,,,,,,50.77296821999971,57.147842680000394,,,,,110621,0,3,0,1,0,1,2,0,26,2021_Nov_06_1127,listening_fmri,3.2.4,59.73082375952112,
0,parcelated_audio/22/22_3.ogg,,,,,,,,,0,0,0,0,0,0,0,0,0,0,0,0,,,,,,,,,,,,,0,0,0,0,0,2,2,2,,,,,,,,,,,,,,,,,,,,,,,,,,,,,,,,,,,,,,,,,,,,,,,,,,,,,,,,,,,,,,,,,,,,,,,,,,,,,,,,,,,,,,,,,,,,,,,,,,,,,57.14824777400008,70.06104866700025,,,,,110621,0,3,0,1,0,1,2,0,26,2021_Nov_06_1127,listening_fmri,3.2.4,59.73082375952112,
0,parcelated_audio/22/22_4.ogg,,,,,,,,,0,0,0,0,0,0,0,0,0,0,0,0,,,,,,,,,,,,,0,0,0,0,0,3,3,3,,,,,,,,,,,,,,,,,,,,,,,,,,,,,,,,,,,,,,,,,,,,,,,,,,,,,,,,,,,,,,,,,,,,,,,,,,,,,,,,,,,,,,,,,,,,,,,,,,,,,70.06148042200039,82.47606565899969,,,,,110621,0,3,0,1,0,1,2,0,26,2021_Nov_06_1127,listening_fmri,3.2.4,59.73082375952112,
0,parcelated_audio/22/22_5.ogg,,,,,,,,,0,0,0,0,0,0,0,0,0,0,0,0,,,,,,,,,,,,,0,0,0,0,0,4,4,4,,,,,,,,,,,,,,,,,,,,,,,,,,,,,,,,,,,,,,,,,,,,,,,,,,,,,,,,,,,,,,,,,,,,,,,,,,,,,,,,,,,,,,,,,,,,,,,,,,,,,82.4768854240001,88.40073346200006,,,,,110621,0,3,0,1,0,1,2,0,26,2021_Nov_06_1127,listening_fmri,3.2.4,59.73082375952112,
0,parcelated_audio/22/22_6.ogg,,,,,,,,,0,0,0,0,0,0,0,0,0,0,0,0,,,,,,,,,,,,,0,0,0,0,0,5,5,5,,,,,,,,,,,,,,,,,,,,,,,,,,,,,,,,,,,,,,,,,,,,,,,,,,,,,,,,,,,,,,,,,,,,,,,,,,,,,,,,,,,,,,,,,,,,,,,,,,,,,88.40115298700039,97.59495045200038,,,,,110621,0,3,0,1,0,1,2,0,26,2021_Nov_06_1127,listening_fmri,3.2.4,59.73082375952112,
0,parcelated_audio/22/22_7.ogg,,,,,,,,,0,0,0,0,0,0,0,0,0,0,0,0,,,,,,,,,,,,,0,0,0,0,0,6,6,6,,,,,,,,,,,,,,,,,,,,,,,,,,,,,,,,,,,,,,,,,,,,,,,,,,,,,,,,,,,,,,,,,,,,,,,,,,,,,,,,,,,,,,,,,,,,,,,,,,,,,97.59525408900026,102.5828888699998,,,,,110621,0,3,0,1,0,1,2,0,26,2021_Nov_06_1127,listening_fmri,3.2.4,59.73082375952112,
0,parcelated_audio/22/22_8.ogg,,,,,,,,,0,0,0,0,0,0,0,0,0,0,0,0,,,,,,,,,,,,,0,0,0,0,0,7,7,7,,,,,,,,,,,,,,,,,,,,,,,,,,,,,,,,,,,,,,,,,,,,,,,,,,,,,,,,,,,,,,,,,,,,,,,,,,,,,,,,,,,,,,,,,,,,,,,,,,,,,102.58324150299995,106.11363612100013,,,,,110621,0,3,0,1,0,1,2,0,26,2021_Nov_06_1127,listening_fmri,3.2.4,59.73082375952112,
0,parcelated_audio/22/22_9.ogg,,,,,,,,,0,0,0,0,0,0,0,0,0,0,0,0,,,,,,,,,,,,,0,0,0,0,0,8,8,8,,,,,,,,,,,,,,,,,,,,,,,,,,,,,,,,,,,,,,,,,,,,,,,,,,,,,,,,,,,,,,,,,,,,,,,,,,,,,,,,,,,,,,,,,,,,,,,,,,,,,106.1139971499997,110.01440972100045,,,,,110621,0,3,0,1,0,1,2,0,26,2021_Nov_06_1127,listening_fmri,3.2.4,59.73082375952112,
0,parcelated_audio/22/22_10.ogg,,,,,,,,,0,0,0,0,0,0,0,0,0,0,0,0,,,,,,,,,,,,,0,0,0,0,0,9,9,9,,,,,,,,,,,,,,,,,,,,,,,,,,,,,,,,,,,,,,,,,,,,,,,,,,,,,,,,,,,,,,,,,,,,,,,,,,,,,,,,,,,,,,,,,,,,,,,,,,,,,110.01476405999983,114.78164676000051,,,,,110621,0,3,0,1,0,1,2,0,26,2021_Nov_06_1127,listening_fmri,3.2.4,59.73082375952112,
0,parcelated_audio/22/22_11.ogg,,,,,,,,,0,0,0,0,0,0,0,0,0,0,0,0,,,,,,,,,,,,,0,0,0,0,0,10,10,10,,,,,,,,,,,,,,,,,,,,,,,,,,,,,,,,,,,,,,,,,,,,,,,,,,,,,,,,,,,,,,,,,,,,,,,,,,,,,,,,,,,,,,,,,,,,,,,,,,,,,114.78201078199982,122.06144202700034,,,,,110621,0,3,0,1,0,1,2,0,26,2021_Nov_06_1127,listening_fmri,3.2.4,59.73082375952112,
0,parcelated_audio/22/22_12.ogg,,,,,,,,,0,0,0,0,0,0,0,0,0,0,0,0,,,,,,,,,,,,,0,0,0,0,0,11,11,11,,,,,,,,,,,,,,,,,,,,,,,,,,,,,,,,,,,,,,,,,,,,,,,,,,,,,,,,,,,,,,,,,,,,,,,,,,,,,,,,,,,,,,,,,,,,,,,,,,,,,122.06179436900038,129.78214569400006,,,,,110621,0,3,0,1,0,1,2,0,26,2021_Nov_06_1127,listening_fmri,3.2.4,59.73082375952112,
0,parcelated_audio/22/22_13.ogg,,,,,,,,,0,0,0,0,0,0,0,0,0,0,0,0,,,,,,,,,,,,,0,0,0,0,0,12,12,12,,,,,,,,,,,,,,,,,,,,,,,,,,,,,,,,,,,,,,,,,,,,,,,,,,,,,,,,,,,,,,,,,,,,,,,,,,,,,,,,,,,,,,,,,,,,,,,,,,,,,129.78250034699977,137.06078395399982,,,,,110621,0,3,0,1,0,1,2,0,26,2021_Nov_06_1127,listening_fmri,3.2.4,59.73082375952112,
0,parcelated_audio/22/22_14.ogg,,,,,,,,,0,0,0,0,0,0,0,0,0,0,0,0,,,,,,,,,,,,,0,0,0,0,0,13,13,13,,,,,,,,,,,,,,,,,,,,,,,,,,,,,,,,,,,,,,,,,,,,,,,,,,,,,,,,,,,,,,,,,,,,,,,,,,,,,,,,,,,,,,,,,,,,,,,,,,,,,137.06179289200008,142.69422495300023,,,,,110621,0,3,0,1,0,1,2,0,26,2021_Nov_06_1127,listening_fmri,3.2.4,59.73082375952112,
0,parcelated_audio/22/22_15.ogg,,,,,,,,,0,0,0,0,0,0,0,0,0,0,0,0,,,,,,,,,,,,,0,0,0,0,0,14,14,14,,,,,,,,,,,,,,,,,,,,,,,,,,,,,,,,,,,,,,,,,,,,,,,,,,,,,,,,,,,,,,,,,,,,,,,,,,,,,,,,,,,,,,,,,,,,,,,,,,,,,142.69457942900044,150.46382865299984,,,,,110621,0,3,0,1,0,1,2,0,26,2021_Nov_06_1127,listening_fmri,3.2.4,59.73082375952112,
0,parcelated_audio/22/22_16.ogg,,,,,,,,,0,0,0,0,0,0,0,0,0,0,0,0,,,,,,,,,,,,,0,0,0,0,0,15,15,15,,,,,,,,,,,,,,,,,,,,,,,,,,,,,,,,,,,,,,,,,,,,,,,,,,,,,,,,,,,,,,,,,,,,,,,,,,,,,,,,,,,,,,,,,,,,,,,,,,,,,150.464197583,159.1337193620002,,,,,110621,0,3,0,1,0,1,2,0,26,2021_Nov_06_1127,listening_fmri,3.2.4,59.73082375952112,
0,parcelated_audio/22/22_17.ogg,,,,,,,,,0,0,0,0,0,0,0,0,0,0,0,0,,,,,,,,,,,,,0,0,0,0,0,16,16,16,,,,,,,,,,,,,,,,,,,,,,,,,,,,,,,,,,,,,,,,,,,,,,,,,,,,,,,,,,,,,,,,,,,,,,,,,,,,,,,,,,,,,,,,,,,,,,,,,,,,,159.13406563199987,162.28944329299975,,,,,110621,0,3,0,1,0,1,2,0,26,2021_Nov_06_1127,listening_fmri,3.2.4,59.73082375952112,
0,parcelated_audio/22/22_18.ogg,,,,,,,,,0,0,0,0,0,0,0,0,0,0,0,0,,,,,,,,,,,,,0,0,0,0,0,17,17,17,,,,,,,,,,,,,,,,,,,,,,,,,,,,,,,,,,,,,,,,,,,,,,,,,,,,,,,,,,,,,,,,,,,,,,,,,,,,,,,,,,,,,,,,,,,,,,,,,,,,,162.28980024700013,169.01563693499975,,,,,110621,0,3,0,1,0,1,2,0,26,2021_Nov_06_1127,listening_fmri,3.2.4,59.73082375952112,
0,parcelated_audio/22/22_19.ogg,,,,,,,,,0,0,0,0,0,0,0,0,0,0,0,0,,,,,,,,,,,,,0,0,0,0,0,18,18,18,,,,,,,,,,,,,,,,,,,,,,,,,,,,,,,,,,,,,,,,,,,,,,,,,,,,,,,,,,,,,,,,,,,,,,,,,,,,,,,,,,,,,,,,,,,,,,,,,,,,,169.01599490199987,173.9775442299997,,,,,110621,0,3,0,1,0,1,2,0,26,2021_Nov_06_1127,listening_fmri,3.2.4,59.73082375952112,
0,parcelated_audio/22/22_20.ogg,,,,,,,,,0,0,0,0,0,0,0,0,0,0,0,0,,,,,,,,,,,,,0,0,0,0,0,19,19,19,,,,,,,,,,,,,,,,,,,,,,,,,,,,,,,,,,,,,,,,,,,,,,,,,,,,,,,,,,,,,,,,,,,,,,,,,,,,,,,,,,,,,,,,,,,,,,,,,,,,,173.97789808400012,188.19737000500027,,,,,110621,0,3,0,1,0,1,2,0,26,2021_Nov_06_1127,listening_fmri,3.2.4,59.73082375952112,
0,parcelated_audio/22/22_21.ogg,,,,,,,,,0,0,0,0,0,0,0,0,0,0,0,0,,,,,,,,,,,,,0,0,0,0,0,20,20,20,,,,,,,,,,,,,,,,,,,,,,,,,,,,,,,,,,,,,,,,,,,,,,,,,,,,,,,,,,,,,,,,,,,,,,,,,,,,,,,,,,,,,,,,,,,,,,,,,,,,,188.19769787299992,190.20535709199976,,,,,110621,0,3,0,1,0,1,2,0,26,2021_Nov_06_1127,listening_fmri,3.2.4,59.73082375952112,
0,parcelated_audio/22/22_22.ogg,,,,,,,,,0,0,0,0,0,0,0,0,0,0,0,0,,,,,,,,,,,,,0,0,0,0,0,21,21,21,,,,,,,,,,,,,,,,,,,,,,,,,,,,,,,,,,,,,,,,,,,,,,,,,,,,,,,,,,,,,,,,,,,,,,,,,,,,,,,,,,,,,,,,,,,,,,,,,,,,,190.20573145700018,193.35368384200046,,,,,110621,0,3,0,1,0,1,2,0,26,2021_Nov_06_1127,listening_fmri,3.2.4,59.73082375952112,
0,parcelated_audio/22/22_23.ogg,,,,,,,,,0,0,0,0,0,0,0,0,0,0,0,0,,,,,,,,,,,,,0,0,0,0,0,22,22,22,,,,,,,,,,,,,,,,,,,,,,,,,,,,,,,,,,,,,,,,,,,,,,,,,,,,,,,,,,,,,,,,,,,,,,,,,,,,,,,,,,,,,,,,,,,,,,,,,,,,,193.3540368849999,199.8894271270001,,,,,110621,0,3,0,1,0,1,2,0,26,2021_Nov_06_1127,listening_fmri,3.2.4,59.73082375952112,
0,parcelated_audio/22/22_24.ogg,,,,,,,,,0,0,0,0,0,0,0,0,0,0,0,0,,,,,,,,,,,,,0,0,0,0,0,23,23,23,,,,,,,,,,,,,,,,,,,,,,,,,,,,,,,,,,,,,,,,,,,,,,,,,,,,,,,,,,,,,,,,,,,,,,,,,,,,,,,,,,,,,,,,,,,,,,,,,,,,,199.88977798700034,205.6226932210002,,,,,110621,0,3,0,1,0,1,2,0,26,2021_Nov_06_1127,listening_fmri,3.2.4,59.73082375952112,
0,parcelated_audio/22/22_25.ogg,,,,,,,,,0,0,0,0,0,0,0,0,0,0,0,0,,,,,,,,,,,,,0,0,0,0,0,24,24,24,,,,,,,,,,,,,,,,,,,,,,,,,,,,,,,,,,,,,,,,,,,,,,,,,,,,,,,,,,,,,,,,,,,,,,,,,,,,,,,,,,,,,,,,,,,,,,,,,,,,,205.62315278000005,218.312773656,,,,,110621,0,3,0,1,0,1,2,0,26,2021_Nov_06_1127,listening_fmri,3.2.4,59.73082375952112,
0,parcelated_audio/22/22_26.ogg,,,,,,,,,0,0,0,0,0,0,0,0,0,0,0,0,,,,,,,,,,,,,0,0,0,0,0,25,25,25,,,,,,,,,,,,,,,,,,,,,,,,,,,,,,,,,,,,,,,,,,,,,,,,,,,,,,,,,,,,,,,,,,,,,,,,,,,,,,,,,,,,,,,,,,,,,,,,,,,,,218.3131402449999,225.0458524810001,,,,,110621,0,3,0,1,0,1,2,0,26,2021_Nov_06_1127,listening_fmri,3.2.4,59.73082375952112,
0,parcelated_audio/22/22_27.ogg,,,,,,,,,0,0,0,0,0,0,0,0,0,0,0,0,,,,,,,,,,,,,0,0,0,0,0,26,26,26,,,,,,,,,,,,,,,,,,,,,,,,,,,,,,,,,,,,,,,,,,,,,,,,,,,,,,,,,,,,,,,,,,,,,,,,,,,,,,,,,,,,,,,,,,,,,,,,,,,,,225.04625416599993,229.46563782700014,,,,,110621,0,3,0,1,0,1,2,0,26,2021_Nov_06_1127,listening_fmri,3.2.4,59.73082375952112,
0,parcelated_audio/22/22_28.ogg,,,,,,,,,0,0,0,0,0,0,0,0,0,0,0,0,,,,,,,,,,,,,0,0,0,0,0,27,27,27,,,,,,,,,,,,,,,,,,,,,,,,,,,,,,,,,,,,,,,,,,,,,,,,,,,,,,,,,,,,,,,,,,,,,,,,,,,,,,,,,,,,,,,,,,,,,,,,,,,,,229.46599451699967,235.21759652299988,,,,,110621,0,3,0,1,0,1,2,0,26,2021_Nov_06_1127,listening_fmri,3.2.4,59.73082375952112,
0,parcelated_audio/22/22_29.ogg,,,,,,,,,0,0,0,0,0,0,0,0,0,0,0,0,,,,,,,,,,,,,0,0,0,0,0,28,28,28,,,,,,,,,,,,,,,,,,,,,,,,,,,,,,,,,,,,,,,,,,,,,,,,,,,,,,,,,,,,,,,,,,,,,,,,,,,,,,,,,,,,,,,,,,,,,,,,,,,,,235.21804973100006,240.92942191899965,,,,,110621,0,3,0,1,0,1,2,0,26,2021_Nov_06_1127,listening_fmri,3.2.4,59.73082375952112,
0,parcelated_audio/22/22_30.ogg,,,,,,,,,0,0,0,0,0,0,0,0,0,0,0,0,,,,,,,,,,,,,0,0,0,0,0,29,29,29,,,,,,,,,,,,,,,,,,,,,,,,,,,,,,,,,,,,,,,,,,,,,,,,,,,,,,,,,,,,,,,,,,,,,,,,,,,,,,,,,,,,,,,,,,,,,,,,,,,,,240.9297742380004,243.64570106500014,,,,,110621,0,3,0,1,0,1,2,0,26,2021_Nov_06_1127,listening_fmri,3.2.4,59.73082375952112,
0,parcelated_audio/22/22_31.ogg,,,,,,,,,0,0,0,0,0,0,0,0,0,0,0,0,,,,,,,,,,,,,0,0,0,0,0,30,30,30,,,,,,,,,,,,,,,,,,,,,,,,,,,,,,,,,,,,,,,,,,,,,,,,,,,,,,,,,,,,,,,,,,,,,,,,,,,,,,,,,,,,,,,,,,,,,,,,,,,,,243.64605511199989,248.81076089399994,,,,,110621,0,3,0,1,0,1,2,0,26,2021_Nov_06_1127,listening_fmri,3.2.4,59.73082375952112,
0,parcelated_audio/22/22_32.ogg,,,,,,,,,0,0,0,0,0,0,0,0,0,0,0,0,,,,,,,,,,,,,0,0,0,0,0,31,31,31,,,,,,,,,,,,,,,,,,,,,,,,,,,,,,,,,,,,,,,,,,,,,,,,,,,,,,,,,,,,,,,,,,,,,,,,,,,,,,,,,,,,,,,,,,,,,,,,,,,,,248.81110448799973,255.1308902440005,,,,,110621,0,3,0,1,0,1,2,0,26,2021_Nov_06_1127,listening_fmri,3.2.4,59.73082375952112,
0,parcelated_audio/22/22_33.ogg,,,,,,,,,0,0,0,0,0,0,0,0,0,0,0,0,,,,,,,,,,,,,0,0,0,0,0,32,32,32,,,,,,,,,,,,,,,,,,,,,,,,,,,,,,,,,,,,,,,,,,,,,,,,,,,,,,,,,,,,,,,,,,,,,,,,,,,,,,,,,,,,,,,,,,,,,,,,,,,,,255.13130430300043,259.5650415549999,,,,,110621,0,3,0,1,0,1,2,0,26,2021_Nov_06_1127,listening_fmri,3.2.4,59.73082375952112,
0,parcelated_audio/22/22_34.ogg,,,,,,,,,0,0,0,0,0,0,0,0,0,0,0,0,,,,,,,,,,,,,0,0,0,0,0,33,33,33,,,,,,,,,,,,,,,,,,,,,,,,,,,,,,,,,,,,,,,,,,,,,,,,,,,,,,,,,,,,,,,,,,,,,,,,,,,,,,,,,,,,,,,,,,,,,,,,,,,,,259.56538461699984,267.6250697300002,,,,,110621,0,3,0,1,0,1,2,0,26,2021_Nov_06_1127,listening_fmri,3.2.4,59.73082375952112,
0,parcelated_audio/22/22_35.ogg,,,,,,,,,0,0,0,0,0,0,0,0,0,0,0,0,,,,,,,,,,,,,0,0,0,0,0,34,34,34,,,,,,,,,,,,,,,,,,,,,,,,,,,,,,,,,,,,,,,,,,,,,,,,,,,,,,,,,,,,,,,,,,,,,,,,,,,,,,,,,,,,,,,,,,,,,,,,,,,,,267.62542662099986,275.1278664090005,,,,,110621,0,3,0,1,0,1,2,0,26,2021_Nov_06_1127,listening_fmri,3.2.4,59.73082375952112,
0,parcelated_audio/22/22_36.ogg,,,,,,,,,0,0,0,0,0,0,0,0,0,0,0,0,,,,,,,,,,,,,0,0,0,0,0,35,35,35,,,,,,,,,,,,,,,,,,,,,,,,,,,,,,,,,,,,,,,,,,,,,,,,,,,,,,,,,,,,,,,,,,,,,,,,,,,,,,,,,,,,,,,,,,,,,,,,,,,,,275.12822311000036,287.83904694800003,,,,,110621,0,3,0,1,0,1,2,0,26,2021_Nov_06_1127,listening_fmri,3.2.4,59.73082375952112,
0,parcelated_audio/22/22_37.ogg,,,,,,,,,0,0,0,0,0,0,0,0,0,0,0,0,,,,,,,,,,,,,0,0,0,0,0,36,36,36,,,,,,,,,,,,,,,,,,,,,,,,,,,,,,,,,,,,,,,,,,,,,,,,,,,,,,,,,,,,,,,,,,,,,,,,,,,,,,,,,,,,,,,,,,,,,,,,,,,,,287.83941962300014,295.02818394099995,,,,,110621,0,3,0,1,0,1,2,0,26,2021_Nov_06_1127,listening_fmri,3.2.4,59.73082375952112,
0,,,,,,,,,,0,0,0,0,0,0,0,0,0,0,0,0,,,,,,,,,,,,,0,0,0,0,,,,,,,,,,,,,,,,,,,,,,,,,,,,,,,,,,,,,,,,,,,,,,,,,,,,,,,,,,,,,,,,,,,,,,,,,,,,,,,,,,,,,,,,,,,,,,,,,,,,,,,,,,,,,,,110621,0,3,0,1,0,1,2,0,26,2021_Nov_06_1127,listening_fmri,3.2.4,59.73082375952112,
,,,,,,,,,,,,,,,,,,,,,,,,,,,,,,,,,,,,,,,,,,,,,,,,,,,,,,,,,,,295.0287372060002,301.0248013319997,329.9445301169999,None,,,,,,,,,,,,,,,,,,,,,,,,,,,,,,,,,,,,,,,,,,,,,,,,,,,,,,,,,,,,,,,,,,,,,,,,,,,,,,,,,,335.95259186400017,None,335.95259186400017,None,,,,,,,,,,,,,,,
﻿count,audio,trials_14.thisRepN,trials_14.thisTrialN,trials_14.thisN,trials_14.thisIndex,trials_3.thisRepN,trials_3.thisTrialN,trials_3.thisN,trials_3.thisIndex,trials_4.thisRepN,trials_4.thisTrialN,trials_4.thisN,trials_4.thisIndex,trials_6.thisRepN,trials_6.thisTrialN,trials_6.thisN,trials_6.thisIndex,trials_9.thisRepN,trials_9.thisTrialN,trials_9.thisN,trials_9.thisIndex,trials_10.thisRepN,trials_10.thisTrialN,trials_10.thisN,trials_10.thisIndex,trials_11.thisRepN,trials_11.thisTrialN,trials_11.thisN,trials_11.thisIndex,trials_12.thisRepN,trials_12.thisTrialN,trials_12.thisN,trials_12.thisIndex,trials_25.thisRepN,trials_25.thisTrialN,trials_25.thisN,trials_25.thisIndex,trials_15.thisRepN,trials_15.thisTrialN,trials_15.thisN,trials_15.thisIndex,trials_26.thisRepN,trials_26.thisTrialN,trials_26.thisN,trials_26.thisIndex,story_list_block2,action_list_block2,textTrigger.started,textTrigger.stopped,getTrigger.keys,getTrigger.rt,getTrigger.started,getTrigger.stopped,triggerTime,text_76.started,text_76.stopped,text_77.started,text_77.stopped,startWait,endWait,image_23.started,image_23.stopped,text_55.started,text_55.stopped,text_56.started,text_56.stopped,key_resp_2.keys,key_resp_2.rt,key_resp_2.started,key_resp_2.stopped,text_82.started,text_82.stopped,text_57.started,text_57.stopped,key_resp_17.keys,key_resp_17.rt,key_resp_17.started,key_resp_17.stopped,text_83.started,text_83.stopped,text_60.started,text_60.stopped,image_2.started,image_2.stopped,text_58.started,text_58.stopped,key_resp_23.keys,key_resp_23.rt,key_resp_23.started,key_resp_23.stopped,text_62.started,text_62.stopped,key_resp_18.keys,key_resp_18.rt,key_resp_18.started,key_resp_18.stopped,text_84.started,text_84.stopped,question1_2.started,question1_2.stopped,question2_2.started,question2_2.stopped,question3_2.started,question3_2.stopped,question4_2.started,question4_2.stopped,question5_2.started,question5_2.stopped,question6_2.started,question6_2.stopped,image_15.started,image_15.stopped,key_resp.keys,key_resp.started,key_resp.stopped,text_59.started,text_59.stopped,key_resp_19.keys,key_resp_19.rt,key_resp_19.started,key_resp_19.stopped,text_85.started,text_85.stopped,text_61.started,text_61.stopped,image_17.started,image_17.stopped,text_63.started,text_63.stopped,key_resp_24.keys,key_resp_24.rt,key_resp_24.started,key_resp_24.stopped,text_64.started,text_64.stopped,key_resp_20.keys,key_resp_20.rt,key_resp_20.started,key_resp_20.stopped,storyImage_StartTime,storyImage_EndTime,clip_StartTime,clip_EndTime,text_67.started,text_67.stopped,text_68.started,text_68.stopped,participant,sA,sB,lA,lB,block_struct,play_stories,block,behavioral,random_seed,date,expName,psychopyVersion,frameRate,
0,,,,,,,,,,0,0,0,0,0,0,0,0,0,0,0,0,0,0,0,0,0,0,0,0,,,,,,,,,,,,,,,,,[22 44 13 31 33 42 11 24],[2 1 1 2 4 3 3 4],13.040823266000189,None,equal,21.855663614999685,13.040823266000189,None,21.88445075999971,13.040823266000189,None,13.040823266000189,None,0.00034292100008315174,5.9981482660004986,34.92697462199976,None,40.927075067999795,None,40.927075067999795,None,8,1.6004167039991444,40.927075067999795,None,40.927075067999795,None,42.54384687200036,None,8,0.6865636630000154,42.54384687200036,None,42.54384687200036,None,43.27760180600035,None,43.27760180600035,None,43.27760180600035,None,8,1.1537742499995147,43.27760180600035,None,44.46062145700034,None,7,1.294882501999382,44.46062145700034,None,44.46062145700034,None,45.85665805999997,None,45.85665805999997,None,45.85665805999997,None,45.85665805999997,None,45.85665805999997,None,45.85665805999997,None,45.85665805999997,None,None,45.85665805999997,None,,,,,,,,,,,,,,,,,,,,,,,,,,,,,,,,,110621,0,3,0,1,0,1,2,0,26,2021_Nov_06_1127,listening_fmri,3.2.4,59.73082375952112,
0,,,,,,,,,,0,0,0,0,0,0,0,0,0,0,0,0,0,0,0,0,,,,,,,,,,,,,,,,,,,,,,,,,,,,,,,,,,,,,,,,,,,,,,,,,,,,,,,,,,,,,,,,,,,,,,,,,,,,,,,,,,,,,,,,,,,64.94330063799953,None,3,2.1412146270004087,64.94330063799953,None,64.94330063799953,None,67.12368625099953,None,67.12368625099953,None,67.12368625099953,None,2,0.725825370000166,67.12368625099953,None,,,,,,,,,,,,,,,110621,0,3,0,1,0,1,2,0,26,2021_Nov_06_1127,listening_fmri,3.2.4,59.73082375952112,
0,parcelated_audio/22/22_1.ogg,,,,,,,,,0,0,0,0,0,0,0,0,0,0,0,0,,,,,,,,,,,,,0,0,0,0,0,0,0,0,,,,,,,,,,,,,,,,,,,,,,,,,,,,,,,,,,,,,,,,,,,,,,,,,,,,,,,,,,,,,,,,,,,,,,,,,,,,,,,,,,,,,,,,,,,,,67.87671737599976,None,3,1.6967939930000284,67.87671737599976,None,34.68361138399996,37.698742839999795,37.7048370120001,50.77264916100012,,,,,110621,0,3,0,1,0,1,2,0,26,2021_Nov_06_1127,listening_fmri,3.2.4,59.73082375952112,
0,parcelated_audio/22/22_2.ogg,,,,,,,,,0,0,0,0,0,0,0,0,0,0,0,0,,,,,,,,,,,,,0,0,0,0,0,1,1,1,,,,,,,,,,,,,,,,,,,,,,,,,,,,,,,,,,,,,,,,,,,,,,,,,,,,,,,,,,,,,,,,,,,,,,,,,,,,,,,,,,,,,,,,,,,,,,,,,,,,,50.77296821999971,57.147842680000394,,,,,110621,0,3,0,1,0,1,2,0,26,2021_Nov_06_1127,listening_fmri,3.2.4,59.73082375952112,
0,parcelated_audio/22/22_3.ogg,,,,,,,,,0,0,0,0,0,0,0,0,0,0,0,0,,,,,,,,,,,,,0,0,0,0,0,2,2,2,,,,,,,,,,,,,,,,,,,,,,,,,,,,,,,,,,,,,,,,,,,,,,,,,,,,,,,,,,,,,,,,,,,,,,,,,,,,,,,,,,,,,,,,,,,,,,,,,,,,,57.14824777400008,70.06104866700025,,,,,110621,0,3,0,1,0,1,2,0,26,2021_Nov_06_1127,listening_fmri,3.2.4,59.73082375952112,
0,parcelated_audio/22/22_4.ogg,,,,,,,,,0,0,0,0,0,0,0,0,0,0,0,0,,,,,,,,,,,,,0,0,0,0,0,3,3,3,,,,,,,,,,,,,,,,,,,,,,,,,,,,,,,,,,,,,,,,,,,,,,,,,,,,,,,,,,,,,,,,,,,,,,,,,,,,,,,,,,,,,,,,,,,,,,,,,,,,,70.06148042200039,82.47606565899969,,,,,110621,0,3,0,1,0,1,2,0,26,2021_Nov_06_1127,listening_fmri,3.2.4,59.73082375952112,
0,parcelated_audio/22/22_5.ogg,,,,,,,,,0,0,0,0,0,0,0,0,0,0,0,0,,,,,,,,,,,,,0,0,0,0,0,4,4,4,,,,,,,,,,,,,,,,,,,,,,,,,,,,,,,,,,,,,,,,,,,,,,,,,,,,,,,,,,,,,,,,,,,,,,,,,,,,,,,,,,,,,,,,,,,,,,,,,,,,,82.4768854240001,88.40073346200006,,,,,110621,0,3,0,1,0,1,2,0,26,2021_Nov_06_1127,listening_fmri,3.2.4,59.73082375952112,
0,parcelated_audio/22/22_6.ogg,,,,,,,,,0,0,0,0,0,0,0,0,0,0,0,0,,,,,,,,,,,,,0,0,0,0,0,5,5,5,,,,,,,,,,,,,,,,,,,,,,,,,,,,,,,,,,,,,,,,,,,,,,,,,,,,,,,,,,,,,,,,,,,,,,,,,,,,,,,,,,,,,,,,,,,,,,,,,,,,,88.40115298700039,97.59495045200038,,,,,110621,0,3,0,1,0,1,2,0,26,2021_Nov_06_1127,listening_fmri,3.2.4,59.73082375952112,
0,parcelated_audio/22/22_7.ogg,,,,,,,,,0,0,0,0,0,0,0,0,0,0,0,0,,,,,,,,,,,,,0,0,0,0,0,6,6,6,,,,,,,,,,,,,,,,,,,,,,,,,,,,,,,,,,,,,,,,,,,,,,,,,,,,,,,,,,,,,,,,,,,,,,,,,,,,,,,,,,,,,,,,,,,,,,,,,,,,,97.59525408900026,102.5828888699998,,,,,110621,0,3,0,1,0,1,2,0,26,2021_Nov_06_1127,listening_fmri,3.2.4,59.73082375952112,
0,parcelated_audio/22/22_8.ogg,,,,,,,,,0,0,0,0,0,0,0,0,0,0,0,0,,,,,,,,,,,,,0,0,0,0,0,7,7,7,,,,,,,,,,,,,,,,,,,,,,,,,,,,,,,,,,,,,,,,,,,,,,,,,,,,,,,,,,,,,,,,,,,,,,,,,,,,,,,,,,,,,,,,,,,,,,,,,,,,,102.58324150299995,106.11363612100013,,,,,110621,0,3,0,1,0,1,2,0,26,2021_Nov_06_1127,listening_fmri,3.2.4,59.73082375952112,
0,parcelated_audio/22/22_9.ogg,,,,,,,,,0,0,0,0,0,0,0,0,0,0,0,0,,,,,,,,,,,,,0,0,0,0,0,8,8,8,,,,,,,,,,,,,,,,,,,,,,,,,,,,,,,,,,,,,,,,,,,,,,,,,,,,,,,,,,,,,,,,,,,,,,,,,,,,,,,,,,,,,,,,,,,,,,,,,,,,,106.1139971499997,110.01440972100045,,,,,110621,0,3,0,1,0,1,2,0,26,2021_Nov_06_1127,listening_fmri,3.2.4,59.73082375952112,
0,parcelated_audio/22/22_10.ogg,,,,,,,,,0,0,0,0,0,0,0,0,0,0,0,0,,,,,,,,,,,,,0,0,0,0,0,9,9,9,,,,,,,,,,,,,,,,,,,,,,,,,,,,,,,,,,,,,,,,,,,,,,,,,,,,,,,,,,,,,,,,,,,,,,,,,,,,,,,,,,,,,,,,,,,,,,,,,,,,,110.01476405999983,114.78164676000051,,,,,110621,0,3,0,1,0,1,2,0,26,2021_Nov_06_1127,listening_fmri,3.2.4,59.73082375952112,
0,parcelated_audio/22/22_11.ogg,,,,,,,,,0,0,0,0,0,0,0,0,0,0,0,0,,,,,,,,,,,,,0,0,0,0,0,10,10,10,,,,,,,,,,,,,,,,,,,,,,,,,,,,,,,,,,,,,,,,,,,,,,,,,,,,,,,,,,,,,,,,,,,,,,,,,,,,,,,,,,,,,,,,,,,,,,,,,,,,,114.78201078199982,122.06144202700034,,,,,110621,0,3,0,1,0,1,2,0,26,2021_Nov_06_1127,listening_fmri,3.2.4,59.73082375952112,
0,parcelated_audio/22/22_12.ogg,,,,,,,,,0,0,0,0,0,0,0,0,0,0,0,0,,,,,,,,,,,,,0,0,0,0,0,11,11,11,,,,,,,,,,,,,,,,,,,,,,,,,,,,,,,,,,,,,,,,,,,,,,,,,,,,,,,,,,,,,,,,,,,,,,,,,,,,,,,,,,,,,,,,,,,,,,,,,,,,,122.06179436900038,129.78214569400006,,,,,110621,0,3,0,1,0,1,2,0,26,2021_Nov_06_1127,listening_fmri,3.2.4,59.73082375952112,
0,parcelated_audio/22/22_13.ogg,,,,,,,,,0,0,0,0,0,0,0,0,0,0,0,0,,,,,,,,,,,,,0,0,0,0,0,12,12,12,,,,,,,,,,,,,,,,,,,,,,,,,,,,,,,,,,,,,,,,,,,,,,,,,,,,,,,,,,,,,,,,,,,,,,,,,,,,,,,,,,,,,,,,,,,,,,,,,,,,,129.78250034699977,137.06078395399982,,,,,110621,0,3,0,1,0,1,2,0,26,2021_Nov_06_1127,listening_fmri,3.2.4,59.73082375952112,
0,parcelated_audio/22/22_14.ogg,,,,,,,,,0,0,0,0,0,0,0,0,0,0,0,0,,,,,,,,,,,,,0,0,0,0,0,13,13,13,,,,,,,,,,,,,,,,,,,,,,,,,,,,,,,,,,,,,,,,,,,,,,,,,,,,,,,,,,,,,,,,,,,,,,,,,,,,,,,,,,,,,,,,,,,,,,,,,,,,,137.06179289200008,142.69422495300023,,,,,110621,0,3,0,1,0,1,2,0,26,2021_Nov_06_1127,listening_fmri,3.2.4,59.73082375952112,
0,parcelated_audio/22/22_15.ogg,,,,,,,,,0,0,0,0,0,0,0,0,0,0,0,0,,,,,,,,,,,,,0,0,0,0,0,14,14,14,,,,,,,,,,,,,,,,,,,,,,,,,,,,,,,,,,,,,,,,,,,,,,,,,,,,,,,,,,,,,,,,,,,,,,,,,,,,,,,,,,,,,,,,,,,,,,,,,,,,,142.69457942900044,150.46382865299984,,,,,110621,0,3,0,1,0,1,2,0,26,2021_Nov_06_1127,listening_fmri,3.2.4,59.73082375952112,
0,parcelated_audio/22/22_16.ogg,,,,,,,,,0,0,0,0,0,0,0,0,0,0,0,0,,,,,,,,,,,,,0,0,0,0,0,15,15,15,,,,,,,,,,,,,,,,,,,,,,,,,,,,,,,,,,,,,,,,,,,,,,,,,,,,,,,,,,,,,,,,,,,,,,,,,,,,,,,,,,,,,,,,,,,,,,,,,,,,,150.464197583,159.1337193620002,,,,,110621,0,3,0,1,0,1,2,0,26,2021_Nov_06_1127,listening_fmri,3.2.4,59.73082375952112,
0,parcelated_audio/22/22_17.ogg,,,,,,,,,0,0,0,0,0,0,0,0,0,0,0,0,,,,,,,,,,,,,0,0,0,0,0,16,16,16,,,,,,,,,,,,,,,,,,,,,,,,,,,,,,,,,,,,,,,,,,,,,,,,,,,,,,,,,,,,,,,,,,,,,,,,,,,,,,,,,,,,,,,,,,,,,,,,,,,,,159.13406563199987,162.28944329299975,,,,,110621,0,3,0,1,0,1,2,0,26,2021_Nov_06_1127,listening_fmri,3.2.4,59.73082375952112,
0,parcelated_audio/22/22_18.ogg,,,,,,,,,0,0,0,0,0,0,0,0,0,0,0,0,,,,,,,,,,,,,0,0,0,0,0,17,17,17,,,,,,,,,,,,,,,,,,,,,,,,,,,,,,,,,,,,,,,,,,,,,,,,,,,,,,,,,,,,,,,,,,,,,,,,,,,,,,,,,,,,,,,,,,,,,,,,,,,,,162.28980024700013,169.01563693499975,,,,,110621,0,3,0,1,0,1,2,0,26,2021_Nov_06_1127,listening_fmri,3.2.4,59.73082375952112,
0,parcelated_audio/22/22_19.ogg,,,,,,,,,0,0,0,0,0,0,0,0,0,0,0,0,,,,,,,,,,,,,0,0,0,0,0,18,18,18,,,,,,,,,,,,,,,,,,,,,,,,,,,,,,,,,,,,,,,,,,,,,,,,,,,,,,,,,,,,,,,,,,,,,,,,,,,,,,,,,,,,,,,,,,,,,,,,,,,,,169.01599490199987,173.9775442299997,,,,,110621,0,3,0,1,0,1,2,0,26,2021_Nov_06_1127,listening_fmri,3.2.4,59.73082375952112,
0,parcelated_audio/22/22_20.ogg,,,,,,,,,0,0,0,0,0,0,0,0,0,0,0,0,,,,,,,,,,,,,0,0,0,0,0,19,19,19,,,,,,,,,,,,,,,,,,,,,,,,,,,,,,,,,,,,,,,,,,,,,,,,,,,,,,,,,,,,,,,,,,,,,,,,,,,,,,,,,,,,,,,,,,,,,,,,,,,,,173.97789808400012,188.19737000500027,,,,,110621,0,3,0,1,0,1,2,0,26,2021_Nov_06_1127,listening_fmri,3.2.4,59.73082375952112,
0,parcelated_audio/22/22_21.ogg,,,,,,,,,0,0,0,0,0,0,0,0,0,0,0,0,,,,,,,,,,,,,0,0,0,0,0,20,20,20,,,,,,,,,,,,,,,,,,,,,,,,,,,,,,,,,,,,,,,,,,,,,,,,,,,,,,,,,,,,,,,,,,,,,,,,,,,,,,,,,,,,,,,,,,,,,,,,,,,,,188.19769787299992,190.20535709199976,,,,,110621,0,3,0,1,0,1,2,0,26,2021_Nov_06_1127,listening_fmri,3.2.4,59.73082375952112,
0,parcelated_audio/22/22_22.ogg,,,,,,,,,0,0,0,0,0,0,0,0,0,0,0,0,,,,,,,,,,,,,0,0,0,0,0,21,21,21,,,,,,,,,,,,,,,,,,,,,,,,,,,,,,,,,,,,,,,,,,,,,,,,,,,,,,,,,,,,,,,,,,,,,,,,,,,,,,,,,,,,,,,,,,,,,,,,,,,,,190.20573145700018,193.35368384200046,,,,,110621,0,3,0,1,0,1,2,0,26,2021_Nov_06_1127,listening_fmri,3.2.4,59.73082375952112,
0,parcelated_audio/22/22_23.ogg,,,,,,,,,0,0,0,0,0,0,0,0,0,0,0,0,,,,,,,,,,,,,0,0,0,0,0,22,22,22,,,,,,,,,,,,,,,,,,,,,,,,,,,,,,,,,,,,,,,,,,,,,,,,,,,,,,,,,,,,,,,,,,,,,,,,,,,,,,,,,,,,,,,,,,,,,,,,,,,,,193.3540368849999,199.8894271270001,,,,,110621,0,3,0,1,0,1,2,0,26,2021_Nov_06_1127,listening_fmri,3.2.4,59.73082375952112,
0,parcelated_audio/22/22_24.ogg,,,,,,,,,0,0,0,0,0,0,0,0,0,0,0,0,,,,,,,,,,,,,0,0,0,0,0,23,23,23,,,,,,,,,,,,,,,,,,,,,,,,,,,,,,,,,,,,,,,,,,,,,,,,,,,,,,,,,,,,,,,,,,,,,,,,,,,,,,,,,,,,,,,,,,,,,,,,,,,,,199.88977798700034,205.6226932210002,,,,,110621,0,3,0,1,0,1,2,0,26,2021_Nov_06_1127,listening_fmri,3.2.4,59.73082375952112,
0,parcelated_audio/22/22_25.ogg,,,,,,,,,0,0,0,0,0,0,0,0,0,0,0,0,,,,,,,,,,,,,0,0,0,0,0,24,24,24,,,,,,,,,,,,,,,,,,,,,,,,,,,,,,,,,,,,,,,,,,,,,,,,,,,,,,,,,,,,,,,,,,,,,,,,,,,,,,,,,,,,,,,,,,,,,,,,,,,,,205.62315278000005,218.312773656,,,,,110621,0,3,0,1,0,1,2,0,26,2021_Nov_06_1127,listening_fmri,3.2.4,59.73082375952112,
0,parcelated_audio/22/22_26.ogg,,,,,,,,,0,0,0,0,0,0,0,0,0,0,0,0,,,,,,,,,,,,,0,0,0,0,0,25,25,25,,,,,,,,,,,,,,,,,,,,,,,,,,,,,,,,,,,,,,,,,,,,,,,,,,,,,,,,,,,,,,,,,,,,,,,,,,,,,,,,,,,,,,,,,,,,,,,,,,,,,218.3131402449999,225.0458524810001,,,,,110621,0,3,0,1,0,1,2,0,26,2021_Nov_06_1127,listening_fmri,3.2.4,59.73082375952112,
0,parcelated_audio/22/22_27.ogg,,,,,,,,,0,0,0,0,0,0,0,0,0,0,0,0,,,,,,,,,,,,,0,0,0,0,0,26,26,26,,,,,,,,,,,,,,,,,,,,,,,,,,,,,,,,,,,,,,,,,,,,,,,,,,,,,,,,,,,,,,,,,,,,,,,,,,,,,,,,,,,,,,,,,,,,,,,,,,,,,225.04625416599993,229.46563782700014,,,,,110621,0,3,0,1,0,1,2,0,26,2021_Nov_06_1127,listening_fmri,3.2.4,59.73082375952112,
0,parcelated_audio/22/22_28.ogg,,,,,,,,,0,0,0,0,0,0,0,0,0,0,0,0,,,,,,,,,,,,,0,0,0,0,0,27,27,27,,,,,,,,,,,,,,,,,,,,,,,,,,,,,,,,,,,,,,,,,,,,,,,,,,,,,,,,,,,,,,,,,,,,,,,,,,,,,,,,,,,,,,,,,,,,,,,,,,,,,229.46599451699967,235.21759652299988,,,,,110621,0,3,0,1,0,1,2,0,26,2021_Nov_06_1127,listening_fmri,3.2.4,59.73082375952112,
0,parcelated_audio/22/22_29.ogg,,,,,,,,,0,0,0,0,0,0,0,0,0,0,0,0,,,,,,,,,,,,,0,0,0,0,0,28,28,28,,,,,,,,,,,,,,,,,,,,,,,,,,,,,,,,,,,,,,,,,,,,,,,,,,,,,,,,,,,,,,,,,,,,,,,,,,,,,,,,,,,,,,,,,,,,,,,,,,,,,235.21804973100006,240.92942191899965,,,,,110621,0,3,0,1,0,1,2,0,26,2021_Nov_06_1127,listening_fmri,3.2.4,59.73082375952112,
0,parcelated_audio/22/22_30.ogg,,,,,,,,,0,0,0,0,0,0,0,0,0,0,0,0,,,,,,,,,,,,,0,0,0,0,0,29,29,29,,,,,,,,,,,,,,,,,,,,,,,,,,,,,,,,,,,,,,,,,,,,,,,,,,,,,,,,,,,,,,,,,,,,,,,,,,,,,,,,,,,,,,,,,,,,,,,,,,,,,240.9297742380004,243.64570106500014,,,,,110621,0,3,0,1,0,1,2,0,26,2021_Nov_06_1127,listening_fmri,3.2.4,59.73082375952112,
0,parcelated_audio/22/22_31.ogg,,,,,,,,,0,0,0,0,0,0,0,0,0,0,0,0,,,,,,,,,,,,,0,0,0,0,0,30,30,30,,,,,,,,,,,,,,,,,,,,,,,,,,,,,,,,,,,,,,,,,,,,,,,,,,,,,,,,,,,,,,,,,,,,,,,,,,,,,,,,,,,,,,,,,,,,,,,,,,,,,243.64605511199989,248.81076089399994,,,,,110621,0,3,0,1,0,1,2,0,26,2021_Nov_06_1127,listening_fmri,3.2.4,59.73082375952112,
0,parcelated_audio/22/22_32.ogg,,,,,,,,,0,0,0,0,0,0,0,0,0,0,0,0,,,,,,,,,,,,,0,0,0,0,0,31,31,31,,,,,,,,,,,,,,,,,,,,,,,,,,,,,,,,,,,,,,,,,,,,,,,,,,,,,,,,,,,,,,,,,,,,,,,,,,,,,,,,,,,,,,,,,,,,,,,,,,,,,248.81110448799973,255.1308902440005,,,,,110621,0,3,0,1,0,1,2,0,26,2021_Nov_06_1127,listening_fmri,3.2.4,59.73082375952112,
0,parcelated_audio/22/22_33.ogg,,,,,,,,,0,0,0,0,0,0,0,0,0,0,0,0,,,,,,,,,,,,,0,0,0,0,0,32,32,32,,,,,,,,,,,,,,,,,,,,,,,,,,,,,,,,,,,,,,,,,,,,,,,,,,,,,,,,,,,,,,,,,,,,,,,,,,,,,,,,,,,,,,,,,,,,,,,,,,,,,255.13130430300043,259.5650415549999,,,,,110621,0,3,0,1,0,1,2,0,26,2021_Nov_06_1127,listening_fmri,3.2.4,59.73082375952112,
0,parcelated_audio/22/22_34.ogg,,,,,,,,,0,0,0,0,0,0,0,0,0,0,0,0,,,,,,,,,,,,,0,0,0,0,0,33,33,33,,,,,,,,,,,,,,,,,,,,,,,,,,,,,,,,,,,,,,,,,,,,,,,,,,,,,,,,,,,,,,,,,,,,,,,,,,,,,,,,,,,,,,,,,,,,,,,,,,,,,259.56538461699984,267.6250697300002,,,,,110621,0,3,0,1,0,1,2,0,26,2021_Nov_06_1127,listening_fmri,3.2.4,59.73082375952112,
0,parcelated_audio/22/22_35.ogg,,,,,,,,,0,0,0,0,0,0,0,0,0,0,0,0,,,,,,,,,,,,,0,0,0,0,0,34,34,34,,,,,,,,,,,,,,,,,,,,,,,,,,,,,,,,,,,,,,,,,,,,,,,,,,,,,,,,,,,,,,,,,,,,,,,,,,,,,,,,,,,,,,,,,,,,,,,,,,,,,267.62542662099986,275.1278664090005,,,,,110621,0,3,0,1,0,1,2,0,26,2021_Nov_06_1127,listening_fmri,3.2.4,59.73082375952112,
0,parcelated_audio/22/22_36.ogg,,,,,,,,,0,0,0,0,0,0,0,0,0,0,0,0,,,,,,,,,,,,,0,0,0,0,0,35,35,35,,,,,,,,,,,,,,,,,,,,,,,,,,,,,,,,,,,,,,,,,,,,,,,,,,,,,,,,,,,,,,,,,,,,,,,,,,,,,,,,,,,,,,,,,,,,,,,,,,,,,275.12822311000036,287.83904694800003,,,,,110621,0,3,0,1,0,1,2,0,26,2021_Nov_06_1127,listening_fmri,3.2.4,59.73082375952112,
0,parcelated_audio/22/22_37.ogg,,,,,,,,,0,0,0,0,0,0,0,0,0,0,0,0,,,,,,,,,,,,,0,0,0,0,0,36,36,36,,,,,,,,,,,,,,,,,,,,,,,,,,,,,,,,,,,,,,,,,,,,,,,,,,,,,,,,,,,,,,,,,,,,,,,,,,,,,,,,,,,,,,,,,,,,,,,,,,,,,287.83941962300014,295.02818394099995,,,,,110621,0,3,0,1,0,1,2,0,26,2021_Nov_06_1127,listening_fmri,3.2.4,59.73082375952112,
0,,,,,,,,,,0,0,0,0,0,0,0,0,0,0,0,0,,,,,,,,,,,,,0,0,0,0,,,,,,,,,,,,,,,,,,,,,,,,,,,,,,,,,,,,,,,,,,,,,,,,,,,,,,,,,,,,,,,,,,,,,,,,,,,,,,,,,,,,,,,,,,,,,,,,,,,,,,,,,,,,,,,110621,0,3,0,1,0,1,2,0,26,2021_Nov_06_1127,listening_fmri,3.2.4,59.73082375952112,
0,,,,,,,,,,0,0,0,0,0,0,0,0,0,0,0,0,,,,,,,,,,,,,,,,,,,,,,,,,,,,,,,,,,,,,,295.0287372060002,301.0248013319997,329.9445301169999,None,,,,,,,,,,,,,,,,,,,,,,,,,,,,,,,,,,,,,,,,,,,,,,,,,,,,,,,,,,,,,,,,,,,,,,,,,,,,,,,,,,335.95259186400017,None,335.95259186400017,None,110621,0,3,0,1,0,1,2,0,26,2021_Nov_06_1127,listening_fmri,3.2.4,59.73082375952112,
0,,,,,,,,,,0,0,0,0,0,0,0,0,,,,,,,,,,,,,,,,,,,,,,,,,,,,,,,,,,,,,,,,,,,,,,,,,,,,,,,,,,,,,,,,,,,,,,,,,,,,,,,,,,,,,,,,,,,,,,,,,,,,,,,,,,,,,,,,,,,,,,,,,,,,,,,,,,,110621,0,3,0,1,0,1,2,0,26,2021_Nov_06_1127,listening_fmri,3.2.4,59.73082375952112,
1,,,,,,,,,,0,0,0,0,0,1,1,1,0,0,0,0,0,0,0,0,0,0,0,0,,,,,,,,,,,,,,,,,,,,,,,,,,,,,,,,,,336.9702567209997,None,336.9702567209997,None,8,1.5012601079997694,336.9702567209997,None,336.9702567209997,None,338.49468715700004,None,8,0.5596936590000041,338.49468715700004,None,338.49468715700004,None,339.10296431999996,None,339.10296431999996,None,339.10296431999996,None,7,0.61945020299936,339.10296431999996,None,339.74467155599996,None,7,0.8897716390001733,339.74467155599996,None,339.74467155599996,None,340.7437830050003,None,340.7437830050003,None,340.7437830050003,None,340.7437830050003,None,340.7437830050003,None,340.7437830050003,None,340.7437830050003,None,None,340.7437830050003,None,,,,,,,,,,,,,,,,,,,,,,,,,,,,,,,,,110621,0,3,0,1,0,1,2,0,26,2021_Nov_06_1127,listening_fmri,3.2.4,59.73082375952112,
1,,,,,,,,,,0,0,0,0,0,1,1,1,0,0,0,0,0,0,0,0,1,0,1,0,,,,,,,,,,,,,,,,,,,,,,,,,,,,,,,,,,,,,,,,,,,,,,,,,,,,350.6356802749997,None,350.6356802749997,None,350.6356802749997,None,7,0.6327252790006241,350.6356802749997,None,351.29407088399967,None,7,0.5163061190005465,351.29407088399967,None,351.29407088399967,None,351.91979692099994,None,351.91979692099994,None,351.91979692099994,None,351.91979692099994,None,351.91979692099994,None,351.91979692099994,None,351.91979692099994,None,None,351.91979692099994,None,,,,,,,,,,,,,,,,,,,,,,,,,,,,,,,,,110621,0,3,0,1,0,1,2,0,26,2021_Nov_06_1127,listening_fmri,3.2.4,59.73082375952112,
1,,,,,,,,,,0,0,0,0,0,1,1,1,0,0,0,0,0,0,0,0,2,0,2,0,,,,,,,,,,,,,,,,,,,,,,,,,,,,,,,,,,,,,,,,,,,,,,,,,,,,365.4189704190003,None,365.4189704190003,None,365.4189704190003,None,7,0.46153382299962686,365.4189704190003,None,365.91122252399964,None,7,0.4111707669999305,365.91122252399964,None,365.91122252399964,None,366.4282954190003,None,366.4282954190003,None,366.4282954190003,None,366.4282954190003,None,366.4282954190003,None,366.4282954190003,None,366.4282954190003,None,None,366.4282954190003,None,,,,,,,,,,,,,,,,,,,,,,,,,,,,,,,,,110621,0,3,0,1,0,1,2,0,26,2021_Nov_06_1127,listening_fmri,3.2.4,59.73082375952112,
1,,,,,,,,,,0,0,0,0,0,1,1,1,0,0,0,0,0,0,0,0,,,,,,,,,,,,,,,,,,,,,,,,,,,,,,,,,,,,,,,,,,,,,,,,,,,,,,,,,,,,,,,,,,,,,,,,,,,,,,,,,,,,,,,,,,,385.41174688499996,None,1,0.9457872650000354,385.41174688499996,None,385.41174688499996,None,386.39504264399966,None,386.39504264399966,None,386.39504264399966,None,2,1.13947500499944,386.39504264399966,None,,,,,,,,,,,,,,,110621,0,3,0,1,0,1,2,0,26,2021_Nov_06_1127,listening_fmri,3.2.4,59.73082375952112,
1,parcelated_audio/44/44_1.ogg,,,,,,,,,0,0,0,0,0,1,1,1,0,0,0,0,,,,,,,,,,,,,0,0,0,0,0,0,0,0,,,,,,,,,,,,,,,,,,,,,,,,,,,,,,,,,,,,,,,,,,,,,,,,,,,,,,,,,,,,,,,,,,,,,,,,,,,,,,,,,,,,,,,,,,,,,387.56194663800034,None,3,0.6944148709999354,387.56194663800034,None,353.4053036340001,356.4243659599997,356.44672188799996,364.3614588119999,,,,,110621,0,3,0,1,0,1,2,0,26,2021_Nov_06_1127,listening_fmri,3.2.4,59.73082375952112,
1,parcelated_audio/44/44_2.ogg,,,,,,,,,0,0,0,0,0,1,1,1,0,0,0,0,,,,,,,,,,,,,0,0,0,0,0,1,1,1,,,,,,,,,,,,,,,,,,,,,,,,,,,,,,,,,,,,,,,,,,,,,,,,,,,,,,,,,,,,,,,,,,,,,,,,,,,,,,,,,,,,,,,,,,,,,,,,,,,,,364.36470683599964,373.4921997000001,,,,,110621,0,3,0,1,0,1,2,0,26,2021_Nov_06_1127,listening_fmri,3.2.4,59.73082375952112,
1,parcelated_audio/44/44_3.ogg,,,,,,,,,0,0,0,0,0,1,1,1,0,0,0,0,,,,,,,,,,,,,0,0,0,0,0,2,2,2,,,,,,,,,,,,,,,,,,,,,,,,,,,,,,,,,,,,,,,,,,,,,,,,,,,,,,,,,,,,,,,,,,,,,,,,,,,,,,,,,,,,,,,,,,,,,,,,,,,,,373.4929472089998,378.9412345130004,,,,,110621,0,3,0,1,0,1,2,0,26,2021_Nov_06_1127,listening_fmri,3.2.4,59.73082375952112,
1,parcelated_audio/44/44_4.ogg,,,,,,,,,0,0,0,0,0,1,1,1,0,0,0,0,,,,,,,,,,,,,0,0,0,0,0,3,3,3,,,,,,,,,,,,,,,,,,,,,,,,,,,,,,,,,,,,,,,,,,,,,,,,,,,,,,,,,,,,,,,,,,,,,,,,,,,,,,,,,,,,,,,,,,,,,,,,,,,,,378.9415121789998,384.01853979299995,,,,,110621,0,3,0,1,0,1,2,0,26,2021_Nov_06_1127,listening_fmri,3.2.4,59.73082375952112,
1,parcelated_audio/44/44_5.ogg,,,,,,,,,0,0,0,0,0,1,1,1,0,0,0,0,,,,,,,,,,,,,0,0,0,0,0,4,4,4,,,,,,,,,,,,,,,,,,,,,,,,,,,,,,,,,,,,,,,,,,,,,,,,,,,,,,,,,,,,,,,,,,,,,,,,,,,,,,,,,,,,,,,,,,,,,,,,,,,,,384.01900675199977,390.25571761100036,,,,,110621,0,3,0,1,0,1,2,0,26,2021_Nov_06_1127,listening_fmri,3.2.4,59.73082375952112,
1,parcelated_audio/44/44_6.ogg,,,,,,,,,0,0,0,0,0,1,1,1,0,0,0,0,,,,,,,,,,,,,0,0,0,0,0,5,5,5,,,,,,,,,,,,,,,,,,,,,,,,,,,,,,,,,,,,,,,,,,,,,,,,,,,,,,,,,,,,,,,,,,,,,,,,,,,,,,,,,,,,,,,,,,,,,,,,,,,,,390.257204343,397.20575336300044,,,,,110621,0,3,0,1,0,1,2,0,26,2021_Nov_06_1127,listening_fmri,3.2.4,59.73082375952112,
1,parcelated_audio/44/44_7.ogg,,,,,,,,,0,0,0,0,0,1,1,1,0,0,0,0,,,,,,,,,,,,,0,0,0,0,0,6,6,6,,,,,,,,,,,,,,,,,,,,,,,,,,,,,,,,,,,,,,,,,,,,,,,,,,,,,,,,,,,,,,,,,,,,,,,,,,,,,,,,,,,,,,,,,,,,,,,,,,,,,397.20622077999997,403.2426216120002,,,,,110621,0,3,0,1,0,1,2,0,26,2021_Nov_06_1127,listening_fmri,3.2.4,59.73082375952112,
1,parcelated_audio/44/44_8.ogg,,,,,,,,,0,0,0,0,0,1,1,1,0,0,0,0,,,,,,,,,,,,,0,0,0,0,0,7,7,7,,,,,,,,,,,,,,,,,,,,,,,,,,,,,,,,,,,,,,,,,,,,,,,,,,,,,,,,,,,,,,,,,,,,,,,,,,,,,,,,,,,,,,,,,,,,,,,,,,,,,403.24297243300043,407.513477081,,,,,110621,0,3,0,1,0,1,2,0,26,2021_Nov_06_1127,listening_fmri,3.2.4,59.73082375952112,
1,parcelated_audio/44/44_9.ogg,,,,,,,,,0,0,0,0,0,1,1,1,0,0,0,0,,,,,,,,,,,,,0,0,0,0,0,8,8,8,,,,,,,,,,,,,,,,,,,,,,,,,,,,,,,,,,,,,,,,,,,,,,,,,,,,,,,,,,,,,,,,,,,,,,,,,,,,,,,,,,,,,,,,,,,,,,,,,,,,,407.51385924900023,411.2094918800003,,,,,110621,0,3,0,1,0,1,2,0,26,2021_Nov_06_1127,listening_fmri,3.2.4,59.73082375952112,
1,parcelated_audio/44/44_10.ogg,,,,,,,,,0,0,0,0,0,1,1,1,0,0,0,0,,,,,,,,,,,,,0,0,0,0,0,9,9,9,,,,,,,,,,,,,,,,,,,,,,,,,,,,,,,,,,,,,,,,,,,,,,,,,,,,,,,,,,,,,,,,,,,,,,,,,,,,,,,,,,,,,,,,,,,,,,,,,,,,,411.20983853600046,421.3347011269998,,,,,110621,0,3,0,1,0,1,2,0,26,2021_Nov_06_1127,listening_fmri,3.2.4,59.73082375952112,
1,parcelated_audio/44/44_11.ogg,,,,,,,,,0,0,0,0,0,1,1,1,0,0,0,0,,,,,,,,,,,,,0,0,0,0,0,10,10,10,,,,,,,,,,,,,,,,,,,,,,,,,,,,,,,,,,,,,,,,,,,,,,,,,,,,,,,,,,,,,,,,,,,,,,,,,,,,,,,,,,,,,,,,,,,,,,,,,,,,,421.33504912100034,424.8866890500003,,,,,110621,0,3,0,1,0,1,2,0,26,2021_Nov_06_1127,listening_fmri,3.2.4,59.73082375952112,
1,parcelated_audio/44/44_12.ogg,,,,,,,,,0,0,0,0,0,1,1,1,0,0,0,0,,,,,,,,,,,,,0,0,0,0,0,11,11,11,,,,,,,,,,,,,,,,,,,,,,,,,,,,,,,,,,,,,,,,,,,,,,,,,,,,,,,,,,,,,,,,,,,,,,,,,,,,,,,,,,,,,,,,,,,,,,,,,,,,,424.8870995890002,435.4708633219998,,,,,110621,0,3,0,1,0,1,2,0,26,2021_Nov_06_1127,listening_fmri,3.2.4,59.73082375952112,
1,parcelated_audio/44/44_13.ogg,,,,,,,,,0,0,0,0,0,1,1,1,0,0,0,0,,,,,,,,,,,,,0,0,0,0,0,12,12,12,,,,,,,,,,,,,,,,,,,,,,,,,,,,,,,,,,,,,,,,,,,,,,,,,,,,,,,,,,,,,,,,,,,,,,,,,,,,,,,,,,,,,,,,,,,,,,,,,,,,,435.47122164899974,442.63626050400035,,,,,110621,0,3,0,1,0,1,2,0,26,2021_Nov_06_1127,listening_fmri,3.2.4,59.73082375952112,
1,parcelated_audio/44/44_14.ogg,,,,,,,,,0,0,0,0,0,1,1,1,0,0,0,0,,,,,,,,,,,,,0,0,0,0,0,13,13,13,,,,,,,,,,,,,,,,,,,,,,,,,,,,,,,,,,,,,,,,,,,,,,,,,,,,,,,,,,,,,,,,,,,,,,,,,,,,,,,,,,,,,,,,,,,,,,,,,,,,,442.6366363369998,448.9393123310001,,,,,110621,0,3,0,1,0,1,2,0,26,2021_Nov_06_1127,listening_fmri,3.2.4,59.73082375952112,
1,parcelated_audio/44/44_15.ogg,,,,,,,,,0,0,0,0,0,1,1,1,0,0,0,0,,,,,,,,,,,,,0,0,0,0,0,14,14,14,,,,,,,,,,,,,,,,,,,,,,,,,,,,,,,,,,,,,,,,,,,,,,,,,,,,,,,,,,,,,,,,,,,,,,,,,,,,,,,,,,,,,,,,,,,,,,,,,,,,,448.9396674090003,453.0202852550001,,,,,110621,0,3,0,1,0,1,2,0,26,2021_Nov_06_1127,listening_fmri,3.2.4,59.73082375952112,
1,parcelated_audio/44/44_16.ogg,,,,,,,,,0,0,0,0,0,1,1,1,0,0,0,0,,,,,,,,,,,,,0,0,0,0,0,15,15,15,,,,,,,,,,,,,,,,,,,,,,,,,,,,,,,,,,,,,,,,,,,,,,,,,,,,,,,,,,,,,,,,,,,,,,,,,,,,,,,,,,,,,,,,,,,,,,,,,,,,,453.0207847669999,457.03901637000035,,,,,110621,0,3,0,1,0,1,2,0,26,2021_Nov_06_1127,listening_fmri,3.2.4,59.73082375952112,
1,parcelated_audio/44/44_17.ogg,,,,,,,,,0,0,0,0,0,1,1,1,0,0,0,0,,,,,,,,,,,,,0,0,0,0,0,16,16,16,,,,,,,,,,,,,,,,,,,,,,,,,,,,,,,,,,,,,,,,,,,,,,,,,,,,,,,,,,,,,,,,,,,,,,,,,,,,,,,,,,,,,,,,,,,,,,,,,,,,,457.039525227,465.51865480000015,,,,,110621,0,3,0,1,0,1,2,0,26,2021_Nov_06_1127,listening_fmri,3.2.4,59.73082375952112,
1,parcelated_audio/44/44_18.ogg,,,,,,,,,0,0,0,0,0,1,1,1,0,0,0,0,,,,,,,,,,,,,0,0,0,0,0,17,17,17,,,,,,,,,,,,,,,,,,,,,,,,,,,,,,,,,,,,,,,,,,,,,,,,,,,,,,,,,,,,,,,,,,,,,,,,,,,,,,,,,,,,,,,,,,,,,,,,,,,,,465.51914203399974,475.35870220200013,,,,,110621,0,3,0,1,0,1,2,0,26,2021_Nov_06_1127,listening_fmri,3.2.4,59.73082375952112,
1,parcelated_audio/44/44_19.ogg,,,,,,,,,0,0,0,0,0,1,1,1,0,0,0,0,,,,,,,,,,,,,0,0,0,0,0,18,18,18,,,,,,,,,,,,,,,,,,,,,,,,,,,,,,,,,,,,,,,,,,,,,,,,,,,,,,,,,,,,,,,,,,,,,,,,,,,,,,,,,,,,,,,,,,,,,,,,,,,,,475.3591596340002,486.3447076600005,,,,,110621,0,3,0,1,0,1,2,0,26,2021_Nov_06_1127,listening_fmri,3.2.4,59.73082375952112,
1,parcelated_audio/44/44_20.ogg,,,,,,,,,0,0,0,0,0,1,1,1,0,0,0,0,,,,,,,,,,,,,0,0,0,0,0,19,19,19,,,,,,,,,,,,,,,,,,,,,,,,,,,,,,,,,,,,,,,,,,,,,,,,,,,,,,,,,,,,,,,,,,,,,,,,,,,,,,,,,,,,,,,,,,,,,,,,,,,,,486.34506075599984,494.5609565320001,,,,,110621,0,3,0,1,0,1,2,0,26,2021_Nov_06_1127,listening_fmri,3.2.4,59.73082375952112,
1,parcelated_audio/44/44_21.ogg,,,,,,,,,0,0,0,0,0,1,1,1,0,0,0,0,,,,,,,,,,,,,0,0,0,0,0,20,20,20,,,,,,,,,,,,,,,,,,,,,,,,,,,,,,,,,,,,,,,,,,,,,,,,,,,,,,,,,,,,,,,,,,,,,,,,,,,,,,,,,,,,,,,,,,,,,,,,,,,,,494.56146962799994,503.45753965899985,,,,,110621,0,3,0,1,0,1,2,0,26,2021_Nov_06_1127,listening_fmri,3.2.4,59.73082375952112,
1,parcelated_audio/44/44_22.ogg,,,,,,,,,0,0,0,0,0,1,1,1,0,0,0,0,,,,,,,,,,,,,0,0,0,0,0,21,21,21,,,,,,,,,,,,,,,,,,,,,,,,,,,,,,,,,,,,,,,,,,,,,,,,,,,,,,,,,,,,,,,,,,,,,,,,,,,,,,,,,,,,,,,,,,,,,,,,,,,,,503.45786368300014,508.3833265479998,,,,,110621,0,3,0,1,0,1,2,0,26,2021_Nov_06_1127,listening_fmri,3.2.4,59.73082375952112,
1,parcelated_audio/44/44_23.ogg,,,,,,,,,0,0,0,0,0,1,1,1,0,0,0,0,,,,,,,,,,,,,0,0,0,0,0,22,22,22,,,,,,,,,,,,,,,,,,,,,,,,,,,,,,,,,,,,,,,,,,,,,,,,,,,,,,,,,,,,,,,,,,,,,,,,,,,,,,,,,,,,,,,,,,,,,,,,,,,,,508.3836698770001,515.0377547859998,,,,,110621,0,3,0,1,0,1,2,0,26,2021_Nov_06_1127,listening_fmri,3.2.4,59.73082375952112,
1,parcelated_audio/44/44_24.ogg,,,,,,,,,0,0,0,0,0,1,1,1,0,0,0,0,,,,,,,,,,,,,0,0,0,0,0,23,23,23,,,,,,,,,,,,,,,,,,,,,,,,,,,,,,,,,,,,,,,,,,,,,,,,,,,,,,,,,,,,,,,,,,,,,,,,,,,,,,,,,,,,,,,,,,,,,,,,,,,,,515.038112796,523.7688617909998,,,,,110621,0,3,0,1,0,1,2,0,26,2021_Nov_06_1127,listening_fmri,3.2.4,59.73082375952112,
1,parcelated_audio/44/44_25.ogg,,,,,,,,,0,0,0,0,0,1,1,1,0,0,0,0,,,,,,,,,,,,,0,0,0,0,0,24,24,24,,,,,,,,,,,,,,,,,,,,,,,,,,,,,,,,,,,,,,,,,,,,,,,,,,,,,,,,,,,,,,,,,,,,,,,,,,,,,,,,,,,,,,,,,,,,,,,,,,,,,523.7693025540002,530.0912693339997,,,,,110621,0,3,0,1,0,1,2,0,26,2021_Nov_06_1127,listening_fmri,3.2.4,59.73082375952112,
1,parcelated_audio/44/44_26.ogg,,,,,,,,,0,0,0,0,0,1,1,1,0,0,0,0,,,,,,,,,,,,,0,0,0,0,0,25,25,25,,,,,,,,,,,,,,,,,,,,,,,,,,,,,,,,,,,,,,,,,,,,,,,,,,,,,,,,,,,,,,,,,,,,,,,,,,,,,,,,,,,,,,,,,,,,,,,,,,,,,530.0916247180003,534.9416208129996,,,,,110621,0,3,0,1,0,1,2,0,26,2021_Nov_06_1127,listening_fmri,3.2.4,59.73082375952112,
1,parcelated_audio/44/44_27.ogg,,,,,,,,,0,0,0,0,0,1,1,1,0,0,0,0,,,,,,,,,,,,,0,0,0,0,0,26,26,26,,,,,,,,,,,,,,,,,,,,,,,,,,,,,,,,,,,,,,,,,,,,,,,,,,,,,,,,,,,,,,,,,,,,,,,,,,,,,,,,,,,,,,,,,,,,,,,,,,,,,534.9421377079998,541.9188800809998,,,,,110621,0,3,0,1,0,1,2,0,26,2021_Nov_06_1127,listening_fmri,3.2.4,59.73082375952112,
1,parcelated_audio/44/44_28.ogg,,,,,,,,,0,0,0,0,0,1,1,1,0,0,0,0,,,,,,,,,,,,,0,0,0,0,0,27,27,27,,,,,,,,,,,,,,,,,,,,,,,,,,,,,,,,,,,,,,,,,,,,,,,,,,,,,,,,,,,,,,,,,,,,,,,,,,,,,,,,,,,,,,,,,,,,,,,,,,,,,541.9192419410001,553.2026918700003,,,,,110621,0,3,0,1,0,1,2,0,26,2021_Nov_06_1127,listening_fmri,3.2.4,59.73082375952112,
1,,,,,,,,,,0,0,0,0,0,1,1,1,0,0,0,0,,,,,,,,,,,,,0,0,0,0,,,,,,,,,,,,,,,,,,,,,,,,,,,,,,,,,,,,,,,,,,,,,,,,,,,,,,,,,,,,,,,,,,,,,,,,,,,,,,,,,,,,,,,,,,,,,,,,,,,,,,,,,,,,,,,110621,0,3,0,1,0,1,2,0,26,2021_Nov_06_1127,listening_fmri,3.2.4,59.73082375952112,
,,,,,,,,,,,,,,,,,,,,,,,,,,,,,,,,,,,,,,,,,,,,,,,,,,,,,,,,,,,553.2031847010003,559.2001593089999,588.1280158250001,None,,,,,,,,,,,,,,,,,,,,,,,,,,,,,,,,,,,,,,,,,,,,,,,,,,,,,,,,,,,,,,,,,,,,,,,,,,,,,,,,,,594.133403283,None,594.133403283,None,,,,,,,,,,,,,,,
﻿count,audio,trials_14.thisRepN,trials_14.thisTrialN,trials_14.thisN,trials_14.thisIndex,trials_3.thisRepN,trials_3.thisTrialN,trials_3.thisN,trials_3.thisIndex,trials_4.thisRepN,trials_4.thisTrialN,trials_4.thisN,trials_4.thisIndex,trials_6.thisRepN,trials_6.thisTrialN,trials_6.thisN,trials_6.thisIndex,trials_9.thisRepN,trials_9.thisTrialN,trials_9.thisN,trials_9.thisIndex,trials_10.thisRepN,trials_10.thisTrialN,trials_10.thisN,trials_10.thisIndex,trials_11.thisRepN,trials_11.thisTrialN,trials_11.thisN,trials_11.thisIndex,trials_12.thisRepN,trials_12.thisTrialN,trials_12.thisN,trials_12.thisIndex,trials_25.thisRepN,trials_25.thisTrialN,trials_25.thisN,trials_25.thisIndex,trials_15.thisRepN,trials_15.thisTrialN,trials_15.thisN,trials_15.thisIndex,trials_26.thisRepN,trials_26.thisTrialN,trials_26.thisN,trials_26.thisIndex,story_list_block2,action_list_block2,textTrigger.started,textTrigger.stopped,getTrigger.keys,getTrigger.rt,getTrigger.started,getTrigger.stopped,triggerTime,text_76.started,text_76.stopped,text_77.started,text_77.stopped,startWait,endWait,image_23.started,image_23.stopped,text_55.started,text_55.stopped,text_56.started,text_56.stopped,key_resp_2.keys,key_resp_2.rt,key_resp_2.started,key_resp_2.stopped,text_82.started,text_82.stopped,text_57.started,text_57.stopped,key_resp_17.keys,key_resp_17.rt,key_resp_17.started,key_resp_17.stopped,text_83.started,text_83.stopped,text_60.started,text_60.stopped,image_2.started,image_2.stopped,text_58.started,text_58.stopped,key_resp_23.keys,key_resp_23.rt,key_resp_23.started,key_resp_23.stopped,text_62.started,text_62.stopped,key_resp_18.keys,key_resp_18.rt,key_resp_18.started,key_resp_18.stopped,text_84.started,text_84.stopped,question1_2.started,question1_2.stopped,question2_2.started,question2_2.stopped,question3_2.started,question3_2.stopped,question4_2.started,question4_2.stopped,question5_2.started,question5_2.stopped,question6_2.started,question6_2.stopped,image_15.started,image_15.stopped,key_resp.keys,key_resp.started,key_resp.stopped,text_59.started,text_59.stopped,key_resp_19.keys,key_resp_19.rt,key_resp_19.started,key_resp_19.stopped,text_85.started,text_85.stopped,text_61.started,text_61.stopped,image_17.started,image_17.stopped,text_63.started,text_63.stopped,key_resp_24.keys,key_resp_24.rt,key_resp_24.started,key_resp_24.stopped,text_64.started,text_64.stopped,key_resp_20.keys,key_resp_20.rt,key_resp_20.started,key_resp_20.stopped,storyImage_StartTime,storyImage_EndTime,clip_StartTime,clip_EndTime,text_67.started,text_67.stopped,text_68.started,text_68.stopped,participant,sA,sB,lA,lB,block_struct,play_stories,block,behavioral,random_seed,date,expName,psychopyVersion,frameRate,
0,,,,,,,,,,0,0,0,0,0,0,0,0,0,0,0,0,0,0,0,0,0,0,0,0,,,,,,,,,,,,,,,,,[22 44 13 31 33 42 11 24],[2 1 1 2 4 3 3 4],13.040823266000189,None,equal,21.855663614999685,13.040823266000189,None,21.88445075999971,13.040823266000189,None,13.040823266000189,None,0.00034292100008315174,5.9981482660004986,34.92697462199976,None,40.927075067999795,None,40.927075067999795,None,8,1.6004167039991444,40.927075067999795,None,40.927075067999795,None,42.54384687200036,None,8,0.6865636630000154,42.54384687200036,None,42.54384687200036,None,43.27760180600035,None,43.27760180600035,None,43.27760180600035,None,8,1.1537742499995147,43.27760180600035,None,44.46062145700034,None,7,1.294882501999382,44.46062145700034,None,44.46062145700034,None,45.85665805999997,None,45.85665805999997,None,45.85665805999997,None,45.85665805999997,None,45.85665805999997,None,45.85665805999997,None,45.85665805999997,None,None,45.85665805999997,None,,,,,,,,,,,,,,,,,,,,,,,,,,,,,,,,,110621,0,3,0,1,0,1,2,0,26,2021_Nov_06_1127,listening_fmri,3.2.4,59.73082375952112,
0,,,,,,,,,,0,0,0,0,0,0,0,0,0,0,0,0,0,0,0,0,,,,,,,,,,,,,,,,,,,,,,,,,,,,,,,,,,,,,,,,,,,,,,,,,,,,,,,,,,,,,,,,,,,,,,,,,,,,,,,,,,,,,,,,,,,64.94330063799953,None,3,2.1412146270004087,64.94330063799953,None,64.94330063799953,None,67.12368625099953,None,67.12368625099953,None,67.12368625099953,None,2,0.725825370000166,67.12368625099953,None,,,,,,,,,,,,,,,110621,0,3,0,1,0,1,2,0,26,2021_Nov_06_1127,listening_fmri,3.2.4,59.73082375952112,
0,parcelated_audio/22/22_1.ogg,,,,,,,,,0,0,0,0,0,0,0,0,0,0,0,0,,,,,,,,,,,,,0,0,0,0,0,0,0,0,,,,,,,,,,,,,,,,,,,,,,,,,,,,,,,,,,,,,,,,,,,,,,,,,,,,,,,,,,,,,,,,,,,,,,,,,,,,,,,,,,,,,,,,,,,,,67.87671737599976,None,3,1.6967939930000284,67.87671737599976,None,34.68361138399996,37.698742839999795,37.7048370120001,50.77264916100012,,,,,110621,0,3,0,1,0,1,2,0,26,2021_Nov_06_1127,listening_fmri,3.2.4,59.73082375952112,
0,parcelated_audio/22/22_2.ogg,,,,,,,,,0,0,0,0,0,0,0,0,0,0,0,0,,,,,,,,,,,,,0,0,0,0,0,1,1,1,,,,,,,,,,,,,,,,,,,,,,,,,,,,,,,,,,,,,,,,,,,,,,,,,,,,,,,,,,,,,,,,,,,,,,,,,,,,,,,,,,,,,,,,,,,,,,,,,,,,,50.77296821999971,57.147842680000394,,,,,110621,0,3,0,1,0,1,2,0,26,2021_Nov_06_1127,listening_fmri,3.2.4,59.73082375952112,
0,parcelated_audio/22/22_3.ogg,,,,,,,,,0,0,0,0,0,0,0,0,0,0,0,0,,,,,,,,,,,,,0,0,0,0,0,2,2,2,,,,,,,,,,,,,,,,,,,,,,,,,,,,,,,,,,,,,,,,,,,,,,,,,,,,,,,,,,,,,,,,,,,,,,,,,,,,,,,,,,,,,,,,,,,,,,,,,,,,,57.14824777400008,70.06104866700025,,,,,110621,0,3,0,1,0,1,2,0,26,2021_Nov_06_1127,listening_fmri,3.2.4,59.73082375952112,
0,parcelated_audio/22/22_4.ogg,,,,,,,,,0,0,0,0,0,0,0,0,0,0,0,0,,,,,,,,,,,,,0,0,0,0,0,3,3,3,,,,,,,,,,,,,,,,,,,,,,,,,,,,,,,,,,,,,,,,,,,,,,,,,,,,,,,,,,,,,,,,,,,,,,,,,,,,,,,,,,,,,,,,,,,,,,,,,,,,,70.06148042200039,82.47606565899969,,,,,110621,0,3,0,1,0,1,2,0,26,2021_Nov_06_1127,listening_fmri,3.2.4,59.73082375952112,
0,parcelated_audio/22/22_5.ogg,,,,,,,,,0,0,0,0,0,0,0,0,0,0,0,0,,,,,,,,,,,,,0,0,0,0,0,4,4,4,,,,,,,,,,,,,,,,,,,,,,,,,,,,,,,,,,,,,,,,,,,,,,,,,,,,,,,,,,,,,,,,,,,,,,,,,,,,,,,,,,,,,,,,,,,,,,,,,,,,,82.4768854240001,88.40073346200006,,,,,110621,0,3,0,1,0,1,2,0,26,2021_Nov_06_1127,listening_fmri,3.2.4,59.73082375952112,
0,parcelated_audio/22/22_6.ogg,,,,,,,,,0,0,0,0,0,0,0,0,0,0,0,0,,,,,,,,,,,,,0,0,0,0,0,5,5,5,,,,,,,,,,,,,,,,,,,,,,,,,,,,,,,,,,,,,,,,,,,,,,,,,,,,,,,,,,,,,,,,,,,,,,,,,,,,,,,,,,,,,,,,,,,,,,,,,,,,,88.40115298700039,97.59495045200038,,,,,110621,0,3,0,1,0,1,2,0,26,2021_Nov_06_1127,listening_fmri,3.2.4,59.73082375952112,
0,parcelated_audio/22/22_7.ogg,,,,,,,,,0,0,0,0,0,0,0,0,0,0,0,0,,,,,,,,,,,,,0,0,0,0,0,6,6,6,,,,,,,,,,,,,,,,,,,,,,,,,,,,,,,,,,,,,,,,,,,,,,,,,,,,,,,,,,,,,,,,,,,,,,,,,,,,,,,,,,,,,,,,,,,,,,,,,,,,,97.59525408900026,102.5828888699998,,,,,110621,0,3,0,1,0,1,2,0,26,2021_Nov_06_1127,listening_fmri,3.2.4,59.73082375952112,
0,parcelated_audio/22/22_8.ogg,,,,,,,,,0,0,0,0,0,0,0,0,0,0,0,0,,,,,,,,,,,,,0,0,0,0,0,7,7,7,,,,,,,,,,,,,,,,,,,,,,,,,,,,,,,,,,,,,,,,,,,,,,,,,,,,,,,,,,,,,,,,,,,,,,,,,,,,,,,,,,,,,,,,,,,,,,,,,,,,,102.58324150299995,106.11363612100013,,,,,110621,0,3,0,1,0,1,2,0,26,2021_Nov_06_1127,listening_fmri,3.2.4,59.73082375952112,
0,parcelated_audio/22/22_9.ogg,,,,,,,,,0,0,0,0,0,0,0,0,0,0,0,0,,,,,,,,,,,,,0,0,0,0,0,8,8,8,,,,,,,,,,,,,,,,,,,,,,,,,,,,,,,,,,,,,,,,,,,,,,,,,,,,,,,,,,,,,,,,,,,,,,,,,,,,,,,,,,,,,,,,,,,,,,,,,,,,,106.1139971499997,110.01440972100045,,,,,110621,0,3,0,1,0,1,2,0,26,2021_Nov_06_1127,listening_fmri,3.2.4,59.73082375952112,
0,parcelated_audio/22/22_10.ogg,,,,,,,,,0,0,0,0,0,0,0,0,0,0,0,0,,,,,,,,,,,,,0,0,0,0,0,9,9,9,,,,,,,,,,,,,,,,,,,,,,,,,,,,,,,,,,,,,,,,,,,,,,,,,,,,,,,,,,,,,,,,,,,,,,,,,,,,,,,,,,,,,,,,,,,,,,,,,,,,,110.01476405999983,114.78164676000051,,,,,110621,0,3,0,1,0,1,2,0,26,2021_Nov_06_1127,listening_fmri,3.2.4,59.73082375952112,
0,parcelated_audio/22/22_11.ogg,,,,,,,,,0,0,0,0,0,0,0,0,0,0,0,0,,,,,,,,,,,,,0,0,0,0,0,10,10,10,,,,,,,,,,,,,,,,,,,,,,,,,,,,,,,,,,,,,,,,,,,,,,,,,,,,,,,,,,,,,,,,,,,,,,,,,,,,,,,,,,,,,,,,,,,,,,,,,,,,,114.78201078199982,122.06144202700034,,,,,110621,0,3,0,1,0,1,2,0,26,2021_Nov_06_1127,listening_fmri,3.2.4,59.73082375952112,
0,parcelated_audio/22/22_12.ogg,,,,,,,,,0,0,0,0,0,0,0,0,0,0,0,0,,,,,,,,,,,,,0,0,0,0,0,11,11,11,,,,,,,,,,,,,,,,,,,,,,,,,,,,,,,,,,,,,,,,,,,,,,,,,,,,,,,,,,,,,,,,,,,,,,,,,,,,,,,,,,,,,,,,,,,,,,,,,,,,,122.06179436900038,129.78214569400006,,,,,110621,0,3,0,1,0,1,2,0,26,2021_Nov_06_1127,listening_fmri,3.2.4,59.73082375952112,
0,parcelated_audio/22/22_13.ogg,,,,,,,,,0,0,0,0,0,0,0,0,0,0,0,0,,,,,,,,,,,,,0,0,0,0,0,12,12,12,,,,,,,,,,,,,,,,,,,,,,,,,,,,,,,,,,,,,,,,,,,,,,,,,,,,,,,,,,,,,,,,,,,,,,,,,,,,,,,,,,,,,,,,,,,,,,,,,,,,,129.78250034699977,137.06078395399982,,,,,110621,0,3,0,1,0,1,2,0,26,2021_Nov_06_1127,listening_fmri,3.2.4,59.73082375952112,
0,parcelated_audio/22/22_14.ogg,,,,,,,,,0,0,0,0,0,0,0,0,0,0,0,0,,,,,,,,,,,,,0,0,0,0,0,13,13,13,,,,,,,,,,,,,,,,,,,,,,,,,,,,,,,,,,,,,,,,,,,,,,,,,,,,,,,,,,,,,,,,,,,,,,,,,,,,,,,,,,,,,,,,,,,,,,,,,,,,,137.06179289200008,142.69422495300023,,,,,110621,0,3,0,1,0,1,2,0,26,2021_Nov_06_1127,listening_fmri,3.2.4,59.73082375952112,
0,parcelated_audio/22/22_15.ogg,,,,,,,,,0,0,0,0,0,0,0,0,0,0,0,0,,,,,,,,,,,,,0,0,0,0,0,14,14,14,,,,,,,,,,,,,,,,,,,,,,,,,,,,,,,,,,,,,,,,,,,,,,,,,,,,,,,,,,,,,,,,,,,,,,,,,,,,,,,,,,,,,,,,,,,,,,,,,,,,,142.69457942900044,150.46382865299984,,,,,110621,0,3,0,1,0,1,2,0,26,2021_Nov_06_1127,listening_fmri,3.2.4,59.73082375952112,
0,parcelated_audio/22/22_16.ogg,,,,,,,,,0,0,0,0,0,0,0,0,0,0,0,0,,,,,,,,,,,,,0,0,0,0,0,15,15,15,,,,,,,,,,,,,,,,,,,,,,,,,,,,,,,,,,,,,,,,,,,,,,,,,,,,,,,,,,,,,,,,,,,,,,,,,,,,,,,,,,,,,,,,,,,,,,,,,,,,,150.464197583,159.1337193620002,,,,,110621,0,3,0,1,0,1,2,0,26,2021_Nov_06_1127,listening_fmri,3.2.4,59.73082375952112,
0,parcelated_audio/22/22_17.ogg,,,,,,,,,0,0,0,0,0,0,0,0,0,0,0,0,,,,,,,,,,,,,0,0,0,0,0,16,16,16,,,,,,,,,,,,,,,,,,,,,,,,,,,,,,,,,,,,,,,,,,,,,,,,,,,,,,,,,,,,,,,,,,,,,,,,,,,,,,,,,,,,,,,,,,,,,,,,,,,,,159.13406563199987,162.28944329299975,,,,,110621,0,3,0,1,0,1,2,0,26,2021_Nov_06_1127,listening_fmri,3.2.4,59.73082375952112,
0,parcelated_audio/22/22_18.ogg,,,,,,,,,0,0,0,0,0,0,0,0,0,0,0,0,,,,,,,,,,,,,0,0,0,0,0,17,17,17,,,,,,,,,,,,,,,,,,,,,,,,,,,,,,,,,,,,,,,,,,,,,,,,,,,,,,,,,,,,,,,,,,,,,,,,,,,,,,,,,,,,,,,,,,,,,,,,,,,,,162.28980024700013,169.01563693499975,,,,,110621,0,3,0,1,0,1,2,0,26,2021_Nov_06_1127,listening_fmri,3.2.4,59.73082375952112,
0,parcelated_audio/22/22_19.ogg,,,,,,,,,0,0,0,0,0,0,0,0,0,0,0,0,,,,,,,,,,,,,0,0,0,0,0,18,18,18,,,,,,,,,,,,,,,,,,,,,,,,,,,,,,,,,,,,,,,,,,,,,,,,,,,,,,,,,,,,,,,,,,,,,,,,,,,,,,,,,,,,,,,,,,,,,,,,,,,,,169.01599490199987,173.9775442299997,,,,,110621,0,3,0,1,0,1,2,0,26,2021_Nov_06_1127,listening_fmri,3.2.4,59.73082375952112,
0,parcelated_audio/22/22_20.ogg,,,,,,,,,0,0,0,0,0,0,0,0,0,0,0,0,,,,,,,,,,,,,0,0,0,0,0,19,19,19,,,,,,,,,,,,,,,,,,,,,,,,,,,,,,,,,,,,,,,,,,,,,,,,,,,,,,,,,,,,,,,,,,,,,,,,,,,,,,,,,,,,,,,,,,,,,,,,,,,,,173.97789808400012,188.19737000500027,,,,,110621,0,3,0,1,0,1,2,0,26,2021_Nov_06_1127,listening_fmri,3.2.4,59.73082375952112,
0,parcelated_audio/22/22_21.ogg,,,,,,,,,0,0,0,0,0,0,0,0,0,0,0,0,,,,,,,,,,,,,0,0,0,0,0,20,20,20,,,,,,,,,,,,,,,,,,,,,,,,,,,,,,,,,,,,,,,,,,,,,,,,,,,,,,,,,,,,,,,,,,,,,,,,,,,,,,,,,,,,,,,,,,,,,,,,,,,,,188.19769787299992,190.20535709199976,,,,,110621,0,3,0,1,0,1,2,0,26,2021_Nov_06_1127,listening_fmri,3.2.4,59.73082375952112,
0,parcelated_audio/22/22_22.ogg,,,,,,,,,0,0,0,0,0,0,0,0,0,0,0,0,,,,,,,,,,,,,0,0,0,0,0,21,21,21,,,,,,,,,,,,,,,,,,,,,,,,,,,,,,,,,,,,,,,,,,,,,,,,,,,,,,,,,,,,,,,,,,,,,,,,,,,,,,,,,,,,,,,,,,,,,,,,,,,,,190.20573145700018,193.35368384200046,,,,,110621,0,3,0,1,0,1,2,0,26,2021_Nov_06_1127,listening_fmri,3.2.4,59.73082375952112,
0,parcelated_audio/22/22_23.ogg,,,,,,,,,0,0,0,0,0,0,0,0,0,0,0,0,,,,,,,,,,,,,0,0,0,0,0,22,22,22,,,,,,,,,,,,,,,,,,,,,,,,,,,,,,,,,,,,,,,,,,,,,,,,,,,,,,,,,,,,,,,,,,,,,,,,,,,,,,,,,,,,,,,,,,,,,,,,,,,,,193.3540368849999,199.8894271270001,,,,,110621,0,3,0,1,0,1,2,0,26,2021_Nov_06_1127,listening_fmri,3.2.4,59.73082375952112,
0,parcelated_audio/22/22_24.ogg,,,,,,,,,0,0,0,0,0,0,0,0,0,0,0,0,,,,,,,,,,,,,0,0,0,0,0,23,23,23,,,,,,,,,,,,,,,,,,,,,,,,,,,,,,,,,,,,,,,,,,,,,,,,,,,,,,,,,,,,,,,,,,,,,,,,,,,,,,,,,,,,,,,,,,,,,,,,,,,,,199.88977798700034,205.6226932210002,,,,,110621,0,3,0,1,0,1,2,0,26,2021_Nov_06_1127,listening_fmri,3.2.4,59.73082375952112,
0,parcelated_audio/22/22_25.ogg,,,,,,,,,0,0,0,0,0,0,0,0,0,0,0,0,,,,,,,,,,,,,0,0,0,0,0,24,24,24,,,,,,,,,,,,,,,,,,,,,,,,,,,,,,,,,,,,,,,,,,,,,,,,,,,,,,,,,,,,,,,,,,,,,,,,,,,,,,,,,,,,,,,,,,,,,,,,,,,,,205.62315278000005,218.312773656,,,,,110621,0,3,0,1,0,1,2,0,26,2021_Nov_06_1127,listening_fmri,3.2.4,59.73082375952112,
0,parcelated_audio/22/22_26.ogg,,,,,,,,,0,0,0,0,0,0,0,0,0,0,0,0,,,,,,,,,,,,,0,0,0,0,0,25,25,25,,,,,,,,,,,,,,,,,,,,,,,,,,,,,,,,,,,,,,,,,,,,,,,,,,,,,,,,,,,,,,,,,,,,,,,,,,,,,,,,,,,,,,,,,,,,,,,,,,,,,218.3131402449999,225.0458524810001,,,,,110621,0,3,0,1,0,1,2,0,26,2021_Nov_06_1127,listening_fmri,3.2.4,59.73082375952112,
0,parcelated_audio/22/22_27.ogg,,,,,,,,,0,0,0,0,0,0,0,0,0,0,0,0,,,,,,,,,,,,,0,0,0,0,0,26,26,26,,,,,,,,,,,,,,,,,,,,,,,,,,,,,,,,,,,,,,,,,,,,,,,,,,,,,,,,,,,,,,,,,,,,,,,,,,,,,,,,,,,,,,,,,,,,,,,,,,,,,225.04625416599993,229.46563782700014,,,,,110621,0,3,0,1,0,1,2,0,26,2021_Nov_06_1127,listening_fmri,3.2.4,59.73082375952112,
0,parcelated_audio/22/22_28.ogg,,,,,,,,,0,0,0,0,0,0,0,0,0,0,0,0,,,,,,,,,,,,,0,0,0,0,0,27,27,27,,,,,,,,,,,,,,,,,,,,,,,,,,,,,,,,,,,,,,,,,,,,,,,,,,,,,,,,,,,,,,,,,,,,,,,,,,,,,,,,,,,,,,,,,,,,,,,,,,,,,229.46599451699967,235.21759652299988,,,,,110621,0,3,0,1,0,1,2,0,26,2021_Nov_06_1127,listening_fmri,3.2.4,59.73082375952112,
0,parcelated_audio/22/22_29.ogg,,,,,,,,,0,0,0,0,0,0,0,0,0,0,0,0,,,,,,,,,,,,,0,0,0,0,0,28,28,28,,,,,,,,,,,,,,,,,,,,,,,,,,,,,,,,,,,,,,,,,,,,,,,,,,,,,,,,,,,,,,,,,,,,,,,,,,,,,,,,,,,,,,,,,,,,,,,,,,,,,235.21804973100006,240.92942191899965,,,,,110621,0,3,0,1,0,1,2,0,26,2021_Nov_06_1127,listening_fmri,3.2.4,59.73082375952112,
0,parcelated_audio/22/22_30.ogg,,,,,,,,,0,0,0,0,0,0,0,0,0,0,0,0,,,,,,,,,,,,,0,0,0,0,0,29,29,29,,,,,,,,,,,,,,,,,,,,,,,,,,,,,,,,,,,,,,,,,,,,,,,,,,,,,,,,,,,,,,,,,,,,,,,,,,,,,,,,,,,,,,,,,,,,,,,,,,,,,240.9297742380004,243.64570106500014,,,,,110621,0,3,0,1,0,1,2,0,26,2021_Nov_06_1127,listening_fmri,3.2.4,59.73082375952112,
0,parcelated_audio/22/22_31.ogg,,,,,,,,,0,0,0,0,0,0,0,0,0,0,0,0,,,,,,,,,,,,,0,0,0,0,0,30,30,30,,,,,,,,,,,,,,,,,,,,,,,,,,,,,,,,,,,,,,,,,,,,,,,,,,,,,,,,,,,,,,,,,,,,,,,,,,,,,,,,,,,,,,,,,,,,,,,,,,,,,243.64605511199989,248.81076089399994,,,,,110621,0,3,0,1,0,1,2,0,26,2021_Nov_06_1127,listening_fmri,3.2.4,59.73082375952112,
0,parcelated_audio/22/22_32.ogg,,,,,,,,,0,0,0,0,0,0,0,0,0,0,0,0,,,,,,,,,,,,,0,0,0,0,0,31,31,31,,,,,,,,,,,,,,,,,,,,,,,,,,,,,,,,,,,,,,,,,,,,,,,,,,,,,,,,,,,,,,,,,,,,,,,,,,,,,,,,,,,,,,,,,,,,,,,,,,,,,248.81110448799973,255.1308902440005,,,,,110621,0,3,0,1,0,1,2,0,26,2021_Nov_06_1127,listening_fmri,3.2.4,59.73082375952112,
0,parcelated_audio/22/22_33.ogg,,,,,,,,,0,0,0,0,0,0,0,0,0,0,0,0,,,,,,,,,,,,,0,0,0,0,0,32,32,32,,,,,,,,,,,,,,,,,,,,,,,,,,,,,,,,,,,,,,,,,,,,,,,,,,,,,,,,,,,,,,,,,,,,,,,,,,,,,,,,,,,,,,,,,,,,,,,,,,,,,255.13130430300043,259.5650415549999,,,,,110621,0,3,0,1,0,1,2,0,26,2021_Nov_06_1127,listening_fmri,3.2.4,59.73082375952112,
0,parcelated_audio/22/22_34.ogg,,,,,,,,,0,0,0,0,0,0,0,0,0,0,0,0,,,,,,,,,,,,,0,0,0,0,0,33,33,33,,,,,,,,,,,,,,,,,,,,,,,,,,,,,,,,,,,,,,,,,,,,,,,,,,,,,,,,,,,,,,,,,,,,,,,,,,,,,,,,,,,,,,,,,,,,,,,,,,,,,259.56538461699984,267.6250697300002,,,,,110621,0,3,0,1,0,1,2,0,26,2021_Nov_06_1127,listening_fmri,3.2.4,59.73082375952112,
0,parcelated_audio/22/22_35.ogg,,,,,,,,,0,0,0,0,0,0,0,0,0,0,0,0,,,,,,,,,,,,,0,0,0,0,0,34,34,34,,,,,,,,,,,,,,,,,,,,,,,,,,,,,,,,,,,,,,,,,,,,,,,,,,,,,,,,,,,,,,,,,,,,,,,,,,,,,,,,,,,,,,,,,,,,,,,,,,,,,267.62542662099986,275.1278664090005,,,,,110621,0,3,0,1,0,1,2,0,26,2021_Nov_06_1127,listening_fmri,3.2.4,59.73082375952112,
0,parcelated_audio/22/22_36.ogg,,,,,,,,,0,0,0,0,0,0,0,0,0,0,0,0,,,,,,,,,,,,,0,0,0,0,0,35,35,35,,,,,,,,,,,,,,,,,,,,,,,,,,,,,,,,,,,,,,,,,,,,,,,,,,,,,,,,,,,,,,,,,,,,,,,,,,,,,,,,,,,,,,,,,,,,,,,,,,,,,275.12822311000036,287.83904694800003,,,,,110621,0,3,0,1,0,1,2,0,26,2021_Nov_06_1127,listening_fmri,3.2.4,59.73082375952112,
0,parcelated_audio/22/22_37.ogg,,,,,,,,,0,0,0,0,0,0,0,0,0,0,0,0,,,,,,,,,,,,,0,0,0,0,0,36,36,36,,,,,,,,,,,,,,,,,,,,,,,,,,,,,,,,,,,,,,,,,,,,,,,,,,,,,,,,,,,,,,,,,,,,,,,,,,,,,,,,,,,,,,,,,,,,,,,,,,,,,287.83941962300014,295.02818394099995,,,,,110621,0,3,0,1,0,1,2,0,26,2021_Nov_06_1127,listening_fmri,3.2.4,59.73082375952112,
0,,,,,,,,,,0,0,0,0,0,0,0,0,0,0,0,0,,,,,,,,,,,,,0,0,0,0,,,,,,,,,,,,,,,,,,,,,,,,,,,,,,,,,,,,,,,,,,,,,,,,,,,,,,,,,,,,,,,,,,,,,,,,,,,,,,,,,,,,,,,,,,,,,,,,,,,,,,,,,,,,,,,110621,0,3,0,1,0,1,2,0,26,2021_Nov_06_1127,listening_fmri,3.2.4,59.73082375952112,
0,,,,,,,,,,0,0,0,0,0,0,0,0,0,0,0,0,,,,,,,,,,,,,,,,,,,,,,,,,,,,,,,,,,,,,,295.0287372060002,301.0248013319997,329.9445301169999,None,,,,,,,,,,,,,,,,,,,,,,,,,,,,,,,,,,,,,,,,,,,,,,,,,,,,,,,,,,,,,,,,,,,,,,,,,,,,,,,,,,335.95259186400017,None,335.95259186400017,None,110621,0,3,0,1,0,1,2,0,26,2021_Nov_06_1127,listening_fmri,3.2.4,59.73082375952112,
0,,,,,,,,,,0,0,0,0,0,0,0,0,,,,,,,,,,,,,,,,,,,,,,,,,,,,,,,,,,,,,,,,,,,,,,,,,,,,,,,,,,,,,,,,,,,,,,,,,,,,,,,,,,,,,,,,,,,,,,,,,,,,,,,,,,,,,,,,,,,,,,,,,,,,,,,,,,,110621,0,3,0,1,0,1,2,0,26,2021_Nov_06_1127,listening_fmri,3.2.4,59.73082375952112,
1,,,,,,,,,,0,0,0,0,0,1,1,1,0,0,0,0,0,0,0,0,0,0,0,0,,,,,,,,,,,,,,,,,,,,,,,,,,,,,,,,,,336.9702567209997,None,336.9702567209997,None,8,1.5012601079997694,336.9702567209997,None,336.9702567209997,None,338.49468715700004,None,8,0.5596936590000041,338.49468715700004,None,338.49468715700004,None,339.10296431999996,None,339.10296431999996,None,339.10296431999996,None,7,0.61945020299936,339.10296431999996,None,339.74467155599996,None,7,0.8897716390001733,339.74467155599996,None,339.74467155599996,None,340.7437830050003,None,340.7437830050003,None,340.7437830050003,None,340.7437830050003,None,340.7437830050003,None,340.7437830050003,None,340.7437830050003,None,None,340.7437830050003,None,,,,,,,,,,,,,,,,,,,,,,,,,,,,,,,,,110621,0,3,0,1,0,1,2,0,26,2021_Nov_06_1127,listening_fmri,3.2.4,59.73082375952112,
1,,,,,,,,,,0,0,0,0,0,1,1,1,0,0,0,0,0,0,0,0,1,0,1,0,,,,,,,,,,,,,,,,,,,,,,,,,,,,,,,,,,,,,,,,,,,,,,,,,,,,350.6356802749997,None,350.6356802749997,None,350.6356802749997,None,7,0.6327252790006241,350.6356802749997,None,351.29407088399967,None,7,0.5163061190005465,351.29407088399967,None,351.29407088399967,None,351.91979692099994,None,351.91979692099994,None,351.91979692099994,None,351.91979692099994,None,351.91979692099994,None,351.91979692099994,None,351.91979692099994,None,None,351.91979692099994,None,,,,,,,,,,,,,,,,,,,,,,,,,,,,,,,,,110621,0,3,0,1,0,1,2,0,26,2021_Nov_06_1127,listening_fmri,3.2.4,59.73082375952112,
1,,,,,,,,,,0,0,0,0,0,1,1,1,0,0,0,0,0,0,0,0,2,0,2,0,,,,,,,,,,,,,,,,,,,,,,,,,,,,,,,,,,,,,,,,,,,,,,,,,,,,365.4189704190003,None,365.4189704190003,None,365.4189704190003,None,7,0.46153382299962686,365.4189704190003,None,365.91122252399964,None,7,0.4111707669999305,365.91122252399964,None,365.91122252399964,None,366.4282954190003,None,366.4282954190003,None,366.4282954190003,None,366.4282954190003,None,366.4282954190003,None,366.4282954190003,None,366.4282954190003,None,None,366.4282954190003,None,,,,,,,,,,,,,,,,,,,,,,,,,,,,,,,,,110621,0,3,0,1,0,1,2,0,26,2021_Nov_06_1127,listening_fmri,3.2.4,59.73082375952112,
1,,,,,,,,,,0,0,0,0,0,1,1,1,0,0,0,0,0,0,0,0,,,,,,,,,,,,,,,,,,,,,,,,,,,,,,,,,,,,,,,,,,,,,,,,,,,,,,,,,,,,,,,,,,,,,,,,,,,,,,,,,,,,,,,,,,,385.41174688499996,None,1,0.9457872650000354,385.41174688499996,None,385.41174688499996,None,386.39504264399966,None,386.39504264399966,None,386.39504264399966,None,2,1.13947500499944,386.39504264399966,None,,,,,,,,,,,,,,,110621,0,3,0,1,0,1,2,0,26,2021_Nov_06_1127,listening_fmri,3.2.4,59.73082375952112,
1,parcelated_audio/44/44_1.ogg,,,,,,,,,0,0,0,0,0,1,1,1,0,0,0,0,,,,,,,,,,,,,0,0,0,0,0,0,0,0,,,,,,,,,,,,,,,,,,,,,,,,,,,,,,,,,,,,,,,,,,,,,,,,,,,,,,,,,,,,,,,,,,,,,,,,,,,,,,,,,,,,,,,,,,,,,387.56194663800034,None,3,0.6944148709999354,387.56194663800034,None,353.4053036340001,356.4243659599997,356.44672188799996,364.3614588119999,,,,,110621,0,3,0,1,0,1,2,0,26,2021_Nov_06_1127,listening_fmri,3.2.4,59.73082375952112,
1,parcelated_audio/44/44_2.ogg,,,,,,,,,0,0,0,0,0,1,1,1,0,0,0,0,,,,,,,,,,,,,0,0,0,0,0,1,1,1,,,,,,,,,,,,,,,,,,,,,,,,,,,,,,,,,,,,,,,,,,,,,,,,,,,,,,,,,,,,,,,,,,,,,,,,,,,,,,,,,,,,,,,,,,,,,,,,,,,,,364.36470683599964,373.4921997000001,,,,,110621,0,3,0,1,0,1,2,0,26,2021_Nov_06_1127,listening_fmri,3.2.4,59.73082375952112,
1,parcelated_audio/44/44_3.ogg,,,,,,,,,0,0,0,0,0,1,1,1,0,0,0,0,,,,,,,,,,,,,0,0,0,0,0,2,2,2,,,,,,,,,,,,,,,,,,,,,,,,,,,,,,,,,,,,,,,,,,,,,,,,,,,,,,,,,,,,,,,,,,,,,,,,,,,,,,,,,,,,,,,,,,,,,,,,,,,,,373.4929472089998,378.9412345130004,,,,,110621,0,3,0,1,0,1,2,0,26,2021_Nov_06_1127,listening_fmri,3.2.4,59.73082375952112,
1,parcelated_audio/44/44_4.ogg,,,,,,,,,0,0,0,0,0,1,1,1,0,0,0,0,,,,,,,,,,,,,0,0,0,0,0,3,3,3,,,,,,,,,,,,,,,,,,,,,,,,,,,,,,,,,,,,,,,,,,,,,,,,,,,,,,,,,,,,,,,,,,,,,,,,,,,,,,,,,,,,,,,,,,,,,,,,,,,,,378.9415121789998,384.01853979299995,,,,,110621,0,3,0,1,0,1,2,0,26,2021_Nov_06_1127,listening_fmri,3.2.4,59.73082375952112,
1,parcelated_audio/44/44_5.ogg,,,,,,,,,0,0,0,0,0,1,1,1,0,0,0,0,,,,,,,,,,,,,0,0,0,0,0,4,4,4,,,,,,,,,,,,,,,,,,,,,,,,,,,,,,,,,,,,,,,,,,,,,,,,,,,,,,,,,,,,,,,,,,,,,,,,,,,,,,,,,,,,,,,,,,,,,,,,,,,,,384.01900675199977,390.25571761100036,,,,,110621,0,3,0,1,0,1,2,0,26,2021_Nov_06_1127,listening_fmri,3.2.4,59.73082375952112,
1,parcelated_audio/44/44_6.ogg,,,,,,,,,0,0,0,0,0,1,1,1,0,0,0,0,,,,,,,,,,,,,0,0,0,0,0,5,5,5,,,,,,,,,,,,,,,,,,,,,,,,,,,,,,,,,,,,,,,,,,,,,,,,,,,,,,,,,,,,,,,,,,,,,,,,,,,,,,,,,,,,,,,,,,,,,,,,,,,,,390.257204343,397.20575336300044,,,,,110621,0,3,0,1,0,1,2,0,26,2021_Nov_06_1127,listening_fmri,3.2.4,59.73082375952112,
1,parcelated_audio/44/44_7.ogg,,,,,,,,,0,0,0,0,0,1,1,1,0,0,0,0,,,,,,,,,,,,,0,0,0,0,0,6,6,6,,,,,,,,,,,,,,,,,,,,,,,,,,,,,,,,,,,,,,,,,,,,,,,,,,,,,,,,,,,,,,,,,,,,,,,,,,,,,,,,,,,,,,,,,,,,,,,,,,,,,397.20622077999997,403.2426216120002,,,,,110621,0,3,0,1,0,1,2,0,26,2021_Nov_06_1127,listening_fmri,3.2.4,59.73082375952112,
1,parcelated_audio/44/44_8.ogg,,,,,,,,,0,0,0,0,0,1,1,1,0,0,0,0,,,,,,,,,,,,,0,0,0,0,0,7,7,7,,,,,,,,,,,,,,,,,,,,,,,,,,,,,,,,,,,,,,,,,,,,,,,,,,,,,,,,,,,,,,,,,,,,,,,,,,,,,,,,,,,,,,,,,,,,,,,,,,,,,403.24297243300043,407.513477081,,,,,110621,0,3,0,1,0,1,2,0,26,2021_Nov_06_1127,listening_fmri,3.2.4,59.73082375952112,
1,parcelated_audio/44/44_9.ogg,,,,,,,,,0,0,0,0,0,1,1,1,0,0,0,0,,,,,,,,,,,,,0,0,0,0,0,8,8,8,,,,,,,,,,,,,,,,,,,,,,,,,,,,,,,,,,,,,,,,,,,,,,,,,,,,,,,,,,,,,,,,,,,,,,,,,,,,,,,,,,,,,,,,,,,,,,,,,,,,,407.51385924900023,411.2094918800003,,,,,110621,0,3,0,1,0,1,2,0,26,2021_Nov_06_1127,listening_fmri,3.2.4,59.73082375952112,
1,parcelated_audio/44/44_10.ogg,,,,,,,,,0,0,0,0,0,1,1,1,0,0,0,0,,,,,,,,,,,,,0,0,0,0,0,9,9,9,,,,,,,,,,,,,,,,,,,,,,,,,,,,,,,,,,,,,,,,,,,,,,,,,,,,,,,,,,,,,,,,,,,,,,,,,,,,,,,,,,,,,,,,,,,,,,,,,,,,,411.20983853600046,421.3347011269998,,,,,110621,0,3,0,1,0,1,2,0,26,2021_Nov_06_1127,listening_fmri,3.2.4,59.73082375952112,
1,parcelated_audio/44/44_11.ogg,,,,,,,,,0,0,0,0,0,1,1,1,0,0,0,0,,,,,,,,,,,,,0,0,0,0,0,10,10,10,,,,,,,,,,,,,,,,,,,,,,,,,,,,,,,,,,,,,,,,,,,,,,,,,,,,,,,,,,,,,,,,,,,,,,,,,,,,,,,,,,,,,,,,,,,,,,,,,,,,,421.33504912100034,424.8866890500003,,,,,110621,0,3,0,1,0,1,2,0,26,2021_Nov_06_1127,listening_fmri,3.2.4,59.73082375952112,
1,parcelated_audio/44/44_12.ogg,,,,,,,,,0,0,0,0,0,1,1,1,0,0,0,0,,,,,,,,,,,,,0,0,0,0,0,11,11,11,,,,,,,,,,,,,,,,,,,,,,,,,,,,,,,,,,,,,,,,,,,,,,,,,,,,,,,,,,,,,,,,,,,,,,,,,,,,,,,,,,,,,,,,,,,,,,,,,,,,,424.8870995890002,435.4708633219998,,,,,110621,0,3,0,1,0,1,2,0,26,2021_Nov_06_1127,listening_fmri,3.2.4,59.73082375952112,
1,parcelated_audio/44/44_13.ogg,,,,,,,,,0,0,0,0,0,1,1,1,0,0,0,0,,,,,,,,,,,,,0,0,0,0,0,12,12,12,,,,,,,,,,,,,,,,,,,,,,,,,,,,,,,,,,,,,,,,,,,,,,,,,,,,,,,,,,,,,,,,,,,,,,,,,,,,,,,,,,,,,,,,,,,,,,,,,,,,,435.47122164899974,442.63626050400035,,,,,110621,0,3,0,1,0,1,2,0,26,2021_Nov_06_1127,listening_fmri,3.2.4,59.73082375952112,
1,parcelated_audio/44/44_14.ogg,,,,,,,,,0,0,0,0,0,1,1,1,0,0,0,0,,,,,,,,,,,,,0,0,0,0,0,13,13,13,,,,,,,,,,,,,,,,,,,,,,,,,,,,,,,,,,,,,,,,,,,,,,,,,,,,,,,,,,,,,,,,,,,,,,,,,,,,,,,,,,,,,,,,,,,,,,,,,,,,,442.6366363369998,448.9393123310001,,,,,110621,0,3,0,1,0,1,2,0,26,2021_Nov_06_1127,listening_fmri,3.2.4,59.73082375952112,
1,parcelated_audio/44/44_15.ogg,,,,,,,,,0,0,0,0,0,1,1,1,0,0,0,0,,,,,,,,,,,,,0,0,0,0,0,14,14,14,,,,,,,,,,,,,,,,,,,,,,,,,,,,,,,,,,,,,,,,,,,,,,,,,,,,,,,,,,,,,,,,,,,,,,,,,,,,,,,,,,,,,,,,,,,,,,,,,,,,,448.9396674090003,453.0202852550001,,,,,110621,0,3,0,1,0,1,2,0,26,2021_Nov_06_1127,listening_fmri,3.2.4,59.73082375952112,
1,parcelated_audio/44/44_16.ogg,,,,,,,,,0,0,0,0,0,1,1,1,0,0,0,0,,,,,,,,,,,,,0,0,0,0,0,15,15,15,,,,,,,,,,,,,,,,,,,,,,,,,,,,,,,,,,,,,,,,,,,,,,,,,,,,,,,,,,,,,,,,,,,,,,,,,,,,,,,,,,,,,,,,,,,,,,,,,,,,,453.0207847669999,457.03901637000035,,,,,110621,0,3,0,1,0,1,2,0,26,2021_Nov_06_1127,listening_fmri,3.2.4,59.73082375952112,
1,parcelated_audio/44/44_17.ogg,,,,,,,,,0,0,0,0,0,1,1,1,0,0,0,0,,,,,,,,,,,,,0,0,0,0,0,16,16,16,,,,,,,,,,,,,,,,,,,,,,,,,,,,,,,,,,,,,,,,,,,,,,,,,,,,,,,,,,,,,,,,,,,,,,,,,,,,,,,,,,,,,,,,,,,,,,,,,,,,,457.039525227,465.51865480000015,,,,,110621,0,3,0,1,0,1,2,0,26,2021_Nov_06_1127,listening_fmri,3.2.4,59.73082375952112,
1,parcelated_audio/44/44_18.ogg,,,,,,,,,0,0,0,0,0,1,1,1,0,0,0,0,,,,,,,,,,,,,0,0,0,0,0,17,17,17,,,,,,,,,,,,,,,,,,,,,,,,,,,,,,,,,,,,,,,,,,,,,,,,,,,,,,,,,,,,,,,,,,,,,,,,,,,,,,,,,,,,,,,,,,,,,,,,,,,,,465.51914203399974,475.35870220200013,,,,,110621,0,3,0,1,0,1,2,0,26,2021_Nov_06_1127,listening_fmri,3.2.4,59.73082375952112,
1,parcelated_audio/44/44_19.ogg,,,,,,,,,0,0,0,0,0,1,1,1,0,0,0,0,,,,,,,,,,,,,0,0,0,0,0,18,18,18,,,,,,,,,,,,,,,,,,,,,,,,,,,,,,,,,,,,,,,,,,,,,,,,,,,,,,,,,,,,,,,,,,,,,,,,,,,,,,,,,,,,,,,,,,,,,,,,,,,,,475.3591596340002,486.3447076600005,,,,,110621,0,3,0,1,0,1,2,0,26,2021_Nov_06_1127,listening_fmri,3.2.4,59.73082375952112,
1,parcelated_audio/44/44_20.ogg,,,,,,,,,0,0,0,0,0,1,1,1,0,0,0,0,,,,,,,,,,,,,0,0,0,0,0,19,19,19,,,,,,,,,,,,,,,,,,,,,,,,,,,,,,,,,,,,,,,,,,,,,,,,,,,,,,,,,,,,,,,,,,,,,,,,,,,,,,,,,,,,,,,,,,,,,,,,,,,,,486.34506075599984,494.5609565320001,,,,,110621,0,3,0,1,0,1,2,0,26,2021_Nov_06_1127,listening_fmri,3.2.4,59.73082375952112,
1,parcelated_audio/44/44_21.ogg,,,,,,,,,0,0,0,0,0,1,1,1,0,0,0,0,,,,,,,,,,,,,0,0,0,0,0,20,20,20,,,,,,,,,,,,,,,,,,,,,,,,,,,,,,,,,,,,,,,,,,,,,,,,,,,,,,,,,,,,,,,,,,,,,,,,,,,,,,,,,,,,,,,,,,,,,,,,,,,,,494.56146962799994,503.45753965899985,,,,,110621,0,3,0,1,0,1,2,0,26,2021_Nov_06_1127,listening_fmri,3.2.4,59.73082375952112,
1,parcelated_audio/44/44_22.ogg,,,,,,,,,0,0,0,0,0,1,1,1,0,0,0,0,,,,,,,,,,,,,0,0,0,0,0,21,21,21,,,,,,,,,,,,,,,,,,,,,,,,,,,,,,,,,,,,,,,,,,,,,,,,,,,,,,,,,,,,,,,,,,,,,,,,,,,,,,,,,,,,,,,,,,,,,,,,,,,,,503.45786368300014,508.3833265479998,,,,,110621,0,3,0,1,0,1,2,0,26,2021_Nov_06_1127,listening_fmri,3.2.4,59.73082375952112,
1,parcelated_audio/44/44_23.ogg,,,,,,,,,0,0,0,0,0,1,1,1,0,0,0,0,,,,,,,,,,,,,0,0,0,0,0,22,22,22,,,,,,,,,,,,,,,,,,,,,,,,,,,,,,,,,,,,,,,,,,,,,,,,,,,,,,,,,,,,,,,,,,,,,,,,,,,,,,,,,,,,,,,,,,,,,,,,,,,,,508.3836698770001,515.0377547859998,,,,,110621,0,3,0,1,0,1,2,0,26,2021_Nov_06_1127,listening_fmri,3.2.4,59.73082375952112,
1,parcelated_audio/44/44_24.ogg,,,,,,,,,0,0,0,0,0,1,1,1,0,0,0,0,,,,,,,,,,,,,0,0,0,0,0,23,23,23,,,,,,,,,,,,,,,,,,,,,,,,,,,,,,,,,,,,,,,,,,,,,,,,,,,,,,,,,,,,,,,,,,,,,,,,,,,,,,,,,,,,,,,,,,,,,,,,,,,,,515.038112796,523.7688617909998,,,,,110621,0,3,0,1,0,1,2,0,26,2021_Nov_06_1127,listening_fmri,3.2.4,59.73082375952112,
1,parcelated_audio/44/44_25.ogg,,,,,,,,,0,0,0,0,0,1,1,1,0,0,0,0,,,,,,,,,,,,,0,0,0,0,0,24,24,24,,,,,,,,,,,,,,,,,,,,,,,,,,,,,,,,,,,,,,,,,,,,,,,,,,,,,,,,,,,,,,,,,,,,,,,,,,,,,,,,,,,,,,,,,,,,,,,,,,,,,523.7693025540002,530.0912693339997,,,,,110621,0,3,0,1,0,1,2,0,26,2021_Nov_06_1127,listening_fmri,3.2.4,59.73082375952112,
1,parcelated_audio/44/44_26.ogg,,,,,,,,,0,0,0,0,0,1,1,1,0,0,0,0,,,,,,,,,,,,,0,0,0,0,0,25,25,25,,,,,,,,,,,,,,,,,,,,,,,,,,,,,,,,,,,,,,,,,,,,,,,,,,,,,,,,,,,,,,,,,,,,,,,,,,,,,,,,,,,,,,,,,,,,,,,,,,,,,530.0916247180003,534.9416208129996,,,,,110621,0,3,0,1,0,1,2,0,26,2021_Nov_06_1127,listening_fmri,3.2.4,59.73082375952112,
1,parcelated_audio/44/44_27.ogg,,,,,,,,,0,0,0,0,0,1,1,1,0,0,0,0,,,,,,,,,,,,,0,0,0,0,0,26,26,26,,,,,,,,,,,,,,,,,,,,,,,,,,,,,,,,,,,,,,,,,,,,,,,,,,,,,,,,,,,,,,,,,,,,,,,,,,,,,,,,,,,,,,,,,,,,,,,,,,,,,534.9421377079998,541.9188800809998,,,,,110621,0,3,0,1,0,1,2,0,26,2021_Nov_06_1127,listening_fmri,3.2.4,59.73082375952112,
1,parcelated_audio/44/44_28.ogg,,,,,,,,,0,0,0,0,0,1,1,1,0,0,0,0,,,,,,,,,,,,,0,0,0,0,0,27,27,27,,,,,,,,,,,,,,,,,,,,,,,,,,,,,,,,,,,,,,,,,,,,,,,,,,,,,,,,,,,,,,,,,,,,,,,,,,,,,,,,,,,,,,,,,,,,,,,,,,,,,541.9192419410001,553.2026918700003,,,,,110621,0,3,0,1,0,1,2,0,26,2021_Nov_06_1127,listening_fmri,3.2.4,59.73082375952112,
1,,,,,,,,,,0,0,0,0,0,1,1,1,0,0,0,0,,,,,,,,,,,,,0,0,0,0,,,,,,,,,,,,,,,,,,,,,,,,,,,,,,,,,,,,,,,,,,,,,,,,,,,,,,,,,,,,,,,,,,,,,,,,,,,,,,,,,,,,,,,,,,,,,,,,,,,,,,,,,,,,,,,110621,0,3,0,1,0,1,2,0,26,2021_Nov_06_1127,listening_fmri,3.2.4,59.73082375952112,
1,,,,,,,,,,0,0,0,0,0,1,1,1,0,0,0,0,,,,,,,,,,,,,,,,,,,,,,,,,,,,,,,,,,,,,,553.2031847010003,559.2001593089999,588.1280158250001,None,,,,,,,,,,,,,,,,,,,,,,,,,,,,,,,,,,,,,,,,,,,,,,,,,,,,,,,,,,,,,,,,,,,,,,,,,,,,,,,,,,594.133403283,None,594.133403283,None,110621,0,3,0,1,0,1,2,0,26,2021_Nov_06_1127,listening_fmri,3.2.4,59.73082375952112,
1,,,,,,,,,,0,0,0,0,0,1,1,1,,,,,,,,,,,,,,,,,,,,,,,,,,,,,,,,,,,,,,,,,,,,,,,,,,,,,,,,,,,,,,,,,,,,,,,,,,,,,,,,,,,,,,,,,,,,,,,,,,,,,,,,,,,,,,,,,,,,,,,,,,,,,,,,,,,110621,0,3,0,1,0,1,2,0,26,2021_Nov_06_1127,listening_fmri,3.2.4,59.73082375952112,
2,,,,,,,,,,0,0,0,0,0,2,2,2,0,0,0,0,0,0,0,0,0,0,0,0,,,,,,,,,,,,,,,,,,,,,,,,,,,,,,,,,,595.1621248370002,None,595.1621248370002,None,8,0.7613895349995801,595.1621248370002,None,595.1621248370002,None,595.9450024999996,None,8,0.4343668430001344,595.9450024999996,None,595.9450024999996,None,596.429157257,None,596.429157257,None,596.429157257,None,8,0.4762109049997889,596.429157257,None,596.9290308680002,None,8,0.45247942700007115,596.9290308680002,None,596.9290308680002,None,597.5001331670001,None,597.5001331670001,None,597.5001331670001,None,597.5001331670001,None,597.5001331670001,None,597.5001331670001,None,597.5001331670001,None,None,597.5001331670001,None,,,,,,,,,,,,,,,,,,,,,,,,,,,,,,,,,110621,0,3,0,1,0,1,2,0,26,2021_Nov_06_1127,listening_fmri,3.2.4,59.73082375952112,
2,,,,,,,,,,0,0,0,0,0,2,2,2,0,0,0,0,0,0,0,0,1,0,1,0,,,,,,,,,,,,,,,,,,,,,,,,,,,,,,,,,,,,,,,,,,,,,,,,,,,,607.3276592089996,None,607.3276592089996,None,607.3276592089996,None,7,0.5727333079994423,607.3276592089996,None,607.9278818000003,None,7,0.5136391630003345,607.9278818000003,None,607.9278818000003,None,608.5490450670004,None,608.5490450670004,None,608.5490450670004,None,608.5490450670004,None,608.5490450670004,None,608.5490450670004,None,608.5490450670004,None,None,608.5490450670004,None,,,,,,,,,,,,,,,,,,,,,,,,,,,,,,,,,110621,0,3,0,1,0,1,2,0,26,2021_Nov_06_1127,listening_fmri,3.2.4,59.73082375952112,
2,,,,,,,,,,0,0,0,0,0,2,2,2,0,0,0,0,0,0,0,0,2,0,2,0,,,,,,,,,,,,,,,,,,,,,,,,,,,,,,,,,,,,,,,,,,,,,,,,,,,,616.8446821649995,None,616.8446821649995,None,616.8446821649995,None,2,0.499704531000134,616.8446821649995,None,617.3620159060001,None,2,0.5104354499999317,617.3620159060001,None,617.3620159060001,None,617.9781109019996,None,617.9781109019996,None,617.9781109019996,None,617.9781109019996,None,617.9781109019996,None,617.9781109019996,None,617.9781109019996,None,None,617.9781109019996,None,,,,,,,,,,,,,,,,,,,,,,,,,,,,,,,,,110621,0,3,0,1,0,1,2,0,26,2021_Nov_06_1127,listening_fmri,3.2.4,59.73082375952112,
2,,,,,,,,,,0,0,0,0,0,2,2,2,0,0,0,0,0,0,0,0,3,0,3,0,,,,,,,,,,,,,,,,,,,,,,,,,,,,,,,,,,,,,,,,,,,,,,,,,,,,632.7785503539999,None,632.7785503539999,None,632.7785503539999,None,1,0.17195233100028418,632.7785503539999,None,632.9784548899997,None,2,0.04501598800015927,632.9784548899997,None,632.9784548899997,None,633.1122843880003,None,633.1122843880003,None,633.1122843880003,None,633.1122843880003,None,633.1122843880003,None,633.1122843880003,None,633.1122843880003,None,None,633.1122843880003,None,,,,,,,,,,,,,,,,,,,,,,,,,,,,,,,,,110621,0,3,0,1,0,1,2,0,26,2021_Nov_06_1127,listening_fmri,3.2.4,59.73082375952112,
2,,,,,,,,,,0,0,0,0,0,2,2,2,0,0,0,0,0,0,0,0,,,,,,,,,,,,,,,,,,,,,,,,,,,,,,,,,,,,,,,,,,,,,,,,,,,,,,,,,,,,,,,,,,,,,,,,,,,,,,,,,,,,,,,,,,,648.1280275489999,None,3,1.2873908769997797,648.1280275489999,None,648.1280275489999,None,649.4779611719996,None,649.4779611719996,None,649.4779611719996,None,3,0.6734588939998503,649.4779611719996,None,,,,,,,,,,,,,,,110621,0,3,0,1,0,1,2,0,26,2021_Nov_06_1127,listening_fmri,3.2.4,59.73082375952112,
2,parcelated_audio/13/13_1.ogg,,,,,,,,,0,0,0,0,0,2,2,2,0,0,0,0,,,,,,,,,,,,,0,0,0,0,0,0,0,0,,,,,,,,,,,,,,,,,,,,,,,,,,,,,,,,,,,,,,,,,,,,,,,,,,,,,,,,,,,,,,,,,,,,,,,,,,,,,,,,,,,,,,,,,,,,,650.1786849649998,None,3,0.9647258060003878,650.1786849649998,None,616.2416391510005,619.2541849620002,619.2640139370005,630.9477430360002,,,,,110621,0,3,0,1,0,1,2,0,26,2021_Nov_06_1127,listening_fmri,3.2.4,59.73082375952112,
2,parcelated_audio/13/13_2.ogg,,,,,,,,,0,0,0,0,0,2,2,2,0,0,0,0,,,,,,,,,,,,,0,0,0,0,0,1,1,1,,,,,,,,,,,,,,,,,,,,,,,,,,,,,,,,,,,,,,,,,,,,,,,,,,,,,,,,,,,,,,,,,,,,,,,,,,,,,,,,,,,,,,,,,,,,,,,,,,,,,630.9480720660003,637.0497863950004,,,,,110621,0,3,0,1,0,1,2,0,26,2021_Nov_06_1127,listening_fmri,3.2.4,59.73082375952112,
2,parcelated_audio/13/13_3.ogg,,,,,,,,,0,0,0,0,0,2,2,2,0,0,0,0,,,,,,,,,,,,,0,0,0,0,0,2,2,2,,,,,,,,,,,,,,,,,,,,,,,,,,,,,,,,,,,,,,,,,,,,,,,,,,,,,,,,,,,,,,,,,,,,,,,,,,,,,,,,,,,,,,,,,,,,,,,,,,,,,637.0501431580005,645.4068051920003,,,,,110621,0,3,0,1,0,1,2,0,26,2021_Nov_06_1127,listening_fmri,3.2.4,59.73082375952112,
2,parcelated_audio/13/13_4.ogg,,,,,,,,,0,0,0,0,0,2,2,2,0,0,0,0,,,,,,,,,,,,,0,0,0,0,0,3,3,3,,,,,,,,,,,,,,,,,,,,,,,,,,,,,,,,,,,,,,,,,,,,,,,,,,,,,,,,,,,,,,,,,,,,,,,,,,,,,,,,,,,,,,,,,,,,,,,,,,,,,645.4079700940001,655.6364749189997,,,,,110621,0,3,0,1,0,1,2,0,26,2021_Nov_06_1127,listening_fmri,3.2.4,59.73082375952112,
2,parcelated_audio/13/13_5.ogg,,,,,,,,,0,0,0,0,0,2,2,2,0,0,0,0,,,,,,,,,,,,,0,0,0,0,0,4,4,4,,,,,,,,,,,,,,,,,,,,,,,,,,,,,,,,,,,,,,,,,,,,,,,,,,,,,,,,,,,,,,,,,,,,,,,,,,,,,,,,,,,,,,,,,,,,,,,,,,,,,655.636892554,661.6737495830002,,,,,110621,0,3,0,1,0,1,2,0,26,2021_Nov_06_1127,listening_fmri,3.2.4,59.73082375952112,
2,parcelated_audio/13/13_6.ogg,,,,,,,,,0,0,0,0,0,2,2,2,0,0,0,0,,,,,,,,,,,,,0,0,0,0,0,5,5,5,,,,,,,,,,,,,,,,,,,,,,,,,,,,,,,,,,,,,,,,,,,,,,,,,,,,,,,,,,,,,,,,,,,,,,,,,,,,,,,,,,,,,,,,,,,,,,,,,,,,,661.6742458959998,666.3695513539997,,,,,110621,0,3,0,1,0,1,2,0,26,2021_Nov_06_1127,listening_fmri,3.2.4,59.73082375952112,
2,parcelated_audio/13/13_7.ogg,,,,,,,,,0,0,0,0,0,2,2,2,0,0,0,0,,,,,,,,,,,,,0,0,0,0,0,6,6,6,,,,,,,,,,,,,,,,,,,,,,,,,,,,,,,,,,,,,,,,,,,,,,,,,,,,,,,,,,,,,,,,,,,,,,,,,,,,,,,,,,,,,,,,,,,,,,,,,,,,,666.3701582109998,674.02288176,,,,,110621,0,3,0,1,0,1,2,0,26,2021_Nov_06_1127,listening_fmri,3.2.4,59.73082375952112,
2,parcelated_audio/13/13_8.ogg,,,,,,,,,0,0,0,0,0,2,2,2,0,0,0,0,,,,,,,,,,,,,0,0,0,0,0,7,7,7,,,,,,,,,,,,,,,,,,,,,,,,,,,,,,,,,,,,,,,,,,,,,,,,,,,,,,,,,,,,,,,,,,,,,,,,,,,,,,,,,,,,,,,,,,,,,,,,,,,,,674.0232359760003,679.3243020529999,,,,,110621,0,3,0,1,0,1,2,0,26,2021_Nov_06_1127,listening_fmri,3.2.4,59.73082375952112,
2,parcelated_audio/13/13_9.ogg,,,,,,,,,0,0,0,0,0,2,2,2,0,0,0,0,,,,,,,,,,,,,0,0,0,0,0,8,8,8,,,,,,,,,,,,,,,,,,,,,,,,,,,,,,,,,,,,,,,,,,,,,,,,,,,,,,,,,,,,,,,,,,,,,,,,,,,,,,,,,,,,,,,,,,,,,,,,,,,,,679.3246539820002,683.928687736,,,,,110621,0,3,0,1,0,1,2,0,26,2021_Nov_06_1127,listening_fmri,3.2.4,59.73082375952112,
2,parcelated_audio/13/13_10.ogg,,,,,,,,,0,0,0,0,0,2,2,2,0,0,0,0,,,,,,,,,,,,,0,0,0,0,0,9,9,9,,,,,,,,,,,,,,,,,,,,,,,,,,,,,,,,,,,,,,,,,,,,,,,,,,,,,,,,,,,,,,,,,,,,,,,,,,,,,,,,,,,,,,,,,,,,,,,,,,,,,683.929044216,689.8336047410003,,,,,110621,0,3,0,1,0,1,2,0,26,2021_Nov_06_1127,listening_fmri,3.2.4,59.73082375952112,
2,parcelated_audio/13/13_11.ogg,,,,,,,,,0,0,0,0,0,2,2,2,0,0,0,0,,,,,,,,,,,,,0,0,0,0,0,10,10,10,,,,,,,,,,,,,,,,,,,,,,,,,,,,,,,,,,,,,,,,,,,,,,,,,,,,,,,,,,,,,,,,,,,,,,,,,,,,,,,,,,,,,,,,,,,,,,,,,,,,,689.8339633349997,694.4377863970003,,,,,110621,0,3,0,1,0,1,2,0,26,2021_Nov_06_1127,listening_fmri,3.2.4,59.73082375952112,
2,parcelated_audio/13/13_12.ogg,,,,,,,,,0,0,0,0,0,2,2,2,0,0,0,0,,,,,,,,,,,,,0,0,0,0,0,11,11,11,,,,,,,,,,,,,,,,,,,,,,,,,,,,,,,,,,,,,,,,,,,,,,,,,,,,,,,,,,,,,,,,,,,,,,,,,,,,,,,,,,,,,,,,,,,,,,,,,,,,,694.438144099,703.0055762889997,,,,,110621,0,3,0,1,0,1,2,0,26,2021_Nov_06_1127,listening_fmri,3.2.4,59.73082375952112,
2,parcelated_audio/13/13_13.ogg,,,,,,,,,0,0,0,0,0,2,2,2,0,0,0,0,,,,,,,,,,,,,0,0,0,0,0,12,12,12,,,,,,,,,,,,,,,,,,,,,,,,,,,,,,,,,,,,,,,,,,,,,,,,,,,,,,,,,,,,,,,,,,,,,,,,,,,,,,,,,,,,,,,,,,,,,,,,,,,,,703.005930837,712.9067983200002,,,,,110621,0,3,0,1,0,1,2,0,26,2021_Nov_06_1127,listening_fmri,3.2.4,59.73082375952112,
2,parcelated_audio/13/13_14.ogg,,,,,,,,,0,0,0,0,0,2,2,2,0,0,0,0,,,,,,,,,,,,,0,0,0,0,0,13,13,13,,,,,,,,,,,,,,,,,,,,,,,,,,,,,,,,,,,,,,,,,,,,,,,,,,,,,,,,,,,,,,,,,,,,,,,,,,,,,,,,,,,,,,,,,,,,,,,,,,,,,712.9073240910002,721.0717134010001,,,,,110621,0,3,0,1,0,1,2,0,26,2021_Nov_06_1127,listening_fmri,3.2.4,59.73082375952112,
2,parcelated_audio/13/13_15.ogg,,,,,,,,,0,0,0,0,0,2,2,2,0,0,0,0,,,,,,,,,,,,,0,0,0,0,0,14,14,14,,,,,,,,,,,,,,,,,,,,,,,,,,,,,,,,,,,,,,,,,,,,,,,,,,,,,,,,,,,,,,,,,,,,,,,,,,,,,,,,,,,,,,,,,,,,,,,,,,,,,721.0720698300001,729.7473006170003,,,,,110621,0,3,0,1,0,1,2,0,26,2021_Nov_06_1127,listening_fmri,3.2.4,59.73082375952112,
2,parcelated_audio/13/13_16.ogg,,,,,,,,,0,0,0,0,0,2,2,2,0,0,0,0,,,,,,,,,,,,,0,0,0,0,0,15,15,15,,,,,,,,,,,,,,,,,,,,,,,,,,,,,,,,,,,,,,,,,,,,,,,,,,,,,,,,,,,,,,,,,,,,,,,,,,,,,,,,,,,,,,,,,,,,,,,,,,,,,729.7476378359997,732.052088118,,,,,110621,0,3,0,1,0,1,2,0,26,2021_Nov_06_1127,listening_fmri,3.2.4,59.73082375952112,
2,parcelated_audio/13/13_17.ogg,,,,,,,,,0,0,0,0,0,2,2,2,0,0,0,0,,,,,,,,,,,,,0,0,0,0,0,16,16,16,,,,,,,,,,,,,,,,,,,,,,,,,,,,,,,,,,,,,,,,,,,,,,,,,,,,,,,,,,,,,,,,,,,,,,,,,,,,,,,,,,,,,,,,,,,,,,,,,,,,,732.0524475009997,739.6364288750001,,,,,110621,0,3,0,1,0,1,2,0,26,2021_Nov_06_1127,listening_fmri,3.2.4,59.73082375952112,
2,parcelated_audio/13/13_18.ogg,,,,,,,,,0,0,0,0,0,2,2,2,0,0,0,0,,,,,,,,,,,,,0,0,0,0,0,17,17,17,,,,,,,,,,,,,,,,,,,,,,,,,,,,,,,,,,,,,,,,,,,,,,,,,,,,,,,,,,,,,,,,,,,,,,,,,,,,,,,,,,,,,,,,,,,,,,,,,,,,,739.6369833280005,749.8313422749998,,,,,110621,0,3,0,1,0,1,2,0,26,2021_Nov_06_1127,listening_fmri,3.2.4,59.73082375952112,
2,parcelated_audio/13/13_19.ogg,,,,,,,,,0,0,0,0,0,2,2,2,0,0,0,0,,,,,,,,,,,,,0,0,0,0,0,18,18,18,,,,,,,,,,,,,,,,,,,,,,,,,,,,,,,,,,,,,,,,,,,,,,,,,,,,,,,,,,,,,,,,,,,,,,,,,,,,,,,,,,,,,,,,,,,,,,,,,,,,,749.8317502070004,757.782689144,,,,,110621,0,3,0,1,0,1,2,0,26,2021_Nov_06_1127,listening_fmri,3.2.4,59.73082375952112,
2,parcelated_audio/13/13_20.ogg,,,,,,,,,0,0,0,0,0,2,2,2,0,0,0,0,,,,,,,,,,,,,0,0,0,0,0,19,19,19,,,,,,,,,,,,,,,,,,,,,,,,,,,,,,,,,,,,,,,,,,,,,,,,,,,,,,,,,,,,,,,,,,,,,,,,,,,,,,,,,,,,,,,,,,,,,,,,,,,,,757.7830367360002,762.9682570340001,,,,,110621,0,3,0,1,0,1,2,0,26,2021_Nov_06_1127,listening_fmri,3.2.4,59.73082375952112,
2,parcelated_audio/13/13_21.ogg,,,,,,,,,0,0,0,0,0,2,2,2,0,0,0,0,,,,,,,,,,,,,0,0,0,0,0,20,20,20,,,,,,,,,,,,,,,,,,,,,,,,,,,,,,,,,,,,,,,,,,,,,,,,,,,,,,,,,,,,,,,,,,,,,,,,,,,,,,,,,,,,,,,,,,,,,,,,,,,,,762.9687238039996,766.2816564169998,,,,,110621,0,3,0,1,0,1,2,0,26,2021_Nov_06_1127,listening_fmri,3.2.4,59.73082375952112,
2,parcelated_audio/13/13_22.ogg,,,,,,,,,0,0,0,0,0,2,2,2,0,0,0,0,,,,,,,,,,,,,0,0,0,0,0,21,21,21,,,,,,,,,,,,,,,,,,,,,,,,,,,,,,,,,,,,,,,,,,,,,,,,,,,,,,,,,,,,,,,,,,,,,,,,,,,,,,,,,,,,,,,,,,,,,,,,,,,,,766.2820142640003,769.686450745,,,,,110621,0,3,0,1,0,1,2,0,26,2021_Nov_06_1127,listening_fmri,3.2.4,59.73082375952112,
2,parcelated_audio/13/13_23.ogg,,,,,,,,,0,0,0,0,0,2,2,2,0,0,0,0,,,,,,,,,,,,,0,0,0,0,0,22,22,22,,,,,,,,,,,,,,,,,,,,,,,,,,,,,,,,,,,,,,,,,,,,,,,,,,,,,,,,,,,,,,,,,,,,,,,,,,,,,,,,,,,,,,,,,,,,,,,,,,,,,769.6868030679998,774.9426860619997,,,,,110621,0,3,0,1,0,1,2,0,26,2021_Nov_06_1127,listening_fmri,3.2.4,59.73082375952112,
2,parcelated_audio/13/13_24.ogg,,,,,,,,,0,0,0,0,0,2,2,2,0,0,0,0,,,,,,,,,,,,,0,0,0,0,0,23,23,23,,,,,,,,,,,,,,,,,,,,,,,,,,,,,,,,,,,,,,,,,,,,,,,,,,,,,,,,,,,,,,,,,,,,,,,,,,,,,,,,,,,,,,,,,,,,,,,,,,,,,774.9430437849996,784.6737087230003,,,,,110621,0,3,0,1,0,1,2,0,26,2021_Nov_06_1127,listening_fmri,3.2.4,59.73082375952112,
2,parcelated_audio/13/13_25.ogg,,,,,,,,,0,0,0,0,0,2,2,2,0,0,0,0,,,,,,,,,,,,,0,0,0,0,0,24,24,24,,,,,,,,,,,,,,,,,,,,,,,,,,,,,,,,,,,,,,,,,,,,,,,,,,,,,,,,,,,,,,,,,,,,,,,,,,,,,,,,,,,,,,,,,,,,,,,,,,,,,784.6740873839999,791.9498322830004,,,,,110621,0,3,0,1,0,1,2,0,26,2021_Nov_06_1127,listening_fmri,3.2.4,59.73082375952112,
2,parcelated_audio/13/13_26.ogg,,,,,,,,,0,0,0,0,0,2,2,2,0,0,0,0,,,,,,,,,,,,,0,0,0,0,0,25,25,25,,,,,,,,,,,,,,,,,,,,,,,,,,,,,,,,,,,,,,,,,,,,,,,,,,,,,,,,,,,,,,,,,,,,,,,,,,,,,,,,,,,,,,,,,,,,,,,,,,,,,791.950435918,798.1368695680003,,,,,110621,0,3,0,1,0,1,2,0,26,2021_Nov_06_1127,listening_fmri,3.2.4,59.73082375952112,
2,parcelated_audio/13/13_27.ogg,,,,,,,,,0,0,0,0,0,2,2,2,0,0,0,0,,,,,,,,,,,,,0,0,0,0,0,26,26,26,,,,,,,,,,,,,,,,,,,,,,,,,,,,,,,,,,,,,,,,,,,,,,,,,,,,,,,,,,,,,,,,,,,,,,,,,,,,,,,,,,,,,,,,,,,,,,,,,,,,,798.1377757549999,803.3737502419999,,,,,110621,0,3,0,1,0,1,2,0,26,2021_Nov_06_1127,listening_fmri,3.2.4,59.73082375952112,
2,parcelated_audio/13/13_28.ogg,,,,,,,,,0,0,0,0,0,2,2,2,0,0,0,0,,,,,,,,,,,,,0,0,0,0,0,27,27,27,,,,,,,,,,,,,,,,,,,,,,,,,,,,,,,,,,,,,,,,,,,,,,,,,,,,,,,,,,,,,,,,,,,,,,,,,,,,,,,,,,,,,,,,,,,,,,,,,,,,,803.3765905400005,808.8069279860001,,,,,110621,0,3,0,1,0,1,2,0,26,2021_Nov_06_1127,listening_fmri,3.2.4,59.73082375952112,
2,parcelated_audio/13/13_29.ogg,,,,,,,,,0,0,0,0,0,2,2,2,0,0,0,0,,,,,,,,,,,,,0,0,0,0,0,28,28,28,,,,,,,,,,,,,,,,,,,,,,,,,,,,,,,,,,,,,,,,,,,,,,,,,,,,,,,,,,,,,,,,,,,,,,,,,,,,,,,,,,,,,,,,,,,,,,,,,,,,,808.8081432589997,812.1036619300003,,,,,110621,0,3,0,1,0,1,2,0,26,2021_Nov_06_1127,listening_fmri,3.2.4,59.73082375952112,
2,parcelated_audio/13/13_30.ogg,,,,,,,,,0,0,0,0,0,2,2,2,0,0,0,0,,,,,,,,,,,,,0,0,0,0,0,29,29,29,,,,,,,,,,,,,,,,,,,,,,,,,,,,,,,,,,,,,,,,,,,,,,,,,,,,,,,,,,,,,,,,,,,,,,,,,,,,,,,,,,,,,,,,,,,,,,,,,,,,,812.1041207190001,815.5616249020004,,,,,110621,0,3,0,1,0,1,2,0,26,2021_Nov_06_1127,listening_fmri,3.2.4,59.73082375952112,
2,parcelated_audio/13/13_31.ogg,,,,,,,,,0,0,0,0,0,2,2,2,0,0,0,0,,,,,,,,,,,,,0,0,0,0,0,30,30,30,,,,,,,,,,,,,,,,,,,,,,,,,,,,,,,,,,,,,,,,,,,,,,,,,,,,,,,,,,,,,,,,,,,,,,,,,,,,,,,,,,,,,,,,,,,,,,,,,,,,,815.5619887109997,821.5191474660005,,,,,110621,0,3,0,1,0,1,2,0,26,2021_Nov_06_1127,listening_fmri,3.2.4,59.73082375952112,
2,,,,,,,,,,0,0,0,0,0,2,2,2,0,0,0,0,,,,,,,,,,,,,0,0,0,0,,,,,,,,,,,,,,,,,,,,,,,,,,,,,,,,,,,,,,,,,,,,,,,,,,,,,,,,,,,,,,,,,,,,,,,,,,,,,,,,,,,,,,,,,,,,,,,,,,,,,,,,,,,,,,,110621,0,3,0,1,0,1,2,0,26,2021_Nov_06_1127,listening_fmri,3.2.4,59.73082375952112,
,,,,,,,,,,,,,,,,,,,,,,,,,,,,,,,,,,,,,,,,,,,,,,,,,,,,,,,,,,,821.5196340029997,827.5170835489998,856.4457180179998,None,,,,,,,,,,,,,,,,,,,,,,,,,,,,,,,,,,,,,,,,,,,,,,,,,,,,,,,,,,,,,,,,,,,,,,,,,,,,,,,,,,862.4449874080001,None,862.4449874080001,None,,,,,,,,,,,,,,,
﻿count,audio,trials_14.thisRepN,trials_14.thisTrialN,trials_14.thisN,trials_14.thisIndex,trials_3.thisRepN,trials_3.thisTrialN,trials_3.thisN,trials_3.thisIndex,trials_4.thisRepN,trials_4.thisTrialN,trials_4.thisN,trials_4.thisIndex,trials_6.thisRepN,trials_6.thisTrialN,trials_6.thisN,trials_6.thisIndex,trials_9.thisRepN,trials_9.thisTrialN,trials_9.thisN,trials_9.thisIndex,trials_10.thisRepN,trials_10.thisTrialN,trials_10.thisN,trials_10.thisIndex,trials_11.thisRepN,trials_11.thisTrialN,trials_11.thisN,trials_11.thisIndex,trials_12.thisRepN,trials_12.thisTrialN,trials_12.thisN,trials_12.thisIndex,trials_25.thisRepN,trials_25.thisTrialN,trials_25.thisN,trials_25.thisIndex,trials_15.thisRepN,trials_15.thisTrialN,trials_15.thisN,trials_15.thisIndex,trials_26.thisRepN,trials_26.thisTrialN,trials_26.thisN,trials_26.thisIndex,story_list_block2,action_list_block2,textTrigger.started,textTrigger.stopped,getTrigger.keys,getTrigger.rt,getTrigger.started,getTrigger.stopped,triggerTime,text_76.started,text_76.stopped,text_77.started,text_77.stopped,startWait,endWait,image_23.started,image_23.stopped,text_55.started,text_55.stopped,text_56.started,text_56.stopped,key_resp_2.keys,key_resp_2.rt,key_resp_2.started,key_resp_2.stopped,text_82.started,text_82.stopped,text_57.started,text_57.stopped,key_resp_17.keys,key_resp_17.rt,key_resp_17.started,key_resp_17.stopped,text_83.started,text_83.stopped,text_60.started,text_60.stopped,image_2.started,image_2.stopped,text_58.started,text_58.stopped,key_resp_23.keys,key_resp_23.rt,key_resp_23.started,key_resp_23.stopped,text_62.started,text_62.stopped,key_resp_18.keys,key_resp_18.rt,key_resp_18.started,key_resp_18.stopped,text_84.started,text_84.stopped,question1_2.started,question1_2.stopped,question2_2.started,question2_2.stopped,question3_2.started,question3_2.stopped,question4_2.started,question4_2.stopped,question5_2.started,question5_2.stopped,question6_2.started,question6_2.stopped,image_15.started,image_15.stopped,key_resp.keys,key_resp.started,key_resp.stopped,text_59.started,text_59.stopped,key_resp_19.keys,key_resp_19.rt,key_resp_19.started,key_resp_19.stopped,text_85.started,text_85.stopped,text_61.started,text_61.stopped,image_17.started,image_17.stopped,text_63.started,text_63.stopped,key_resp_24.keys,key_resp_24.rt,key_resp_24.started,key_resp_24.stopped,text_64.started,text_64.stopped,key_resp_20.keys,key_resp_20.rt,key_resp_20.started,key_resp_20.stopped,storyImage_StartTime,storyImage_EndTime,clip_StartTime,clip_EndTime,text_67.started,text_67.stopped,text_68.started,text_68.stopped,participant,sA,sB,lA,lB,block_struct,play_stories,block,behavioral,random_seed,date,expName,psychopyVersion,frameRate,
0,,,,,,,,,,0,0,0,0,0,0,0,0,0,0,0,0,0,0,0,0,0,0,0,0,,,,,,,,,,,,,,,,,[22 44 13 31 33 42 11 24],[2 1 1 2 4 3 3 4],13.040823266000189,None,equal,21.855663614999685,13.040823266000189,None,21.88445075999971,13.040823266000189,None,13.040823266000189,None,0.00034292100008315174,5.9981482660004986,34.92697462199976,None,40.927075067999795,None,40.927075067999795,None,8,1.6004167039991444,40.927075067999795,None,40.927075067999795,None,42.54384687200036,None,8,0.6865636630000154,42.54384687200036,None,42.54384687200036,None,43.27760180600035,None,43.27760180600035,None,43.27760180600035,None,8,1.1537742499995147,43.27760180600035,None,44.46062145700034,None,7,1.294882501999382,44.46062145700034,None,44.46062145700034,None,45.85665805999997,None,45.85665805999997,None,45.85665805999997,None,45.85665805999997,None,45.85665805999997,None,45.85665805999997,None,45.85665805999997,None,None,45.85665805999997,None,,,,,,,,,,,,,,,,,,,,,,,,,,,,,,,,,110621,0,3,0,1,0,1,2,0,26,2021_Nov_06_1127,listening_fmri,3.2.4,59.73082375952112,
0,,,,,,,,,,0,0,0,0,0,0,0,0,0,0,0,0,0,0,0,0,,,,,,,,,,,,,,,,,,,,,,,,,,,,,,,,,,,,,,,,,,,,,,,,,,,,,,,,,,,,,,,,,,,,,,,,,,,,,,,,,,,,,,,,,,,64.94330063799953,None,3,2.1412146270004087,64.94330063799953,None,64.94330063799953,None,67.12368625099953,None,67.12368625099953,None,67.12368625099953,None,2,0.725825370000166,67.12368625099953,None,,,,,,,,,,,,,,,110621,0,3,0,1,0,1,2,0,26,2021_Nov_06_1127,listening_fmri,3.2.4,59.73082375952112,
0,parcelated_audio/22/22_1.ogg,,,,,,,,,0,0,0,0,0,0,0,0,0,0,0,0,,,,,,,,,,,,,0,0,0,0,0,0,0,0,,,,,,,,,,,,,,,,,,,,,,,,,,,,,,,,,,,,,,,,,,,,,,,,,,,,,,,,,,,,,,,,,,,,,,,,,,,,,,,,,,,,,,,,,,,,,67.87671737599976,None,3,1.6967939930000284,67.87671737599976,None,34.68361138399996,37.698742839999795,37.7048370120001,50.77264916100012,,,,,110621,0,3,0,1,0,1,2,0,26,2021_Nov_06_1127,listening_fmri,3.2.4,59.73082375952112,
0,parcelated_audio/22/22_2.ogg,,,,,,,,,0,0,0,0,0,0,0,0,0,0,0,0,,,,,,,,,,,,,0,0,0,0,0,1,1,1,,,,,,,,,,,,,,,,,,,,,,,,,,,,,,,,,,,,,,,,,,,,,,,,,,,,,,,,,,,,,,,,,,,,,,,,,,,,,,,,,,,,,,,,,,,,,,,,,,,,,50.77296821999971,57.147842680000394,,,,,110621,0,3,0,1,0,1,2,0,26,2021_Nov_06_1127,listening_fmri,3.2.4,59.73082375952112,
0,parcelated_audio/22/22_3.ogg,,,,,,,,,0,0,0,0,0,0,0,0,0,0,0,0,,,,,,,,,,,,,0,0,0,0,0,2,2,2,,,,,,,,,,,,,,,,,,,,,,,,,,,,,,,,,,,,,,,,,,,,,,,,,,,,,,,,,,,,,,,,,,,,,,,,,,,,,,,,,,,,,,,,,,,,,,,,,,,,,57.14824777400008,70.06104866700025,,,,,110621,0,3,0,1,0,1,2,0,26,2021_Nov_06_1127,listening_fmri,3.2.4,59.73082375952112,
0,parcelated_audio/22/22_4.ogg,,,,,,,,,0,0,0,0,0,0,0,0,0,0,0,0,,,,,,,,,,,,,0,0,0,0,0,3,3,3,,,,,,,,,,,,,,,,,,,,,,,,,,,,,,,,,,,,,,,,,,,,,,,,,,,,,,,,,,,,,,,,,,,,,,,,,,,,,,,,,,,,,,,,,,,,,,,,,,,,,70.06148042200039,82.47606565899969,,,,,110621,0,3,0,1,0,1,2,0,26,2021_Nov_06_1127,listening_fmri,3.2.4,59.73082375952112,
0,parcelated_audio/22/22_5.ogg,,,,,,,,,0,0,0,0,0,0,0,0,0,0,0,0,,,,,,,,,,,,,0,0,0,0,0,4,4,4,,,,,,,,,,,,,,,,,,,,,,,,,,,,,,,,,,,,,,,,,,,,,,,,,,,,,,,,,,,,,,,,,,,,,,,,,,,,,,,,,,,,,,,,,,,,,,,,,,,,,82.4768854240001,88.40073346200006,,,,,110621,0,3,0,1,0,1,2,0,26,2021_Nov_06_1127,listening_fmri,3.2.4,59.73082375952112,
0,parcelated_audio/22/22_6.ogg,,,,,,,,,0,0,0,0,0,0,0,0,0,0,0,0,,,,,,,,,,,,,0,0,0,0,0,5,5,5,,,,,,,,,,,,,,,,,,,,,,,,,,,,,,,,,,,,,,,,,,,,,,,,,,,,,,,,,,,,,,,,,,,,,,,,,,,,,,,,,,,,,,,,,,,,,,,,,,,,,88.40115298700039,97.59495045200038,,,,,110621,0,3,0,1,0,1,2,0,26,2021_Nov_06_1127,listening_fmri,3.2.4,59.73082375952112,
0,parcelated_audio/22/22_7.ogg,,,,,,,,,0,0,0,0,0,0,0,0,0,0,0,0,,,,,,,,,,,,,0,0,0,0,0,6,6,6,,,,,,,,,,,,,,,,,,,,,,,,,,,,,,,,,,,,,,,,,,,,,,,,,,,,,,,,,,,,,,,,,,,,,,,,,,,,,,,,,,,,,,,,,,,,,,,,,,,,,97.59525408900026,102.5828888699998,,,,,110621,0,3,0,1,0,1,2,0,26,2021_Nov_06_1127,listening_fmri,3.2.4,59.73082375952112,
0,parcelated_audio/22/22_8.ogg,,,,,,,,,0,0,0,0,0,0,0,0,0,0,0,0,,,,,,,,,,,,,0,0,0,0,0,7,7,7,,,,,,,,,,,,,,,,,,,,,,,,,,,,,,,,,,,,,,,,,,,,,,,,,,,,,,,,,,,,,,,,,,,,,,,,,,,,,,,,,,,,,,,,,,,,,,,,,,,,,102.58324150299995,106.11363612100013,,,,,110621,0,3,0,1,0,1,2,0,26,2021_Nov_06_1127,listening_fmri,3.2.4,59.73082375952112,
0,parcelated_audio/22/22_9.ogg,,,,,,,,,0,0,0,0,0,0,0,0,0,0,0,0,,,,,,,,,,,,,0,0,0,0,0,8,8,8,,,,,,,,,,,,,,,,,,,,,,,,,,,,,,,,,,,,,,,,,,,,,,,,,,,,,,,,,,,,,,,,,,,,,,,,,,,,,,,,,,,,,,,,,,,,,,,,,,,,,106.1139971499997,110.01440972100045,,,,,110621,0,3,0,1,0,1,2,0,26,2021_Nov_06_1127,listening_fmri,3.2.4,59.73082375952112,
0,parcelated_audio/22/22_10.ogg,,,,,,,,,0,0,0,0,0,0,0,0,0,0,0,0,,,,,,,,,,,,,0,0,0,0,0,9,9,9,,,,,,,,,,,,,,,,,,,,,,,,,,,,,,,,,,,,,,,,,,,,,,,,,,,,,,,,,,,,,,,,,,,,,,,,,,,,,,,,,,,,,,,,,,,,,,,,,,,,,110.01476405999983,114.78164676000051,,,,,110621,0,3,0,1,0,1,2,0,26,2021_Nov_06_1127,listening_fmri,3.2.4,59.73082375952112,
0,parcelated_audio/22/22_11.ogg,,,,,,,,,0,0,0,0,0,0,0,0,0,0,0,0,,,,,,,,,,,,,0,0,0,0,0,10,10,10,,,,,,,,,,,,,,,,,,,,,,,,,,,,,,,,,,,,,,,,,,,,,,,,,,,,,,,,,,,,,,,,,,,,,,,,,,,,,,,,,,,,,,,,,,,,,,,,,,,,,114.78201078199982,122.06144202700034,,,,,110621,0,3,0,1,0,1,2,0,26,2021_Nov_06_1127,listening_fmri,3.2.4,59.73082375952112,
0,parcelated_audio/22/22_12.ogg,,,,,,,,,0,0,0,0,0,0,0,0,0,0,0,0,,,,,,,,,,,,,0,0,0,0,0,11,11,11,,,,,,,,,,,,,,,,,,,,,,,,,,,,,,,,,,,,,,,,,,,,,,,,,,,,,,,,,,,,,,,,,,,,,,,,,,,,,,,,,,,,,,,,,,,,,,,,,,,,,122.06179436900038,129.78214569400006,,,,,110621,0,3,0,1,0,1,2,0,26,2021_Nov_06_1127,listening_fmri,3.2.4,59.73082375952112,
0,parcelated_audio/22/22_13.ogg,,,,,,,,,0,0,0,0,0,0,0,0,0,0,0,0,,,,,,,,,,,,,0,0,0,0,0,12,12,12,,,,,,,,,,,,,,,,,,,,,,,,,,,,,,,,,,,,,,,,,,,,,,,,,,,,,,,,,,,,,,,,,,,,,,,,,,,,,,,,,,,,,,,,,,,,,,,,,,,,,129.78250034699977,137.06078395399982,,,,,110621,0,3,0,1,0,1,2,0,26,2021_Nov_06_1127,listening_fmri,3.2.4,59.73082375952112,
0,parcelated_audio/22/22_14.ogg,,,,,,,,,0,0,0,0,0,0,0,0,0,0,0,0,,,,,,,,,,,,,0,0,0,0,0,13,13,13,,,,,,,,,,,,,,,,,,,,,,,,,,,,,,,,,,,,,,,,,,,,,,,,,,,,,,,,,,,,,,,,,,,,,,,,,,,,,,,,,,,,,,,,,,,,,,,,,,,,,137.06179289200008,142.69422495300023,,,,,110621,0,3,0,1,0,1,2,0,26,2021_Nov_06_1127,listening_fmri,3.2.4,59.73082375952112,
0,parcelated_audio/22/22_15.ogg,,,,,,,,,0,0,0,0,0,0,0,0,0,0,0,0,,,,,,,,,,,,,0,0,0,0,0,14,14,14,,,,,,,,,,,,,,,,,,,,,,,,,,,,,,,,,,,,,,,,,,,,,,,,,,,,,,,,,,,,,,,,,,,,,,,,,,,,,,,,,,,,,,,,,,,,,,,,,,,,,142.69457942900044,150.46382865299984,,,,,110621,0,3,0,1,0,1,2,0,26,2021_Nov_06_1127,listening_fmri,3.2.4,59.73082375952112,
0,parcelated_audio/22/22_16.ogg,,,,,,,,,0,0,0,0,0,0,0,0,0,0,0,0,,,,,,,,,,,,,0,0,0,0,0,15,15,15,,,,,,,,,,,,,,,,,,,,,,,,,,,,,,,,,,,,,,,,,,,,,,,,,,,,,,,,,,,,,,,,,,,,,,,,,,,,,,,,,,,,,,,,,,,,,,,,,,,,,150.464197583,159.1337193620002,,,,,110621,0,3,0,1,0,1,2,0,26,2021_Nov_06_1127,listening_fmri,3.2.4,59.73082375952112,
0,parcelated_audio/22/22_17.ogg,,,,,,,,,0,0,0,0,0,0,0,0,0,0,0,0,,,,,,,,,,,,,0,0,0,0,0,16,16,16,,,,,,,,,,,,,,,,,,,,,,,,,,,,,,,,,,,,,,,,,,,,,,,,,,,,,,,,,,,,,,,,,,,,,,,,,,,,,,,,,,,,,,,,,,,,,,,,,,,,,159.13406563199987,162.28944329299975,,,,,110621,0,3,0,1,0,1,2,0,26,2021_Nov_06_1127,listening_fmri,3.2.4,59.73082375952112,
0,parcelated_audio/22/22_18.ogg,,,,,,,,,0,0,0,0,0,0,0,0,0,0,0,0,,,,,,,,,,,,,0,0,0,0,0,17,17,17,,,,,,,,,,,,,,,,,,,,,,,,,,,,,,,,,,,,,,,,,,,,,,,,,,,,,,,,,,,,,,,,,,,,,,,,,,,,,,,,,,,,,,,,,,,,,,,,,,,,,162.28980024700013,169.01563693499975,,,,,110621,0,3,0,1,0,1,2,0,26,2021_Nov_06_1127,listening_fmri,3.2.4,59.73082375952112,
0,parcelated_audio/22/22_19.ogg,,,,,,,,,0,0,0,0,0,0,0,0,0,0,0,0,,,,,,,,,,,,,0,0,0,0,0,18,18,18,,,,,,,,,,,,,,,,,,,,,,,,,,,,,,,,,,,,,,,,,,,,,,,,,,,,,,,,,,,,,,,,,,,,,,,,,,,,,,,,,,,,,,,,,,,,,,,,,,,,,169.01599490199987,173.9775442299997,,,,,110621,0,3,0,1,0,1,2,0,26,2021_Nov_06_1127,listening_fmri,3.2.4,59.73082375952112,
0,parcelated_audio/22/22_20.ogg,,,,,,,,,0,0,0,0,0,0,0,0,0,0,0,0,,,,,,,,,,,,,0,0,0,0,0,19,19,19,,,,,,,,,,,,,,,,,,,,,,,,,,,,,,,,,,,,,,,,,,,,,,,,,,,,,,,,,,,,,,,,,,,,,,,,,,,,,,,,,,,,,,,,,,,,,,,,,,,,,173.97789808400012,188.19737000500027,,,,,110621,0,3,0,1,0,1,2,0,26,2021_Nov_06_1127,listening_fmri,3.2.4,59.73082375952112,
0,parcelated_audio/22/22_21.ogg,,,,,,,,,0,0,0,0,0,0,0,0,0,0,0,0,,,,,,,,,,,,,0,0,0,0,0,20,20,20,,,,,,,,,,,,,,,,,,,,,,,,,,,,,,,,,,,,,,,,,,,,,,,,,,,,,,,,,,,,,,,,,,,,,,,,,,,,,,,,,,,,,,,,,,,,,,,,,,,,,188.19769787299992,190.20535709199976,,,,,110621,0,3,0,1,0,1,2,0,26,2021_Nov_06_1127,listening_fmri,3.2.4,59.73082375952112,
0,parcelated_audio/22/22_22.ogg,,,,,,,,,0,0,0,0,0,0,0,0,0,0,0,0,,,,,,,,,,,,,0,0,0,0,0,21,21,21,,,,,,,,,,,,,,,,,,,,,,,,,,,,,,,,,,,,,,,,,,,,,,,,,,,,,,,,,,,,,,,,,,,,,,,,,,,,,,,,,,,,,,,,,,,,,,,,,,,,,190.20573145700018,193.35368384200046,,,,,110621,0,3,0,1,0,1,2,0,26,2021_Nov_06_1127,listening_fmri,3.2.4,59.73082375952112,
0,parcelated_audio/22/22_23.ogg,,,,,,,,,0,0,0,0,0,0,0,0,0,0,0,0,,,,,,,,,,,,,0,0,0,0,0,22,22,22,,,,,,,,,,,,,,,,,,,,,,,,,,,,,,,,,,,,,,,,,,,,,,,,,,,,,,,,,,,,,,,,,,,,,,,,,,,,,,,,,,,,,,,,,,,,,,,,,,,,,193.3540368849999,199.8894271270001,,,,,110621,0,3,0,1,0,1,2,0,26,2021_Nov_06_1127,listening_fmri,3.2.4,59.73082375952112,
0,parcelated_audio/22/22_24.ogg,,,,,,,,,0,0,0,0,0,0,0,0,0,0,0,0,,,,,,,,,,,,,0,0,0,0,0,23,23,23,,,,,,,,,,,,,,,,,,,,,,,,,,,,,,,,,,,,,,,,,,,,,,,,,,,,,,,,,,,,,,,,,,,,,,,,,,,,,,,,,,,,,,,,,,,,,,,,,,,,,199.88977798700034,205.6226932210002,,,,,110621,0,3,0,1,0,1,2,0,26,2021_Nov_06_1127,listening_fmri,3.2.4,59.73082375952112,
