count,audio,trials_14.thisRepN,trials_14.thisTrialN,trials_14.thisN,trials_14.thisIndex,trials_3.thisRepN,trials_3.thisTrialN,trials_3.thisN,trials_3.thisIndex,trials_4.thisRepN,trials_4.thisTrialN,trials_4.thisN,trials_4.thisIndex,trials_6.thisRepN,trials_6.thisTrialN,trials_6.thisN,trials_6.thisIndex,trials_9.thisRepN,trials_9.thisTrialN,trials_9.thisN,trials_9.thisIndex,trials_10.thisRepN,trials_10.thisTrialN,trials_10.thisN,trials_10.thisIndex,trials_12.thisRepN,trials_12.thisTrialN,trials_12.thisN,trials_12.thisIndex,trials_25.thisRepN,trials_25.thisTrialN,trials_25.thisN,trials_25.thisIndex,trials_15.thisRepN,trials_15.thisTrialN,trials_15.thisN,trials_15.thisIndex,trials_26.thisRepN,trials_26.thisTrialN,trials_26.thisN,trials_26.thisIndex,story_list_block2,action_list_block2,textTrigger.started,textTrigger.stopped,getTrigger.keys,getTrigger.rt,getTrigger.started,getTrigger.stopped,triggerTime,text_76.started,text_76.stopped,text_77.started,text_77.stopped,startWait,endWait,image_23.started,image_23.stopped,text_55.started,text_55.stopped,text_56.started,text_56.stopped,key_resp_2.keys,key_resp_2.rt,key_resp_2.started,key_resp_2.stopped,text_82.started,text_82.stopped,text_64.started,text_64.stopped,key_resp_20.keys,key_resp_20.rt,key_resp_20.started,key_resp_20.stopped,storyImage_StartTime,storyImage_EndTime,clip_StartTime,clip_EndTime,text_67.started,text_67.stopped,text_68.started,text_68.stopped,participant,sA,sB,lA,lB,block_struct,play_stories,block,behavioral,random_seed,date,expName,psychopyVersion,frameRate,
0,,,,,,,,,,0,0,0,0,0,0,0,0,,,,,,,,,,,,,,,,,,,,,,,,,[14 32 23 34 41 43 12 21],[3 4 3 2 4 2 1 1],14.338867014999778,None,equal,160.3924250099999,14.338867014999778,None,160.4152464939998,14.338867014999778,None,14.338867014999778,None,0.00045061000037094345,5.999108432999492,174.75349837399972,None,,,,,,,,,,,,,,,,,,,,,,,,,013021,0,1,2,3,1,1,2,0,12,2021_Jan_30_1057,listening_fmri,3.2.4,60.181305329620734,
1,parcelated_audio/32/32_1.ogg,,,,,,,,,0,0,0,0,0,1,1,1,0,0,0,0,,,,,,,,,0,0,0,0,0,0,0,0,,,,,,,,,,,,,,,,,,,,,,180.76144122499954,None,180.76144122499954,None,7,1.5619318070002919,180.76144122499954,None,180.76144122499954,None,182.3446052019999,None,7,1.2506493199998658,182.3446052019999,None,8.882493021999835,11.890450484000212,11.895742095999594,23.273237792000145,,,,,013021,0,1,2,3,1,1,2,0,12,2021_Jan_30_1057,listening_fmri,3.2.4,60.181305329620734,
1,parcelated_audio/32/32_2.ogg,,,,,,,,,0,0,0,0,0,1,1,1,0,0,0,0,,,,,,,,,0,0,0,0,0,1,1,1,,,,,,,,,,,,,,,,,,,,,,,,,,,,,,,,,,,,,,,,23.273585197000102,31.611510425999768,,,,,013021,0,1,2,3,1,1,2,0,12,2021_Jan_30_1057,listening_fmri,3.2.4,60.181305329620734,
1,parcelated_audio/32/32_3.ogg,,,,,,,,,0,0,0,0,0,1,1,1,0,0,0,0,,,,,,,,,0,0,0,0,0,2,2,2,,,,,,,,,,,,,,,,,,,,,,,,,,,,,,,,,,,,,,,,31.61182867000025,37.18864657999984,,,,,013021,0,1,2,3,1,1,2,0,12,2021_Jan_30_1057,listening_fmri,3.2.4,60.181305329620734,
1,parcelated_audio/32/32_4.ogg,,,,,,,,,0,0,0,0,0,1,1,1,0,0,0,0,,,,,,,,,0,0,0,0,0,3,3,3,,,,,,,,,,,,,,,,,,,,,,,,,,,,,,,,,,,,,,,,37.18897632199969,43.88102345399966,,,,,013021,0,1,2,3,1,1,2,0,12,2021_Jan_30_1057,listening_fmri,3.2.4,60.181305329620734,
1,parcelated_audio/32/32_5.ogg,,,,,,,,,0,0,0,0,0,1,1,1,0,0,0,0,,,,,,,,,0,0,0,0,0,4,4,4,,,,,,,,,,,,,,,,,,,,,,,,,,,,,,,,,,,,,,,,43.88137119299972,55.56307473800007,,,,,013021,0,1,2,3,1,1,2,0,12,2021_Jan_30_1057,listening_fmri,3.2.4,60.181305329620734,
1,parcelated_audio/32/32_6.ogg,,,,,,,,,0,0,0,0,0,1,1,1,0,0,0,0,,,,,,,,,0,0,0,0,0,5,5,5,,,,,,,,,,,,,,,,,,,,,,,,,,,,,,,,,,,,,,,,55.56342735399994,64.04396353500033,,,,,013021,0,1,2,3,1,1,2,0,12,2021_Jan_30_1057,listening_fmri,3.2.4,60.181305329620734,
1,parcelated_audio/32/32_7.ogg,,,,,,,,,0,0,0,0,0,1,1,1,0,0,0,0,,,,,,,,,0,0,0,0,0,6,6,6,,,,,,,,,,,,,,,,,,,,,,,,,,,,,,,,,,,,,,,,64.04452632599987,67.43893664699954,,,,,013021,0,1,2,3,1,1,2,0,12,2021_Jan_30_1057,listening_fmri,3.2.4,60.181305329620734,
1,parcelated_audio/32/32_8.ogg,,,,,,,,,0,0,0,0,0,1,1,1,0,0,0,0,,,,,,,,,0,0,0,0,0,7,7,7,,,,,,,,,,,,,,,,,,,,,,,,,,,,,,,,,,,,,,,,67.4393514759995,71.91309937999995,,,,,013021,0,1,2,3,1,1,2,0,12,2021_Jan_30_1057,listening_fmri,3.2.4,60.181305329620734,
1,parcelated_audio/32/32_9.ogg,,,,,,,,,0,0,0,0,0,1,1,1,0,0,0,0,,,,,,,,,0,0,0,0,0,8,8,8,,,,,,,,,,,,,,,,,,,,,,,,,,,,,,,,,,,,,,,,71.91344326299986,80.59498950699981,,,,,013021,0,1,2,3,1,1,2,0,12,2021_Jan_30_1057,listening_fmri,3.2.4,60.181305329620734,
1,parcelated_audio/32/32_10.ogg,,,,,,,,,0,0,0,0,0,1,1,1,0,0,0,0,,,,,,,,,0,0,0,0,0,9,9,9,,,,,,,,,,,,,,,,,,,,,,,,,,,,,,,,,,,,,,,,80.59533900299994,85.36888063700007,,,,,013021,0,1,2,3,1,1,2,0,12,2021_Jan_30_1057,listening_fmri,3.2.4,60.181305329620734,
1,parcelated_audio/32/32_11.ogg,,,,,,,,,0,0,0,0,0,1,1,1,0,0,0,0,,,,,,,,,0,0,0,0,0,10,10,10,,,,,,,,,,,,,,,,,,,,,,,,,,,,,,,,,,,,,,,,85.36923341900001,91.45307198299997,,,,,013021,0,1,2,3,1,1,2,0,12,2021_Jan_30_1057,listening_fmri,3.2.4,60.181305329620734,
1,parcelated_audio/32/32_12.ogg,,,,,,,,,0,0,0,0,0,1,1,1,0,0,0,0,,,,,,,,,0,0,0,0,0,11,11,11,,,,,,,,,,,,,,,,,,,,,,,,,,,,,,,,,,,,,,,,91.4534968099997,100.89914575900002,,,,,013021,0,1,2,3,1,1,2,0,12,2021_Jan_30_1057,listening_fmri,3.2.4,60.181305329620734,
1,parcelated_audio/32/32_13.ogg,,,,,,,,,0,0,0,0,0,1,1,1,0,0,0,0,,,,,,,,,0,0,0,0,0,12,12,12,,,,,,,,,,,,,,,,,,,,,,,,,,,,,,,,,,,,,,,,100.89959231299963,110.51563698999962,,,,,013021,0,1,2,3,1,1,2,0,12,2021_Jan_30_1057,listening_fmri,3.2.4,60.181305329620734,
1,parcelated_audio/32/32_14.ogg,,,,,,,,,0,0,0,0,0,1,1,1,0,0,0,0,,,,,,,,,0,0,0,0,0,13,13,13,,,,,,,,,,,,,,,,,,,,,,,,,,,,,,,,,,,,,,,,110.51616499800002,118.5935788199995,,,,,013021,0,1,2,3,1,1,2,0,12,2021_Jan_30_1057,listening_fmri,3.2.4,60.181305329620734,
1,parcelated_audio/32/32_15.ogg,,,,,,,,,0,0,0,0,0,1,1,1,0,0,0,0,,,,,,,,,0,0,0,0,0,14,14,14,,,,,,,,,,,,,,,,,,,,,,,,,,,,,,,,,,,,,,,,118.59416316199986,125.4754148029997,,,,,013021,0,1,2,3,1,1,2,0,12,2021_Jan_30_1057,listening_fmri,3.2.4,60.181305329620734,
1,parcelated_audio/32/32_16.ogg,,,,,,,,,0,0,0,0,0,1,1,1,0,0,0,0,,,,,,,,,0,0,0,0,0,15,15,15,,,,,,,,,,,,,,,,,,,,,,,,,,,,,,,,,,,,,,,,125.4756730879999,133.1077261499995,,,,,013021,0,1,2,3,1,1,2,0,12,2021_Jan_30_1057,listening_fmri,3.2.4,60.181305329620734,
1,parcelated_audio/32/32_17.ogg,,,,,,,,,0,0,0,0,0,1,1,1,0,0,0,0,,,,,,,,,0,0,0,0,0,16,16,16,,,,,,,,,,,,,,,,,,,,,,,,,,,,,,,,,,,,,,,,133.10807159399974,141.41302814000028,,,,,013021,0,1,2,3,1,1,2,0,12,2021_Jan_30_1057,listening_fmri,3.2.4,60.181305329620734,
1,parcelated_audio/32/32_18.ogg,,,,,,,,,0,0,0,0,0,1,1,1,0,0,0,0,,,,,,,,,0,0,0,0,0,17,17,17,,,,,,,,,,,,,,,,,,,,,,,,,,,,,,,,,,,,,,,,141.41338007000013,145.82498943999963,,,,,013021,0,1,2,3,1,1,2,0,12,2021_Jan_30_1057,listening_fmri,3.2.4,60.181305329620734,
1,parcelated_audio/32/32_19.ogg,,,,,,,,,0,0,0,0,0,1,1,1,0,0,0,0,,,,,,,,,0,0,0,0,0,18,18,18,,,,,,,,,,,,,,,,,,,,,,,,,,,,,,,,,,,,,,,,145.827189525,153.87858836899977,,,,,013021,0,1,2,3,1,1,2,0,12,2021_Jan_30_1057,listening_fmri,3.2.4,60.181305329620734,
1,parcelated_audio/32/32_20.ogg,,,,,,,,,0,0,0,0,0,1,1,1,0,0,0,0,,,,,,,,,0,0,0,0,0,19,19,19,,,,,,,,,,,,,,,,,,,,,,,,,,,,,,,,,,,,,,,,153.8791299280001,164.77691264500027,,,,,013021,0,1,2,3,1,1,2,0,12,2021_Jan_30_1057,listening_fmri,3.2.4,60.181305329620734,
1,parcelated_audio/32/32_21.ogg,,,,,,,,,0,0,0,0,0,1,1,1,0,0,0,0,,,,,,,,,0,0,0,0,0,20,20,20,,,,,,,,,,,,,,,,,,,,,,,,,,,,,,,,,,,,,,,,164.7774207880002,173.64336767399982,,,,,013021,0,1,2,3,1,1,2,0,12,2021_Jan_30_1057,listening_fmri,3.2.4,60.181305329620734,
1,parcelated_audio/32/32_22.ogg,,,,,,,,,0,0,0,0,0,1,1,1,0,0,0,0,,,,,,,,,0,0,0,0,0,21,21,21,,,,,,,,,,,,,,,,,,,,,,,,,,,,,,,,,,,,,,,,173.6437115130002,187.68501593200017,,,,,013021,0,1,2,3,1,1,2,0,12,2021_Jan_30_1057,listening_fmri,3.2.4,60.181305329620734,
1,parcelated_audio/32/32_23.ogg,,,,,,,,,0,0,0,0,0,1,1,1,0,0,0,0,,,,,,,,,0,0,0,0,0,22,22,22,,,,,,,,,,,,,,,,,,,,,,,,,,,,,,,,,,,,,,,,187.68551672299964,196.73718655599987,,,,,013021,0,1,2,3,1,1,2,0,12,2021_Jan_30_1057,listening_fmri,3.2.4,60.181305329620734,
1,parcelated_audio/32/32_24.ogg,,,,,,,,,0,0,0,0,0,1,1,1,0,0,0,0,,,,,,,,,0,0,0,0,0,23,23,23,,,,,,,,,,,,,,,,,,,,,,,,,,,,,,,,,,,,,,,,196.7375327310001,208.04111300299974,,,,,013021,0,1,2,3,1,1,2,0,12,2021_Jan_30_1057,listening_fmri,3.2.4,60.181305329620734,
1,parcelated_audio/32/32_25.ogg,,,,,,,,,0,0,0,0,0,1,1,1,0,0,0,0,,,,,,,,,0,0,0,0,0,24,24,24,,,,,,,,,,,,,,,,,,,,,,,,,,,,,,,,,,,,,,,,208.04145848000007,214.10483216400007,,,,,013021,0,1,2,3,1,1,2,0,12,2021_Jan_30_1057,listening_fmri,3.2.4,60.181305329620734,
1,parcelated_audio/32/32_26.ogg,,,,,,,,,0,0,0,0,0,1,1,1,0,0,0,0,,,,,,,,,0,0,0,0,0,25,25,25,,,,,,,,,,,,,,,,,,,,,,,,,,,,,,,,,,,,,,,,214.10520062500018,227.45374868700037,,,,,013021,0,1,2,3,1,1,2,0,12,2021_Jan_30_1057,listening_fmri,3.2.4,60.181305329620734,
1,parcelated_audio/32/32_27.ogg,,,,,,,,,0,0,0,0,0,1,1,1,0,0,0,0,,,,,,,,,0,0,0,0,0,26,26,26,,,,,,,,,,,,,,,,,,,,,,,,,,,,,,,,,,,,,,,,227.45427245700012,234.42981810400033,,,,,013021,0,1,2,3,1,1,2,0,12,2021_Jan_30_1057,listening_fmri,3.2.4,60.181305329620734,
1,parcelated_audio/32/32_28.ogg,,,,,,,,,0,0,0,0,0,1,1,1,0,0,0,0,,,,,,,,,0,0,0,0,0,27,27,27,,,,,,,,,,,,,,,,,,,,,,,,,,,,,,,,,,,,,,,,234.43150164599956,241.1411601259997,,,,,013021,0,1,2,3,1,1,2,0,12,2021_Jan_30_1057,listening_fmri,3.2.4,60.181305329620734,
1,parcelated_audio/32/32_29.ogg,,,,,,,,,0,0,0,0,0,1,1,1,0,0,0,0,,,,,,,,,0,0,0,0,0,28,28,28,,,,,,,,,,,,,,,,,,,,,,,,,,,,,,,,,,,,,,,,241.1416676990002,243.80545161400005,,,,,013021,0,1,2,3,1,1,2,0,12,2021_Jan_30_1057,listening_fmri,3.2.4,60.181305329620734,
1,parcelated_audio/32/32_30.ogg,,,,,,,,,0,0,0,0,0,1,1,1,0,0,0,0,,,,,,,,,0,0,0,0,0,29,29,29,,,,,,,,,,,,,,,,,,,,,,,,,,,,,,,,,,,,,,,,243.8057942839996,250.83313662199998,,,,,013021,0,1,2,3,1,1,2,0,12,2021_Jan_30_1057,listening_fmri,3.2.4,60.181305329620734,
1,parcelated_audio/32/32_31.ogg,,,,,,,,,0,0,0,0,0,1,1,1,0,0,0,0,,,,,,,,,0,0,0,0,0,30,30,30,,,,,,,,,,,,,,,,,,,,,,,,,,,,,,,,,,,,,,,,250.83338476300014,257.17037733899997,,,,,013021,0,1,2,3,1,1,2,0,12,2021_Jan_30_1057,listening_fmri,3.2.4,60.181305329620734,
1,parcelated_audio/32/32_32.ogg,,,,,,,,,0,0,0,0,0,1,1,1,0,0,0,0,,,,,,,,,0,0,0,0,0,31,31,31,,,,,,,,,,,,,,,,,,,,,,,,,,,,,,,,,,,,,,,,257.1707218299998,266.8786298220002,,,,,013021,0,1,2,3,1,1,2,0,12,2021_Jan_30_1057,listening_fmri,3.2.4,60.181305329620734,
1,parcelated_audio/32/32_33.ogg,,,,,,,,,0,0,0,0,0,1,1,1,0,0,0,0,,,,,,,,,0,0,0,0,0,32,32,32,,,,,,,,,,,,,,,,,,,,,,,,,,,,,,,,,,,,,,,,266.8789763369996,272.6332155479995,,,,,013021,0,1,2,3,1,1,2,0,12,2021_Jan_30_1057,listening_fmri,3.2.4,60.181305329620734,
1,,,,,,,,,,0,0,0,0,0,1,1,1,0,0,0,0,,,,,,,,,0,0,0,0,,,,,,,,,,,,,,,,,,,,,,,,,,,,,,,,,,,,,,,,,,,,,,,,,,013021,0,1,2,3,1,1,2,0,12,2021_Jan_30_1057,listening_fmri,3.2.4,60.181305329620734,
,,,,,,,,,,,,,,,,,,,,,,,,,,,,,,,,,,,,,,,,,,,,,,,,,,,,,,,272.6337020740002,278.6250647659999,447.3784790919999,None,,,,,,,,,,,,,,,,,,,,,453.3826240620001,None,453.3826240620001,None,,,,,,,,,,,,,,,
﻿count,audio,trials_14.thisRepN,trials_14.thisTrialN,trials_14.thisN,trials_14.thisIndex,trials_3.thisRepN,trials_3.thisTrialN,trials_3.thisN,trials_3.thisIndex,trials_4.thisRepN,trials_4.thisTrialN,trials_4.thisN,trials_4.thisIndex,trials_6.thisRepN,trials_6.thisTrialN,trials_6.thisN,trials_6.thisIndex,trials_9.thisRepN,trials_9.thisTrialN,trials_9.thisN,trials_9.thisIndex,trials_10.thisRepN,trials_10.thisTrialN,trials_10.thisN,trials_10.thisIndex,trials_12.thisRepN,trials_12.thisTrialN,trials_12.thisN,trials_12.thisIndex,trials_25.thisRepN,trials_25.thisTrialN,trials_25.thisN,trials_25.thisIndex,trials_15.thisRepN,trials_15.thisTrialN,trials_15.thisN,trials_15.thisIndex,trials_26.thisRepN,trials_26.thisTrialN,trials_26.thisN,trials_26.thisIndex,trials_11.thisRepN,trials_11.thisTrialN,trials_11.thisN,trials_11.thisIndex,story_list_block2,action_list_block2,textTrigger.started,textTrigger.stopped,getTrigger.keys,getTrigger.rt,getTrigger.started,getTrigger.stopped,triggerTime,text_76.started,text_76.stopped,text_77.started,text_77.stopped,startWait,endWait,image_23.started,image_23.stopped,text_55.started,text_55.stopped,text_56.started,text_56.stopped,key_resp_2.keys,key_resp_2.rt,key_resp_2.started,key_resp_2.stopped,text_82.started,text_82.stopped,text_64.started,text_64.stopped,key_resp_20.keys,key_resp_20.rt,key_resp_20.started,key_resp_20.stopped,storyImage_StartTime,storyImage_EndTime,clip_StartTime,clip_EndTime,text_67.started,text_67.stopped,text_68.started,text_68.stopped,text_57.started,text_57.stopped,key_resp_17.keys,key_resp_17.rt,key_resp_17.started,key_resp_17.stopped,text_83.started,text_83.stopped,text_60.started,text_60.stopped,image_2.started,image_2.stopped,text_58.started,text_58.stopped,key_resp_23.keys,key_resp_23.rt,key_resp_23.started,key_resp_23.stopped,text_62.started,text_62.stopped,key_resp_18.keys,key_resp_18.rt,key_resp_18.started,key_resp_18.stopped,text_84.started,text_84.stopped,question1_2.started,question1_2.stopped,question2_2.started,question2_2.stopped,question3_2.started,question3_2.stopped,question4_2.started,question4_2.stopped,question5_2.started,question5_2.stopped,question6_2.started,question6_2.stopped,image_15.started,image_15.stopped,key_resp.keys,key_resp.started,key_resp.stopped,text_59.started,text_59.stopped,key_resp_19.keys,key_resp_19.rt,key_resp_19.started,key_resp_19.stopped,text_85.started,text_85.stopped,text_61.started,text_61.stopped,image_17.started,image_17.stopped,text_63.started,text_63.stopped,key_resp_24.keys,key_resp_24.rt,key_resp_24.started,key_resp_24.stopped,participant,sA,sB,lA,lB,block_struct,play_stories,block,behavioral,random_seed,date,expName,psychopyVersion,frameRate,
0,,,,,,,,,,0,0,0,0,0,0,0,0,,,,,,,,,,,,,,,,,,,,,,,,,,,,,[14 32 23 34 41 43 12 21],[3 4 3 2 4 2 1 1],14.338867014999778,None,equal,160.3924250099999,14.338867014999778,None,160.4152464939998,14.338867014999778,None,14.338867014999778,None,0.00045061000037094345,5.999108432999492,174.75349837399972,None,,,,,,,,,,,,,,,,,,,,,,,,,,,,,,,,,,,,,,,,,,,,,,,,,,,,,,,,,,,,,,,,,,,,,,,,,,,,,,,,,,,,,,013021,0,1,2,3,1,1,2,0,12,2021_Jan_30_1057,listening_fmri,3.2.4,60.181305329620734,
1,parcelated_audio/32/32_1.ogg,,,,,,,,,0,0,0,0,0,1,1,1,0,0,0,0,,,,,,,,,0,0,0,0,0,0,0,0,,,,,,,,,,,,,,,,,,,,,,,,,,180.76144122499954,None,180.76144122499954,None,7,1.5619318070002919,180.76144122499954,None,180.76144122499954,None,182.3446052019999,None,7,1.2506493199998658,182.3446052019999,None,8.882493021999835,11.890450484000212,11.895742095999594,23.273237792000145,,,,,,,,,,,,,,,,,,,,,,,,,,,,,,,,,,,,,,,,,,,,,,,,,,,,,,,,,,,,,,,,,,013021,0,1,2,3,1,1,2,0,12,2021_Jan_30_1057,listening_fmri,3.2.4,60.181305329620734,
1,parcelated_audio/32/32_2.ogg,,,,,,,,,0,0,0,0,0,1,1,1,0,0,0,0,,,,,,,,,0,0,0,0,0,1,1,1,,,,,,,,,,,,,,,,,,,,,,,,,,,,,,,,,,,,,,,,,,,,23.273585197000102,31.611510425999768,,,,,,,,,,,,,,,,,,,,,,,,,,,,,,,,,,,,,,,,,,,,,,,,,,,,,,,,,,,,,,,,,,013021,0,1,2,3,1,1,2,0,12,2021_Jan_30_1057,listening_fmri,3.2.4,60.181305329620734,
1,parcelated_audio/32/32_3.ogg,,,,,,,,,0,0,0,0,0,1,1,1,0,0,0,0,,,,,,,,,0,0,0,0,0,2,2,2,,,,,,,,,,,,,,,,,,,,,,,,,,,,,,,,,,,,,,,,,,,,31.61182867000025,37.18864657999984,,,,,,,,,,,,,,,,,,,,,,,,,,,,,,,,,,,,,,,,,,,,,,,,,,,,,,,,,,,,,,,,,,013021,0,1,2,3,1,1,2,0,12,2021_Jan_30_1057,listening_fmri,3.2.4,60.181305329620734,
1,parcelated_audio/32/32_4.ogg,,,,,,,,,0,0,0,0,0,1,1,1,0,0,0,0,,,,,,,,,0,0,0,0,0,3,3,3,,,,,,,,,,,,,,,,,,,,,,,,,,,,,,,,,,,,,,,,,,,,37.18897632199969,43.88102345399966,,,,,,,,,,,,,,,,,,,,,,,,,,,,,,,,,,,,,,,,,,,,,,,,,,,,,,,,,,,,,,,,,,013021,0,1,2,3,1,1,2,0,12,2021_Jan_30_1057,listening_fmri,3.2.4,60.181305329620734,
1,parcelated_audio/32/32_5.ogg,,,,,,,,,0,0,0,0,0,1,1,1,0,0,0,0,,,,,,,,,0,0,0,0,0,4,4,4,,,,,,,,,,,,,,,,,,,,,,,,,,,,,,,,,,,,,,,,,,,,43.88137119299972,55.56307473800007,,,,,,,,,,,,,,,,,,,,,,,,,,,,,,,,,,,,,,,,,,,,,,,,,,,,,,,,,,,,,,,,,,013021,0,1,2,3,1,1,2,0,12,2021_Jan_30_1057,listening_fmri,3.2.4,60.181305329620734,
1,parcelated_audio/32/32_6.ogg,,,,,,,,,0,0,0,0,0,1,1,1,0,0,0,0,,,,,,,,,0,0,0,0,0,5,5,5,,,,,,,,,,,,,,,,,,,,,,,,,,,,,,,,,,,,,,,,,,,,55.56342735399994,64.04396353500033,,,,,,,,,,,,,,,,,,,,,,,,,,,,,,,,,,,,,,,,,,,,,,,,,,,,,,,,,,,,,,,,,,013021,0,1,2,3,1,1,2,0,12,2021_Jan_30_1057,listening_fmri,3.2.4,60.181305329620734,
1,parcelated_audio/32/32_7.ogg,,,,,,,,,0,0,0,0,0,1,1,1,0,0,0,0,,,,,,,,,0,0,0,0,0,6,6,6,,,,,,,,,,,,,,,,,,,,,,,,,,,,,,,,,,,,,,,,,,,,64.04452632599987,67.43893664699954,,,,,,,,,,,,,,,,,,,,,,,,,,,,,,,,,,,,,,,,,,,,,,,,,,,,,,,,,,,,,,,,,,013021,0,1,2,3,1,1,2,0,12,2021_Jan_30_1057,listening_fmri,3.2.4,60.181305329620734,
1,parcelated_audio/32/32_8.ogg,,,,,,,,,0,0,0,0,0,1,1,1,0,0,0,0,,,,,,,,,0,0,0,0,0,7,7,7,,,,,,,,,,,,,,,,,,,,,,,,,,,,,,,,,,,,,,,,,,,,67.4393514759995,71.91309937999995,,,,,,,,,,,,,,,,,,,,,,,,,,,,,,,,,,,,,,,,,,,,,,,,,,,,,,,,,,,,,,,,,,013021,0,1,2,3,1,1,2,0,12,2021_Jan_30_1057,listening_fmri,3.2.4,60.181305329620734,
1,parcelated_audio/32/32_9.ogg,,,,,,,,,0,0,0,0,0,1,1,1,0,0,0,0,,,,,,,,,0,0,0,0,0,8,8,8,,,,,,,,,,,,,,,,,,,,,,,,,,,,,,,,,,,,,,,,,,,,71.91344326299986,80.59498950699981,,,,,,,,,,,,,,,,,,,,,,,,,,,,,,,,,,,,,,,,,,,,,,,,,,,,,,,,,,,,,,,,,,013021,0,1,2,3,1,1,2,0,12,2021_Jan_30_1057,listening_fmri,3.2.4,60.181305329620734,
1,parcelated_audio/32/32_10.ogg,,,,,,,,,0,0,0,0,0,1,1,1,0,0,0,0,,,,,,,,,0,0,0,0,0,9,9,9,,,,,,,,,,,,,,,,,,,,,,,,,,,,,,,,,,,,,,,,,,,,80.59533900299994,85.36888063700007,,,,,,,,,,,,,,,,,,,,,,,,,,,,,,,,,,,,,,,,,,,,,,,,,,,,,,,,,,,,,,,,,,013021,0,1,2,3,1,1,2,0,12,2021_Jan_30_1057,listening_fmri,3.2.4,60.181305329620734,
1,parcelated_audio/32/32_11.ogg,,,,,,,,,0,0,0,0,0,1,1,1,0,0,0,0,,,,,,,,,0,0,0,0,0,10,10,10,,,,,,,,,,,,,,,,,,,,,,,,,,,,,,,,,,,,,,,,,,,,85.36923341900001,91.45307198299997,,,,,,,,,,,,,,,,,,,,,,,,,,,,,,,,,,,,,,,,,,,,,,,,,,,,,,,,,,,,,,,,,,013021,0,1,2,3,1,1,2,0,12,2021_Jan_30_1057,listening_fmri,3.2.4,60.181305329620734,
1,parcelated_audio/32/32_12.ogg,,,,,,,,,0,0,0,0,0,1,1,1,0,0,0,0,,,,,,,,,0,0,0,0,0,11,11,11,,,,,,,,,,,,,,,,,,,,,,,,,,,,,,,,,,,,,,,,,,,,91.4534968099997,100.89914575900002,,,,,,,,,,,,,,,,,,,,,,,,,,,,,,,,,,,,,,,,,,,,,,,,,,,,,,,,,,,,,,,,,,013021,0,1,2,3,1,1,2,0,12,2021_Jan_30_1057,listening_fmri,3.2.4,60.181305329620734,
1,parcelated_audio/32/32_13.ogg,,,,,,,,,0,0,0,0,0,1,1,1,0,0,0,0,,,,,,,,,0,0,0,0,0,12,12,12,,,,,,,,,,,,,,,,,,,,,,,,,,,,,,,,,,,,,,,,,,,,100.89959231299963,110.51563698999962,,,,,,,,,,,,,,,,,,,,,,,,,,,,,,,,,,,,,,,,,,,,,,,,,,,,,,,,,,,,,,,,,,013021,0,1,2,3,1,1,2,0,12,2021_Jan_30_1057,listening_fmri,3.2.4,60.181305329620734,
1,parcelated_audio/32/32_14.ogg,,,,,,,,,0,0,0,0,0,1,1,1,0,0,0,0,,,,,,,,,0,0,0,0,0,13,13,13,,,,,,,,,,,,,,,,,,,,,,,,,,,,,,,,,,,,,,,,,,,,110.51616499800002,118.5935788199995,,,,,,,,,,,,,,,,,,,,,,,,,,,,,,,,,,,,,,,,,,,,,,,,,,,,,,,,,,,,,,,,,,013021,0,1,2,3,1,1,2,0,12,2021_Jan_30_1057,listening_fmri,3.2.4,60.181305329620734,
1,parcelated_audio/32/32_15.ogg,,,,,,,,,0,0,0,0,0,1,1,1,0,0,0,0,,,,,,,,,0,0,0,0,0,14,14,14,,,,,,,,,,,,,,,,,,,,,,,,,,,,,,,,,,,,,,,,,,,,118.59416316199986,125.4754148029997,,,,,,,,,,,,,,,,,,,,,,,,,,,,,,,,,,,,,,,,,,,,,,,,,,,,,,,,,,,,,,,,,,013021,0,1,2,3,1,1,2,0,12,2021_Jan_30_1057,listening_fmri,3.2.4,60.181305329620734,
1,parcelated_audio/32/32_16.ogg,,,,,,,,,0,0,0,0,0,1,1,1,0,0,0,0,,,,,,,,,0,0,0,0,0,15,15,15,,,,,,,,,,,,,,,,,,,,,,,,,,,,,,,,,,,,,,,,,,,,125.4756730879999,133.1077261499995,,,,,,,,,,,,,,,,,,,,,,,,,,,,,,,,,,,,,,,,,,,,,,,,,,,,,,,,,,,,,,,,,,013021,0,1,2,3,1,1,2,0,12,2021_Jan_30_1057,listening_fmri,3.2.4,60.181305329620734,
1,parcelated_audio/32/32_17.ogg,,,,,,,,,0,0,0,0,0,1,1,1,0,0,0,0,,,,,,,,,0,0,0,0,0,16,16,16,,,,,,,,,,,,,,,,,,,,,,,,,,,,,,,,,,,,,,,,,,,,133.10807159399974,141.41302814000028,,,,,,,,,,,,,,,,,,,,,,,,,,,,,,,,,,,,,,,,,,,,,,,,,,,,,,,,,,,,,,,,,,013021,0,1,2,3,1,1,2,0,12,2021_Jan_30_1057,listening_fmri,3.2.4,60.181305329620734,
1,parcelated_audio/32/32_18.ogg,,,,,,,,,0,0,0,0,0,1,1,1,0,0,0,0,,,,,,,,,0,0,0,0,0,17,17,17,,,,,,,,,,,,,,,,,,,,,,,,,,,,,,,,,,,,,,,,,,,,141.41338007000013,145.82498943999963,,,,,,,,,,,,,,,,,,,,,,,,,,,,,,,,,,,,,,,,,,,,,,,,,,,,,,,,,,,,,,,,,,013021,0,1,2,3,1,1,2,0,12,2021_Jan_30_1057,listening_fmri,3.2.4,60.181305329620734,
1,parcelated_audio/32/32_19.ogg,,,,,,,,,0,0,0,0,0,1,1,1,0,0,0,0,,,,,,,,,0,0,0,0,0,18,18,18,,,,,,,,,,,,,,,,,,,,,,,,,,,,,,,,,,,,,,,,,,,,145.827189525,153.87858836899977,,,,,,,,,,,,,,,,,,,,,,,,,,,,,,,,,,,,,,,,,,,,,,,,,,,,,,,,,,,,,,,,,,013021,0,1,2,3,1,1,2,0,12,2021_Jan_30_1057,listening_fmri,3.2.4,60.181305329620734,
1,parcelated_audio/32/32_20.ogg,,,,,,,,,0,0,0,0,0,1,1,1,0,0,0,0,,,,,,,,,0,0,0,0,0,19,19,19,,,,,,,,,,,,,,,,,,,,,,,,,,,,,,,,,,,,,,,,,,,,153.8791299280001,164.77691264500027,,,,,,,,,,,,,,,,,,,,,,,,,,,,,,,,,,,,,,,,,,,,,,,,,,,,,,,,,,,,,,,,,,013021,0,1,2,3,1,1,2,0,12,2021_Jan_30_1057,listening_fmri,3.2.4,60.181305329620734,
1,parcelated_audio/32/32_21.ogg,,,,,,,,,0,0,0,0,0,1,1,1,0,0,0,0,,,,,,,,,0,0,0,0,0,20,20,20,,,,,,,,,,,,,,,,,,,,,,,,,,,,,,,,,,,,,,,,,,,,164.7774207880002,173.64336767399982,,,,,,,,,,,,,,,,,,,,,,,,,,,,,,,,,,,,,,,,,,,,,,,,,,,,,,,,,,,,,,,,,,013021,0,1,2,3,1,1,2,0,12,2021_Jan_30_1057,listening_fmri,3.2.4,60.181305329620734,
1,parcelated_audio/32/32_22.ogg,,,,,,,,,0,0,0,0,0,1,1,1,0,0,0,0,,,,,,,,,0,0,0,0,0,21,21,21,,,,,,,,,,,,,,,,,,,,,,,,,,,,,,,,,,,,,,,,,,,,173.6437115130002,187.68501593200017,,,,,,,,,,,,,,,,,,,,,,,,,,,,,,,,,,,,,,,,,,,,,,,,,,,,,,,,,,,,,,,,,,013021,0,1,2,3,1,1,2,0,12,2021_Jan_30_1057,listening_fmri,3.2.4,60.181305329620734,
1,parcelated_audio/32/32_23.ogg,,,,,,,,,0,0,0,0,0,1,1,1,0,0,0,0,,,,,,,,,0,0,0,0,0,22,22,22,,,,,,,,,,,,,,,,,,,,,,,,,,,,,,,,,,,,,,,,,,,,187.68551672299964,196.73718655599987,,,,,,,,,,,,,,,,,,,,,,,,,,,,,,,,,,,,,,,,,,,,,,,,,,,,,,,,,,,,,,,,,,013021,0,1,2,3,1,1,2,0,12,2021_Jan_30_1057,listening_fmri,3.2.4,60.181305329620734,
1,parcelated_audio/32/32_24.ogg,,,,,,,,,0,0,0,0,0,1,1,1,0,0,0,0,,,,,,,,,0,0,0,0,0,23,23,23,,,,,,,,,,,,,,,,,,,,,,,,,,,,,,,,,,,,,,,,,,,,196.7375327310001,208.04111300299974,,,,,,,,,,,,,,,,,,,,,,,,,,,,,,,,,,,,,,,,,,,,,,,,,,,,,,,,,,,,,,,,,,013021,0,1,2,3,1,1,2,0,12,2021_Jan_30_1057,listening_fmri,3.2.4,60.181305329620734,
1,parcelated_audio/32/32_25.ogg,,,,,,,,,0,0,0,0,0,1,1,1,0,0,0,0,,,,,,,,,0,0,0,0,0,24,24,24,,,,,,,,,,,,,,,,,,,,,,,,,,,,,,,,,,,,,,,,,,,,208.04145848000007,214.10483216400007,,,,,,,,,,,,,,,,,,,,,,,,,,,,,,,,,,,,,,,,,,,,,,,,,,,,,,,,,,,,,,,,,,013021,0,1,2,3,1,1,2,0,12,2021_Jan_30_1057,listening_fmri,3.2.4,60.181305329620734,
1,parcelated_audio/32/32_26.ogg,,,,,,,,,0,0,0,0,0,1,1,1,0,0,0,0,,,,,,,,,0,0,0,0,0,25,25,25,,,,,,,,,,,,,,,,,,,,,,,,,,,,,,,,,,,,,,,,,,,,214.10520062500018,227.45374868700037,,,,,,,,,,,,,,,,,,,,,,,,,,,,,,,,,,,,,,,,,,,,,,,,,,,,,,,,,,,,,,,,,,013021,0,1,2,3,1,1,2,0,12,2021_Jan_30_1057,listening_fmri,3.2.4,60.181305329620734,
1,parcelated_audio/32/32_27.ogg,,,,,,,,,0,0,0,0,0,1,1,1,0,0,0,0,,,,,,,,,0,0,0,0,0,26,26,26,,,,,,,,,,,,,,,,,,,,,,,,,,,,,,,,,,,,,,,,,,,,227.45427245700012,234.42981810400033,,,,,,,,,,,,,,,,,,,,,,,,,,,,,,,,,,,,,,,,,,,,,,,,,,,,,,,,,,,,,,,,,,013021,0,1,2,3,1,1,2,0,12,2021_Jan_30_1057,listening_fmri,3.2.4,60.181305329620734,
1,parcelated_audio/32/32_28.ogg,,,,,,,,,0,0,0,0,0,1,1,1,0,0,0,0,,,,,,,,,0,0,0,0,0,27,27,27,,,,,,,,,,,,,,,,,,,,,,,,,,,,,,,,,,,,,,,,,,,,234.43150164599956,241.1411601259997,,,,,,,,,,,,,,,,,,,,,,,,,,,,,,,,,,,,,,,,,,,,,,,,,,,,,,,,,,,,,,,,,,013021,0,1,2,3,1,1,2,0,12,2021_Jan_30_1057,listening_fmri,3.2.4,60.181305329620734,
1,parcelated_audio/32/32_29.ogg,,,,,,,,,0,0,0,0,0,1,1,1,0,0,0,0,,,,,,,,,0,0,0,0,0,28,28,28,,,,,,,,,,,,,,,,,,,,,,,,,,,,,,,,,,,,,,,,,,,,241.1416676990002,243.80545161400005,,,,,,,,,,,,,,,,,,,,,,,,,,,,,,,,,,,,,,,,,,,,,,,,,,,,,,,,,,,,,,,,,,013021,0,1,2,3,1,1,2,0,12,2021_Jan_30_1057,listening_fmri,3.2.4,60.181305329620734,
1,parcelated_audio/32/32_30.ogg,,,,,,,,,0,0,0,0,0,1,1,1,0,0,0,0,,,,,,,,,0,0,0,0,0,29,29,29,,,,,,,,,,,,,,,,,,,,,,,,,,,,,,,,,,,,,,,,,,,,243.8057942839996,250.83313662199998,,,,,,,,,,,,,,,,,,,,,,,,,,,,,,,,,,,,,,,,,,,,,,,,,,,,,,,,,,,,,,,,,,013021,0,1,2,3,1,1,2,0,12,2021_Jan_30_1057,listening_fmri,3.2.4,60.181305329620734,
1,parcelated_audio/32/32_31.ogg,,,,,,,,,0,0,0,0,0,1,1,1,0,0,0,0,,,,,,,,,0,0,0,0,0,30,30,30,,,,,,,,,,,,,,,,,,,,,,,,,,,,,,,,,,,,,,,,,,,,250.83338476300014,257.17037733899997,,,,,,,,,,,,,,,,,,,,,,,,,,,,,,,,,,,,,,,,,,,,,,,,,,,,,,,,,,,,,,,,,,013021,0,1,2,3,1,1,2,0,12,2021_Jan_30_1057,listening_fmri,3.2.4,60.181305329620734,
1,parcelated_audio/32/32_32.ogg,,,,,,,,,0,0,0,0,0,1,1,1,0,0,0,0,,,,,,,,,0,0,0,0,0,31,31,31,,,,,,,,,,,,,,,,,,,,,,,,,,,,,,,,,,,,,,,,,,,,257.1707218299998,266.8786298220002,,,,,,,,,,,,,,,,,,,,,,,,,,,,,,,,,,,,,,,,,,,,,,,,,,,,,,,,,,,,,,,,,,013021,0,1,2,3,1,1,2,0,12,2021_Jan_30_1057,listening_fmri,3.2.4,60.181305329620734,
1,parcelated_audio/32/32_33.ogg,,,,,,,,,0,0,0,0,0,1,1,1,0,0,0,0,,,,,,,,,0,0,0,0,0,32,32,32,,,,,,,,,,,,,,,,,,,,,,,,,,,,,,,,,,,,,,,,,,,,266.8789763369996,272.6332155479995,,,,,,,,,,,,,,,,,,,,,,,,,,,,,,,,,,,,,,,,,,,,,,,,,,,,,,,,,,,,,,,,,,013021,0,1,2,3,1,1,2,0,12,2021_Jan_30_1057,listening_fmri,3.2.4,60.181305329620734,
1,,,,,,,,,,0,0,0,0,0,1,1,1,0,0,0,0,,,,,,,,,0,0,0,0,,,,,,,,,,,,,,,,,,,,,,,,,,,,,,,,,,,,,,,,,,,,,,,,,,,,,,,,,,,,,,,,,,,,,,,,,,,,,,,,,,,,,,,,,,,,,,,,,,,,,,,,,,,,,,,,,,,013021,0,1,2,3,1,1,2,0,12,2021_Jan_30_1057,listening_fmri,3.2.4,60.181305329620734,
1,,,,,,,,,,0,0,0,0,0,1,1,1,0,0,0,0,,,,,,,,,,,,,,,,,,,,,,,,,,,,,,,,,,,,,,272.6337020740002,278.6250647659999,447.3784790919999,None,,,,,,,,,,,,,,,,,,,,,453.3826240620001,None,453.3826240620001,None,,,,,,,,,,,,,,,,,,,,,,,,,,,,,,,,,,,,,,,,,,,,,,,,,,,,,,,,,,,,,,013021,0,1,2,3,1,1,2,0,12,2021_Jan_30_1057,listening_fmri,3.2.4,60.181305329620734,
1,,,,,,,,,,0,0,0,0,0,1,1,1,,,,,,,,,,,,,,,,,,,,,,,,,,,,,,,,,,,,,,,,,,,,,,,,,,,,,,,,,,,,,,,,,,,,,,,,,,,,,,,,,,,,,,,,,,,,,,,,,,,,,,,,,,,,,,,,,,,,,,,,,,,,,,,,,,,013021,0,1,2,3,1,1,2,0,12,2021_Jan_30_1057,listening_fmri,3.2.4,60.181305329620734,
2,,,,,,,,,,0,0,0,0,0,2,2,2,,,,,,,,,,,,,,,,,,,,,,,,,,,,,,,,,,,,,,,,,,,,,,,,,,,,,,,,,,,,,,,,,,,,,,,,,,,,,,,,,,,,,,,,,,,,,,,,,,,,,,,,,,,,,,,,,,,,,,,,,,,,,,,,,,,013021,0,1,2,3,1,1,2,0,12,2021_Jan_30_1057,listening_fmri,3.2.4,60.181305329620734,
3,,,,,,,,,,0,0,0,0,0,3,3,3,0,0,0,0,0,0,0,0,,,,,,,,,,,,,,,,,0,0,0,0,,,,,,,,,,,,,,,,,,454.4003318340001,None,454.4003318340001,None,7,1.0380836439999257,454.4003318340001,None,454.4003318340001,None,,,,,,,,,,,,,,,455.4615880709998,None,7,0.97281794599985,455.4615880709998,None,455.4615880709998,None,456.4832761279995,None,456.4832761279995,None,456.4832761279995,None,7,1.703113859000041,456.4832761279995,None,458.2117894129997,None,7,1.3235926460001792,458.2117894129997,None,458.2117894129997,None,459.6452112369998,None,459.6452112369998,None,459.6452112369998,None,459.6452112369998,None,459.6452112369998,None,459.6452112369998,None,459.6452112369998,None,None,459.6452112369998,None,,,,,,,,,,,,,,,,,,,013021,0,1,2,3,1,1,2,0,12,2021_Jan_30_1057,listening_fmri,3.2.4,60.181305329620734,
3,,,,,,,,,,0,0,0,0,0,3,3,3,0,0,0,0,0,0,0,0,,,,,,,,,,,,,,,,,,,,,,,,,,,,,,,,,,,,,,,,,,,,,,,,,,,,,,,,,,,,,,,,,,,,,,,,,,,,,,,,,,,,,,,,,,,,,,,,,,,,,,,,,488.5284128160001,None,2,2.130942769000285,488.5284128160001,None,488.5284128160001,None,490.694760501,None,490.694760501,None,490.694760501,None,2,1.4916297420004412,490.694760501,None,013021,0,1,2,3,1,1,2,0,12,2021_Jan_30_1057,listening_fmri,3.2.4,60.181305329620734,
3,parcelated_audio/34/34_1.ogg,,,,,,,,,0,0,0,0,0,3,3,3,0,0,0,0,,,,,,,,,0,0,0,0,0,0,0,0,,,,,,,,,,,,,,,,,,,,,,,,,,,,,,,,,,,,492.21158603799995,None,2,1.0437891789997593,492.21158603799995,None,318.5537970149999,321.55733933400006,321.563381039,330.2625194860002,,,,,,,,,,,,,,,,,,,,,,,,,,,,,,,,,,,,,,,,,,,,,,,,,,,,,,,,,,,,,,,,,,013021,0,1,2,3,1,1,2,0,12,2021_Jan_30_1057,listening_fmri,3.2.4,60.181305329620734,
3,parcelated_audio/34/34_2.ogg,,,,,,,,,0,0,0,0,0,3,3,3,0,0,0,0,,,,,,,,,0,0,0,0,0,1,1,1,,,,,,,,,,,,,,,,,,,,,,,,,,,,,,,,,,,,,,,,,,,,330.26288629099963,334.8147367669999,,,,,,,,,,,,,,,,,,,,,,,,,,,,,,,,,,,,,,,,,,,,,,,,,,,,,,,,,,,,,,,,,,013021,0,1,2,3,1,1,2,0,12,2021_Jan_30_1057,listening_fmri,3.2.4,60.181305329620734,
3,parcelated_audio/34/34_3.ogg,,,,,,,,,0,0,0,0,0,3,3,3,0,0,0,0,,,,,,,,,0,0,0,0,0,2,2,2,,,,,,,,,,,,,,,,,,,,,,,,,,,,,,,,,,,,,,,,,,,,334.81508142500024,339.451917419,,,,,,,,,,,,,,,,,,,,,,,,,,,,,,,,,,,,,,,,,,,,,,,,,,,,,,,,,,,,,,,,,,013021,0,1,2,3,1,1,2,0,12,2021_Jan_30_1057,listening_fmri,3.2.4,60.181305329620734,
3,parcelated_audio/34/34_4.ogg,,,,,,,,,0,0,0,0,0,3,3,3,0,0,0,0,,,,,,,,,0,0,0,0,0,3,3,3,,,,,,,,,,,,,,,,,,,,,,,,,,,,,,,,,,,,,,,,,,,,339.4523373209995,349.05985431499994,,,,,,,,,,,,,,,,,,,,,,,,,,,,,,,,,,,,,,,,,,,,,,,,,,,,,,,,,,,,,,,,,,013021,0,1,2,3,1,1,2,0,12,2021_Jan_30_1057,listening_fmri,3.2.4,60.181305329620734,
3,parcelated_audio/34/34_5.ogg,,,,,,,,,0,0,0,0,0,3,3,3,0,0,0,0,,,,,,,,,0,0,0,0,0,4,4,4,,,,,,,,,,,,,,,,,,,,,,,,,,,,,,,,,,,,,,,,,,,,349.0602070389996,359.47834578899983,,,,,,,,,,,,,,,,,,,,,,,,,,,,,,,,,,,,,,,,,,,,,,,,,,,,,,,,,,,,,,,,,,013021,0,1,2,3,1,1,2,0,12,2021_Jan_30_1057,listening_fmri,3.2.4,60.181305329620734,
3,parcelated_audio/34/34_6.ogg,,,,,,,,,0,0,0,0,0,3,3,3,0,0,0,0,,,,,,,,,0,0,0,0,0,5,5,5,,,,,,,,,,,,,,,,,,,,,,,,,,,,,,,,,,,,,,,,,,,,359.4787105659998,368.1877495560002,,,,,,,,,,,,,,,,,,,,,,,,,,,,,,,,,,,,,,,,,,,,,,,,,,,,,,,,,,,,,,,,,,013021,0,1,2,3,1,1,2,0,12,2021_Jan_30_1057,listening_fmri,3.2.4,60.181305329620734,
3,parcelated_audio/34/34_7.ogg,,,,,,,,,0,0,0,0,0,3,3,3,0,0,0,0,,,,,,,,,0,0,0,0,0,6,6,6,,,,,,,,,,,,,,,,,,,,,,,,,,,,,,,,,,,,,,,,,,,,368.18815883299976,374.1803281049997,,,,,,,,,,,,,,,,,,,,,,,,,,,,,,,,,,,,,,,,,,,,,,,,,,,,,,,,,,,,,,,,,,013021,0,1,2,3,1,1,2,0,12,2021_Jan_30_1057,listening_fmri,3.2.4,60.181305329620734,
3,parcelated_audio/34/34_8.ogg,,,,,,,,,0,0,0,0,0,3,3,3,0,0,0,0,,,,,,,,,0,0,0,0,0,7,7,7,,,,,,,,,,,,,,,,,,,,,,,,,,,,,,,,,,,,,,,,,,,,374.1816164330003,382.15594986700034,,,,,,,,,,,,,,,,,,,,,,,,,,,,,,,,,,,,,,,,,,,,,,,,,,,,,,,,,,,,,,,,,,013021,0,1,2,3,1,1,2,0,12,2021_Jan_30_1057,listening_fmri,3.2.4,60.181305329620734,
3,parcelated_audio/34/34_9.ogg,,,,,,,,,0,0,0,0,0,3,3,3,0,0,0,0,,,,,,,,,0,0,0,0,0,8,8,8,,,,,,,,,,,,,,,,,,,,,,,,,,,,,,,,,,,,,,,,,,,,382.1563651340002,386.9393923609996,,,,,,,,,,,,,,,,,,,,,,,,,,,,,,,,,,,,,,,,,,,,,,,,,,,,,,,,,,,,,,,,,,013021,0,1,2,3,1,1,2,0,12,2021_Jan_30_1057,listening_fmri,3.2.4,60.181305329620734,
3,parcelated_audio/34/34_10.ogg,,,,,,,,,0,0,0,0,0,3,3,3,0,0,0,0,,,,,,,,,0,0,0,0,0,9,9,9,,,,,,,,,,,,,,,,,,,,,,,,,,,,,,,,,,,,,,,,,,,,386.93985940400034,394.0480312620002,,,,,,,,,,,,,,,,,,,,,,,,,,,,,,,,,,,,,,,,,,,,,,,,,,,,,,,,,,,,,,,,,,013021,0,1,2,3,1,1,2,0,12,2021_Jan_30_1057,listening_fmri,3.2.4,60.181305329620734,
3,parcelated_audio/34/34_11.ogg,,,,,,,,,0,0,0,0,0,3,3,3,0,0,0,0,,,,,,,,,0,0,0,0,0,10,10,10,,,,,,,,,,,,,,,,,,,,,,,,,,,,,,,,,,,,,,,,,,,,394.0486012479996,397.4864956860001,,,,,,,,,,,,,,,,,,,,,,,,,,,,,,,,,,,,,,,,,,,,,,,,,,,,,,,,,,,,,,,,,,013021,0,1,2,3,1,1,2,0,12,2021_Jan_30_1057,listening_fmri,3.2.4,60.181305329620734,
3,parcelated_audio/34/34_12.ogg,,,,,,,,,0,0,0,0,0,3,3,3,0,0,0,0,,,,,,,,,0,0,0,0,0,11,11,11,,,,,,,,,,,,,,,,,,,,,,,,,,,,,,,,,,,,,,,,,,,,397.48686127200017,405.64294255299956,,,,,,,,,,,,,,,,,,,,,,,,,,,,,,,,,,,,,,,,,,,,,,,,,,,,,,,,,,,,,,,,,,013021,0,1,2,3,1,1,2,0,12,2021_Jan_30_1057,listening_fmri,3.2.4,60.181305329620734,
3,parcelated_audio/34/34_13.ogg,,,,,,,,,0,0,0,0,0,3,3,3,0,0,0,0,,,,,,,,,0,0,0,0,0,12,12,12,,,,,,,,,,,,,,,,,,,,,,,,,,,,,,,,,,,,,,,,,,,,405.6432902910001,409.6260013729998,,,,,,,,,,,,,,,,,,,,,,,,,,,,,,,,,,,,,,,,,,,,,,,,,,,,,,,,,,,,,,,,,,013021,0,1,2,3,1,1,2,0,12,2021_Jan_30_1057,listening_fmri,3.2.4,60.181305329620734,
3,parcelated_audio/34/34_14.ogg,,,,,,,,,0,0,0,0,0,3,3,3,0,0,0,0,,,,,,,,,0,0,0,0,0,13,13,13,,,,,,,,,,,,,,,,,,,,,,,,,,,,,,,,,,,,,,,,,,,,409.62717258999965,414.2707981779995,,,,,,,,,,,,,,,,,,,,,,,,,,,,,,,,,,,,,,,,,,,,,,,,,,,,,,,,,,,,,,,,,,013021,0,1,2,3,1,1,2,0,12,2021_Jan_30_1057,listening_fmri,3.2.4,60.181305329620734,
3,parcelated_audio/34/34_15.ogg,,,,,,,,,0,0,0,0,0,3,3,3,0,0,0,0,,,,,,,,,0,0,0,0,0,14,14,14,,,,,,,,,,,,,,,,,,,,,,,,,,,,,,,,,,,,,,,,,,,,414.27112011200006,418.47599137900033,,,,,,,,,,,,,,,,,,,,,,,,,,,,,,,,,,,,,,,,,,,,,,,,,,,,,,,,,,,,,,,,,,013021,0,1,2,3,1,1,2,0,12,2021_Jan_30_1057,listening_fmri,3.2.4,60.181305329620734,
3,parcelated_audio/34/34_16.ogg,,,,,,,,,0,0,0,0,0,3,3,3,0,0,0,0,,,,,,,,,0,0,0,0,0,15,15,15,,,,,,,,,,,,,,,,,,,,,,,,,,,,,,,,,,,,,,,,,,,,418.4764964340002,431.47589234099996,,,,,,,,,,,,,,,,,,,,,,,,,,,,,,,,,,,,,,,,,,,,,,,,,,,,,,,,,,,,,,,,,,013021,0,1,2,3,1,1,2,0,12,2021_Jan_30_1057,listening_fmri,3.2.4,60.181305329620734,
3,parcelated_audio/34/34_17.ogg,,,,,,,,,0,0,0,0,0,3,3,3,0,0,0,0,,,,,,,,,0,0,0,0,0,16,16,16,,,,,,,,,,,,,,,,,,,,,,,,,,,,,,,,,,,,,,,,,,,,431.47663959700003,440.39838831399993,,,,,,,,,,,,,,,,,,,,,,,,,,,,,,,,,,,,,,,,,,,,,,,,,,,,,,,,,,,,,,,,,,013021,0,1,2,3,1,1,2,0,12,2021_Jan_30_1057,listening_fmri,3.2.4,60.181305329620734,
3,parcelated_audio/34/34_18.ogg,,,,,,,,,0,0,0,0,0,3,3,3,0,0,0,0,,,,,,,,,0,0,0,0,0,17,17,17,,,,,,,,,,,,,,,,,,,,,,,,,,,,,,,,,,,,,,,,,,,,440.39874006399987,446.2811296919999,,,,,,,,,,,,,,,,,,,,,,,,,,,,,,,,,,,,,,,,,,,,,,,,,,,,,,,,,,,,,,,,,,013021,0,1,2,3,1,1,2,0,12,2021_Jan_30_1057,listening_fmri,3.2.4,60.181305329620734,
3,parcelated_audio/34/34_19.ogg,,,,,,,,,0,0,0,0,0,3,3,3,0,0,0,0,,,,,,,,,0,0,0,0,0,18,18,18,,,,,,,,,,,,,,,,,,,,,,,,,,,,,,,,,,,,,,,,,,,,446.281581921,452.49785946500015,,,,,,,,,,,,,,,,,,,,,,,,,,,,,,,,,,,,,,,,,,,,,,,,,,,,,,,,,,,,,,,,,,013021,0,1,2,3,1,1,2,0,12,2021_Jan_30_1057,listening_fmri,3.2.4,60.181305329620734,
3,parcelated_audio/34/34_20.ogg,,,,,,,,,0,0,0,0,0,3,3,3,0,0,0,0,,,,,,,,,0,0,0,0,0,19,19,19,,,,,,,,,,,,,,,,,,,,,,,,,,,,,,,,,,,,,,,,,,,,452.49820011799966,460.955374913,,,,,,,,,,,,,,,,,,,,,,,,,,,,,,,,,,,,,,,,,,,,,,,,,,,,,,,,,,,,,,,,,,013021,0,1,2,3,1,1,2,0,12,2021_Jan_30_1057,listening_fmri,3.2.4,60.181305329620734,
3,parcelated_audio/34/34_21.ogg,,,,,,,,,0,0,0,0,0,3,3,3,0,0,0,0,,,,,,,,,0,0,0,0,0,20,20,20,,,,,,,,,,,,,,,,,,,,,,,,,,,,,,,,,,,,,,,,,,,,460.9557930109995,467.32061256700035,,,,,,,,,,,,,,,,,,,,,,,,,,,,,,,,,,,,,,,,,,,,,,,,,,,,,,,,,,,,,,,,,,013021,0,1,2,3,1,1,2,0,12,2021_Jan_30_1057,listening_fmri,3.2.4,60.181305329620734,
3,parcelated_audio/34/34_22.ogg,,,,,,,,,0,0,0,0,0,3,3,3,0,0,0,0,,,,,,,,,0,0,0,0,0,21,21,21,,,,,,,,,,,,,,,,,,,,,,,,,,,,,,,,,,,,,,,,,,,,467.32097683200027,472.44692209499954,,,,,,,,,,,,,,,,,,,,,,,,,,,,,,,,,,,,,,,,,,,,,,,,,,,,,,,,,,,,,,,,,,013021,0,1,2,3,1,1,2,0,12,2021_Jan_30_1057,listening_fmri,3.2.4,60.181305329620734,
3,parcelated_audio/34/34_23.ogg,,,,,,,,,0,0,0,0,0,3,3,3,0,0,0,0,,,,,,,,,0,0,0,0,0,22,22,22,,,,,,,,,,,,,,,,,,,,,,,,,,,,,,,,,,,,,,,,,,,,472.44736170099986,480.2450254770001,,,,,,,,,,,,,,,,,,,,,,,,,,,,,,,,,,,,,,,,,,,,,,,,,,,,,,,,,,,,,,,,,,013021,0,1,2,3,1,1,2,0,12,2021_Jan_30_1057,listening_fmri,3.2.4,60.181305329620734,
3,parcelated_audio/34/34_24.ogg,,,,,,,,,0,0,0,0,0,3,3,3,0,0,0,0,,,,,,,,,0,0,0,0,0,23,23,23,,,,,,,,,,,,,,,,,,,,,,,,,,,,,,,,,,,,,,,,,,,,480.2453377619995,486.04142771900024,,,,,,,,,,,,,,,,,,,,,,,,,,,,,,,,,,,,,,,,,,,,,,,,,,,,,,,,,,,,,,,,,,013021,0,1,2,3,1,1,2,0,12,2021_Jan_30_1057,listening_fmri,3.2.4,60.181305329620734,
3,parcelated_audio/34/34_25.ogg,,,,,,,,,0,0,0,0,0,3,3,3,0,0,0,0,,,,,,,,,0,0,0,0,0,24,24,24,,,,,,,,,,,,,,,,,,,,,,,,,,,,,,,,,,,,,,,,,,,,486.0417561289996,492.6150221179996,,,,,,,,,,,,,,,,,,,,,,,,,,,,,,,,,,,,,,,,,,,,,,,,,,,,,,,,,,,,,,,,,,013021,0,1,2,3,1,1,2,0,12,2021_Jan_30_1057,listening_fmri,3.2.4,60.181305329620734,
3,parcelated_audio/34/34_26.ogg,,,,,,,,,0,0,0,0,0,3,3,3,0,0,0,0,,,,,,,,,0,0,0,0,0,25,25,25,,,,,,,,,,,,,,,,,,,,,,,,,,,,,,,,,,,,,,,,,,,,492.6154854839997,502.2733141529998,,,,,,,,,,,,,,,,,,,,,,,,,,,,,,,,,,,,,,,,,,,,,,,,,,,,,,,,,,,,,,,,,,013021,0,1,2,3,1,1,2,0,12,2021_Jan_30_1057,listening_fmri,3.2.4,60.181305329620734,
3,parcelated_audio/34/34_27.ogg,,,,,,,,,0,0,0,0,0,3,3,3,0,0,0,0,,,,,,,,,0,0,0,0,0,26,26,26,,,,,,,,,,,,,,,,,,,,,,,,,,,,,,,,,,,,,,,,,,,,502.2738502049997,509.774803671,,,,,,,,,,,,,,,,,,,,,,,,,,,,,,,,,,,,,,,,,,,,,,,,,,,,,,,,,,,,,,,,,,013021,0,1,2,3,1,1,2,0,12,2021_Jan_30_1057,listening_fmri,3.2.4,60.181305329620734,
3,,,,,,,,,,0,0,0,0,0,3,3,3,0,0,0,0,,,,,,,,,0,0,0,0,,,,,,,,,,,,,,,,,,,,,,,,,,,,,,,,,,,,,,,,,,,,,,,,,,,,,,,,,,,,,,,,,,,,,,,,,,,,,,,,,,,,,,,,,,,,,,,,,,,,,,,,,,,,,,,,,,,013021,0,1,2,3,1,1,2,0,12,2021_Jan_30_1057,listening_fmri,3.2.4,60.181305329620734,
,,,,,,,,,,,,,,,,,,,,,,,,,,,,,,,,,,,,,,,,,,,,,,,,,,,,,,,,,,,509.7753639370003,515.774127357,684.5283343229994,None,,,,,,,,,,,,,,,,,,,,,690.5290647279999,None,690.5290647279999,None,,,,,,,,,,,,,,,,,,,,,,,,,,,,,,,,,,,,,,,,,,,,,,,,,,,,,,,,,,,,,,,,,,,,,,,,,,,,
﻿count,audio,trials_14.thisRepN,trials_14.thisTrialN,trials_14.thisN,trials_14.thisIndex,trials_3.thisRepN,trials_3.thisTrialN,trials_3.thisN,trials_3.thisIndex,trials_4.thisRepN,trials_4.thisTrialN,trials_4.thisN,trials_4.thisIndex,trials_6.thisRepN,trials_6.thisTrialN,trials_6.thisN,trials_6.thisIndex,trials_9.thisRepN,trials_9.thisTrialN,trials_9.thisN,trials_9.thisIndex,trials_10.thisRepN,trials_10.thisTrialN,trials_10.thisN,trials_10.thisIndex,trials_12.thisRepN,trials_12.thisTrialN,trials_12.thisN,trials_12.thisIndex,trials_25.thisRepN,trials_25.thisTrialN,trials_25.thisN,trials_25.thisIndex,trials_15.thisRepN,trials_15.thisTrialN,trials_15.thisN,trials_15.thisIndex,trials_26.thisRepN,trials_26.thisTrialN,trials_26.thisN,trials_26.thisIndex,trials_11.thisRepN,trials_11.thisTrialN,trials_11.thisN,trials_11.thisIndex,story_list_block2,action_list_block2,textTrigger.started,textTrigger.stopped,getTrigger.keys,getTrigger.rt,getTrigger.started,getTrigger.stopped,triggerTime,text_76.started,text_76.stopped,text_77.started,text_77.stopped,startWait,endWait,image_23.started,image_23.stopped,text_55.started,text_55.stopped,text_56.started,text_56.stopped,key_resp_2.keys,key_resp_2.rt,key_resp_2.started,key_resp_2.stopped,text_82.started,text_82.stopped,text_64.started,text_64.stopped,key_resp_20.keys,key_resp_20.rt,key_resp_20.started,key_resp_20.stopped,storyImage_StartTime,storyImage_EndTime,clip_StartTime,clip_EndTime,text_67.started,text_67.stopped,text_68.started,text_68.stopped,text_57.started,text_57.stopped,key_resp_17.keys,key_resp_17.rt,key_resp_17.started,key_resp_17.stopped,text_83.started,text_83.stopped,text_60.started,text_60.stopped,image_2.started,image_2.stopped,text_58.started,text_58.stopped,key_resp_23.keys,key_resp_23.rt,key_resp_23.started,key_resp_23.stopped,text_62.started,text_62.stopped,key_resp_18.keys,key_resp_18.rt,key_resp_18.started,key_resp_18.stopped,text_84.started,text_84.stopped,question1_2.started,question1_2.stopped,question2_2.started,question2_2.stopped,question3_2.started,question3_2.stopped,question4_2.started,question4_2.stopped,question5_2.started,question5_2.stopped,question6_2.started,question6_2.stopped,image_15.started,image_15.stopped,key_resp.keys,key_resp.started,key_resp.stopped,text_59.started,text_59.stopped,key_resp_19.keys,key_resp_19.rt,key_resp_19.started,key_resp_19.stopped,text_85.started,text_85.stopped,text_61.started,text_61.stopped,image_17.started,image_17.stopped,text_63.started,text_63.stopped,key_resp_24.keys,key_resp_24.rt,key_resp_24.started,key_resp_24.stopped,participant,sA,sB,lA,lB,block_struct,play_stories,block,behavioral,random_seed,date,expName,psychopyVersion,frameRate,
0,,,,,,,,,,0,0,0,0,0,0,0,0,,,,,,,,,,,,,,,,,,,,,,,,,,,,,[14 32 23 34 41 43 12 21],[3 4 3 2 4 2 1 1],14.338867014999778,None,equal,160.3924250099999,14.338867014999778,None,160.4152464939998,14.338867014999778,None,14.338867014999778,None,0.00045061000037094345,5.999108432999492,174.75349837399972,None,,,,,,,,,,,,,,,,,,,,,,,,,,,,,,,,,,,,,,,,,,,,,,,,,,,,,,,,,,,,,,,,,,,,,,,,,,,,,,,,,,,,,,013021,0,1,2,3,1,1,2,0,12,2021_Jan_30_1057,listening_fmri,3.2.4,60.181305329620734,
1,parcelated_audio/32/32_1.ogg,,,,,,,,,0,0,0,0,0,1,1,1,0,0,0,0,,,,,,,,,0,0,0,0,0,0,0,0,,,,,,,,,,,,,,,,,,,,,,,,,,180.76144122499954,None,180.76144122499954,None,7,1.5619318070002919,180.76144122499954,None,180.76144122499954,None,182.3446052019999,None,7,1.2506493199998658,182.3446052019999,None,8.882493021999835,11.890450484000212,11.895742095999594,23.273237792000145,,,,,,,,,,,,,,,,,,,,,,,,,,,,,,,,,,,,,,,,,,,,,,,,,,,,,,,,,,,,,,,,,,013021,0,1,2,3,1,1,2,0,12,2021_Jan_30_1057,listening_fmri,3.2.4,60.181305329620734,
1,parcelated_audio/32/32_2.ogg,,,,,,,,,0,0,0,0,0,1,1,1,0,0,0,0,,,,,,,,,0,0,0,0,0,1,1,1,,,,,,,,,,,,,,,,,,,,,,,,,,,,,,,,,,,,,,,,,,,,23.273585197000102,31.611510425999768,,,,,,,,,,,,,,,,,,,,,,,,,,,,,,,,,,,,,,,,,,,,,,,,,,,,,,,,,,,,,,,,,,013021,0,1,2,3,1,1,2,0,12,2021_Jan_30_1057,listening_fmri,3.2.4,60.181305329620734,
1,parcelated_audio/32/32_3.ogg,,,,,,,,,0,0,0,0,0,1,1,1,0,0,0,0,,,,,,,,,0,0,0,0,0,2,2,2,,,,,,,,,,,,,,,,,,,,,,,,,,,,,,,,,,,,,,,,,,,,31.61182867000025,37.18864657999984,,,,,,,,,,,,,,,,,,,,,,,,,,,,,,,,,,,,,,,,,,,,,,,,,,,,,,,,,,,,,,,,,,013021,0,1,2,3,1,1,2,0,12,2021_Jan_30_1057,listening_fmri,3.2.4,60.181305329620734,
1,parcelated_audio/32/32_4.ogg,,,,,,,,,0,0,0,0,0,1,1,1,0,0,0,0,,,,,,,,,0,0,0,0,0,3,3,3,,,,,,,,,,,,,,,,,,,,,,,,,,,,,,,,,,,,,,,,,,,,37.18897632199969,43.88102345399966,,,,,,,,,,,,,,,,,,,,,,,,,,,,,,,,,,,,,,,,,,,,,,,,,,,,,,,,,,,,,,,,,,013021,0,1,2,3,1,1,2,0,12,2021_Jan_30_1057,listening_fmri,3.2.4,60.181305329620734,
1,parcelated_audio/32/32_5.ogg,,,,,,,,,0,0,0,0,0,1,1,1,0,0,0,0,,,,,,,,,0,0,0,0,0,4,4,4,,,,,,,,,,,,,,,,,,,,,,,,,,,,,,,,,,,,,,,,,,,,43.88137119299972,55.56307473800007,,,,,,,,,,,,,,,,,,,,,,,,,,,,,,,,,,,,,,,,,,,,,,,,,,,,,,,,,,,,,,,,,,013021,0,1,2,3,1,1,2,0,12,2021_Jan_30_1057,listening_fmri,3.2.4,60.181305329620734,
1,parcelated_audio/32/32_6.ogg,,,,,,,,,0,0,0,0,0,1,1,1,0,0,0,0,,,,,,,,,0,0,0,0,0,5,5,5,,,,,,,,,,,,,,,,,,,,,,,,,,,,,,,,,,,,,,,,,,,,55.56342735399994,64.04396353500033,,,,,,,,,,,,,,,,,,,,,,,,,,,,,,,,,,,,,,,,,,,,,,,,,,,,,,,,,,,,,,,,,,013021,0,1,2,3,1,1,2,0,12,2021_Jan_30_1057,listening_fmri,3.2.4,60.181305329620734,
1,parcelated_audio/32/32_7.ogg,,,,,,,,,0,0,0,0,0,1,1,1,0,0,0,0,,,,,,,,,0,0,0,0,0,6,6,6,,,,,,,,,,,,,,,,,,,,,,,,,,,,,,,,,,,,,,,,,,,,64.04452632599987,67.43893664699954,,,,,,,,,,,,,,,,,,,,,,,,,,,,,,,,,,,,,,,,,,,,,,,,,,,,,,,,,,,,,,,,,,013021,0,1,2,3,1,1,2,0,12,2021_Jan_30_1057,listening_fmri,3.2.4,60.181305329620734,
1,parcelated_audio/32/32_8.ogg,,,,,,,,,0,0,0,0,0,1,1,1,0,0,0,0,,,,,,,,,0,0,0,0,0,7,7,7,,,,,,,,,,,,,,,,,,,,,,,,,,,,,,,,,,,,,,,,,,,,67.4393514759995,71.91309937999995,,,,,,,,,,,,,,,,,,,,,,,,,,,,,,,,,,,,,,,,,,,,,,,,,,,,,,,,,,,,,,,,,,013021,0,1,2,3,1,1,2,0,12,2021_Jan_30_1057,listening_fmri,3.2.4,60.181305329620734,
1,parcelated_audio/32/32_9.ogg,,,,,,,,,0,0,0,0,0,1,1,1,0,0,0,0,,,,,,,,,0,0,0,0,0,8,8,8,,,,,,,,,,,,,,,,,,,,,,,,,,,,,,,,,,,,,,,,,,,,71.91344326299986,80.59498950699981,,,,,,,,,,,,,,,,,,,,,,,,,,,,,,,,,,,,,,,,,,,,,,,,,,,,,,,,,,,,,,,,,,013021,0,1,2,3,1,1,2,0,12,2021_Jan_30_1057,listening_fmri,3.2.4,60.181305329620734,
1,parcelated_audio/32/32_10.ogg,,,,,,,,,0,0,0,0,0,1,1,1,0,0,0,0,,,,,,,,,0,0,0,0,0,9,9,9,,,,,,,,,,,,,,,,,,,,,,,,,,,,,,,,,,,,,,,,,,,,80.59533900299994,85.36888063700007,,,,,,,,,,,,,,,,,,,,,,,,,,,,,,,,,,,,,,,,,,,,,,,,,,,,,,,,,,,,,,,,,,013021,0,1,2,3,1,1,2,0,12,2021_Jan_30_1057,listening_fmri,3.2.4,60.181305329620734,
1,parcelated_audio/32/32_11.ogg,,,,,,,,,0,0,0,0,0,1,1,1,0,0,0,0,,,,,,,,,0,0,0,0,0,10,10,10,,,,,,,,,,,,,,,,,,,,,,,,,,,,,,,,,,,,,,,,,,,,85.36923341900001,91.45307198299997,,,,,,,,,,,,,,,,,,,,,,,,,,,,,,,,,,,,,,,,,,,,,,,,,,,,,,,,,,,,,,,,,,013021,0,1,2,3,1,1,2,0,12,2021_Jan_30_1057,listening_fmri,3.2.4,60.181305329620734,
1,parcelated_audio/32/32_12.ogg,,,,,,,,,0,0,0,0,0,1,1,1,0,0,0,0,,,,,,,,,0,0,0,0,0,11,11,11,,,,,,,,,,,,,,,,,,,,,,,,,,,,,,,,,,,,,,,,,,,,91.4534968099997,100.89914575900002,,,,,,,,,,,,,,,,,,,,,,,,,,,,,,,,,,,,,,,,,,,,,,,,,,,,,,,,,,,,,,,,,,013021,0,1,2,3,1,1,2,0,12,2021_Jan_30_1057,listening_fmri,3.2.4,60.181305329620734,
1,parcelated_audio/32/32_13.ogg,,,,,,,,,0,0,0,0,0,1,1,1,0,0,0,0,,,,,,,,,0,0,0,0,0,12,12,12,,,,,,,,,,,,,,,,,,,,,,,,,,,,,,,,,,,,,,,,,,,,100.89959231299963,110.51563698999962,,,,,,,,,,,,,,,,,,,,,,,,,,,,,,,,,,,,,,,,,,,,,,,,,,,,,,,,,,,,,,,,,,013021,0,1,2,3,1,1,2,0,12,2021_Jan_30_1057,listening_fmri,3.2.4,60.181305329620734,
1,parcelated_audio/32/32_14.ogg,,,,,,,,,0,0,0,0,0,1,1,1,0,0,0,0,,,,,,,,,0,0,0,0,0,13,13,13,,,,,,,,,,,,,,,,,,,,,,,,,,,,,,,,,,,,,,,,,,,,110.51616499800002,118.5935788199995,,,,,,,,,,,,,,,,,,,,,,,,,,,,,,,,,,,,,,,,,,,,,,,,,,,,,,,,,,,,,,,,,,013021,0,1,2,3,1,1,2,0,12,2021_Jan_30_1057,listening_fmri,3.2.4,60.181305329620734,
1,parcelated_audio/32/32_15.ogg,,,,,,,,,0,0,0,0,0,1,1,1,0,0,0,0,,,,,,,,,0,0,0,0,0,14,14,14,,,,,,,,,,,,,,,,,,,,,,,,,,,,,,,,,,,,,,,,,,,,118.59416316199986,125.4754148029997,,,,,,,,,,,,,,,,,,,,,,,,,,,,,,,,,,,,,,,,,,,,,,,,,,,,,,,,,,,,,,,,,,013021,0,1,2,3,1,1,2,0,12,2021_Jan_30_1057,listening_fmri,3.2.4,60.181305329620734,
1,parcelated_audio/32/32_16.ogg,,,,,,,,,0,0,0,0,0,1,1,1,0,0,0,0,,,,,,,,,0,0,0,0,0,15,15,15,,,,,,,,,,,,,,,,,,,,,,,,,,,,,,,,,,,,,,,,,,,,125.4756730879999,133.1077261499995,,,,,,,,,,,,,,,,,,,,,,,,,,,,,,,,,,,,,,,,,,,,,,,,,,,,,,,,,,,,,,,,,,013021,0,1,2,3,1,1,2,0,12,2021_Jan_30_1057,listening_fmri,3.2.4,60.181305329620734,
1,parcelated_audio/32/32_17.ogg,,,,,,,,,0,0,0,0,0,1,1,1,0,0,0,0,,,,,,,,,0,0,0,0,0,16,16,16,,,,,,,,,,,,,,,,,,,,,,,,,,,,,,,,,,,,,,,,,,,,133.10807159399974,141.41302814000028,,,,,,,,,,,,,,,,,,,,,,,,,,,,,,,,,,,,,,,,,,,,,,,,,,,,,,,,,,,,,,,,,,013021,0,1,2,3,1,1,2,0,12,2021_Jan_30_1057,listening_fmri,3.2.4,60.181305329620734,
1,parcelated_audio/32/32_18.ogg,,,,,,,,,0,0,0,0,0,1,1,1,0,0,0,0,,,,,,,,,0,0,0,0,0,17,17,17,,,,,,,,,,,,,,,,,,,,,,,,,,,,,,,,,,,,,,,,,,,,141.41338007000013,145.82498943999963,,,,,,,,,,,,,,,,,,,,,,,,,,,,,,,,,,,,,,,,,,,,,,,,,,,,,,,,,,,,,,,,,,013021,0,1,2,3,1,1,2,0,12,2021_Jan_30_1057,listening_fmri,3.2.4,60.181305329620734,
1,parcelated_audio/32/32_19.ogg,,,,,,,,,0,0,0,0,0,1,1,1,0,0,0,0,,,,,,,,,0,0,0,0,0,18,18,18,,,,,,,,,,,,,,,,,,,,,,,,,,,,,,,,,,,,,,,,,,,,145.827189525,153.87858836899977,,,,,,,,,,,,,,,,,,,,,,,,,,,,,,,,,,,,,,,,,,,,,,,,,,,,,,,,,,,,,,,,,,013021,0,1,2,3,1,1,2,0,12,2021_Jan_30_1057,listening_fmri,3.2.4,60.181305329620734,
1,parcelated_audio/32/32_20.ogg,,,,,,,,,0,0,0,0,0,1,1,1,0,0,0,0,,,,,,,,,0,0,0,0,0,19,19,19,,,,,,,,,,,,,,,,,,,,,,,,,,,,,,,,,,,,,,,,,,,,153.8791299280001,164.77691264500027,,,,,,,,,,,,,,,,,,,,,,,,,,,,,,,,,,,,,,,,,,,,,,,,,,,,,,,,,,,,,,,,,,013021,0,1,2,3,1,1,2,0,12,2021_Jan_30_1057,listening_fmri,3.2.4,60.181305329620734,
1,parcelated_audio/32/32_21.ogg,,,,,,,,,0,0,0,0,0,1,1,1,0,0,0,0,,,,,,,,,0,0,0,0,0,20,20,20,,,,,,,,,,,,,,,,,,,,,,,,,,,,,,,,,,,,,,,,,,,,164.7774207880002,173.64336767399982,,,,,,,,,,,,,,,,,,,,,,,,,,,,,,,,,,,,,,,,,,,,,,,,,,,,,,,,,,,,,,,,,,013021,0,1,2,3,1,1,2,0,12,2021_Jan_30_1057,listening_fmri,3.2.4,60.181305329620734,
1,parcelated_audio/32/32_22.ogg,,,,,,,,,0,0,0,0,0,1,1,1,0,0,0,0,,,,,,,,,0,0,0,0,0,21,21,21,,,,,,,,,,,,,,,,,,,,,,,,,,,,,,,,,,,,,,,,,,,,173.6437115130002,187.68501593200017,,,,,,,,,,,,,,,,,,,,,,,,,,,,,,,,,,,,,,,,,,,,,,,,,,,,,,,,,,,,,,,,,,013021,0,1,2,3,1,1,2,0,12,2021_Jan_30_1057,listening_fmri,3.2.4,60.181305329620734,
1,parcelated_audio/32/32_23.ogg,,,,,,,,,0,0,0,0,0,1,1,1,0,0,0,0,,,,,,,,,0,0,0,0,0,22,22,22,,,,,,,,,,,,,,,,,,,,,,,,,,,,,,,,,,,,,,,,,,,,187.68551672299964,196.73718655599987,,,,,,,,,,,,,,,,,,,,,,,,,,,,,,,,,,,,,,,,,,,,,,,,,,,,,,,,,,,,,,,,,,013021,0,1,2,3,1,1,2,0,12,2021_Jan_30_1057,listening_fmri,3.2.4,60.181305329620734,
1,parcelated_audio/32/32_24.ogg,,,,,,,,,0,0,0,0,0,1,1,1,0,0,0,0,,,,,,,,,0,0,0,0,0,23,23,23,,,,,,,,,,,,,,,,,,,,,,,,,,,,,,,,,,,,,,,,,,,,196.7375327310001,208.04111300299974,,,,,,,,,,,,,,,,,,,,,,,,,,,,,,,,,,,,,,,,,,,,,,,,,,,,,,,,,,,,,,,,,,013021,0,1,2,3,1,1,2,0,12,2021_Jan_30_1057,listening_fmri,3.2.4,60.181305329620734,
1,parcelated_audio/32/32_25.ogg,,,,,,,,,0,0,0,0,0,1,1,1,0,0,0,0,,,,,,,,,0,0,0,0,0,24,24,24,,,,,,,,,,,,,,,,,,,,,,,,,,,,,,,,,,,,,,,,,,,,208.04145848000007,214.10483216400007,,,,,,,,,,,,,,,,,,,,,,,,,,,,,,,,,,,,,,,,,,,,,,,,,,,,,,,,,,,,,,,,,,013021,0,1,2,3,1,1,2,0,12,2021_Jan_30_1057,listening_fmri,3.2.4,60.181305329620734,
1,parcelated_audio/32/32_26.ogg,,,,,,,,,0,0,0,0,0,1,1,1,0,0,0,0,,,,,,,,,0,0,0,0,0,25,25,25,,,,,,,,,,,,,,,,,,,,,,,,,,,,,,,,,,,,,,,,,,,,214.10520062500018,227.45374868700037,,,,,,,,,,,,,,,,,,,,,,,,,,,,,,,,,,,,,,,,,,,,,,,,,,,,,,,,,,,,,,,,,,013021,0,1,2,3,1,1,2,0,12,2021_Jan_30_1057,listening_fmri,3.2.4,60.181305329620734,
1,parcelated_audio/32/32_27.ogg,,,,,,,,,0,0,0,0,0,1,1,1,0,0,0,0,,,,,,,,,0,0,0,0,0,26,26,26,,,,,,,,,,,,,,,,,,,,,,,,,,,,,,,,,,,,,,,,,,,,227.45427245700012,234.42981810400033,,,,,,,,,,,,,,,,,,,,,,,,,,,,,,,,,,,,,,,,,,,,,,,,,,,,,,,,,,,,,,,,,,013021,0,1,2,3,1,1,2,0,12,2021_Jan_30_1057,listening_fmri,3.2.4,60.181305329620734,
1,parcelated_audio/32/32_28.ogg,,,,,,,,,0,0,0,0,0,1,1,1,0,0,0,0,,,,,,,,,0,0,0,0,0,27,27,27,,,,,,,,,,,,,,,,,,,,,,,,,,,,,,,,,,,,,,,,,,,,234.43150164599956,241.1411601259997,,,,,,,,,,,,,,,,,,,,,,,,,,,,,,,,,,,,,,,,,,,,,,,,,,,,,,,,,,,,,,,,,,013021,0,1,2,3,1,1,2,0,12,2021_Jan_30_1057,listening_fmri,3.2.4,60.181305329620734,
1,parcelated_audio/32/32_29.ogg,,,,,,,,,0,0,0,0,0,1,1,1,0,0,0,0,,,,,,,,,0,0,0,0,0,28,28,28,,,,,,,,,,,,,,,,,,,,,,,,,,,,,,,,,,,,,,,,,,,,241.1416676990002,243.80545161400005,,,,,,,,,,,,,,,,,,,,,,,,,,,,,,,,,,,,,,,,,,,,,,,,,,,,,,,,,,,,,,,,,,013021,0,1,2,3,1,1,2,0,12,2021_Jan_30_1057,listening_fmri,3.2.4,60.181305329620734,
1,parcelated_audio/32/32_30.ogg,,,,,,,,,0,0,0,0,0,1,1,1,0,0,0,0,,,,,,,,,0,0,0,0,0,29,29,29,,,,,,,,,,,,,,,,,,,,,,,,,,,,,,,,,,,,,,,,,,,,243.8057942839996,250.83313662199998,,,,,,,,,,,,,,,,,,,,,,,,,,,,,,,,,,,,,,,,,,,,,,,,,,,,,,,,,,,,,,,,,,013021,0,1,2,3,1,1,2,0,12,2021_Jan_30_1057,listening_fmri,3.2.4,60.181305329620734,
1,parcelated_audio/32/32_31.ogg,,,,,,,,,0,0,0,0,0,1,1,1,0,0,0,0,,,,,,,,,0,0,0,0,0,30,30,30,,,,,,,,,,,,,,,,,,,,,,,,,,,,,,,,,,,,,,,,,,,,250.83338476300014,257.17037733899997,,,,,,,,,,,,,,,,,,,,,,,,,,,,,,,,,,,,,,,,,,,,,,,,,,,,,,,,,,,,,,,,,,013021,0,1,2,3,1,1,2,0,12,2021_Jan_30_1057,listening_fmri,3.2.4,60.181305329620734,
1,parcelated_audio/32/32_32.ogg,,,,,,,,,0,0,0,0,0,1,1,1,0,0,0,0,,,,,,,,,0,0,0,0,0,31,31,31,,,,,,,,,,,,,,,,,,,,,,,,,,,,,,,,,,,,,,,,,,,,257.1707218299998,266.8786298220002,,,,,,,,,,,,,,,,,,,,,,,,,,,,,,,,,,,,,,,,,,,,,,,,,,,,,,,,,,,,,,,,,,013021,0,1,2,3,1,1,2,0,12,2021_Jan_30_1057,listening_fmri,3.2.4,60.181305329620734,
1,parcelated_audio/32/32_33.ogg,,,,,,,,,0,0,0,0,0,1,1,1,0,0,0,0,,,,,,,,,0,0,0,0,0,32,32,32,,,,,,,,,,,,,,,,,,,,,,,,,,,,,,,,,,,,,,,,,,,,266.8789763369996,272.6332155479995,,,,,,,,,,,,,,,,,,,,,,,,,,,,,,,,,,,,,,,,,,,,,,,,,,,,,,,,,,,,,,,,,,013021,0,1,2,3,1,1,2,0,12,2021_Jan_30_1057,listening_fmri,3.2.4,60.181305329620734,
1,,,,,,,,,,0,0,0,0,0,1,1,1,0,0,0,0,,,,,,,,,0,0,0,0,,,,,,,,,,,,,,,,,,,,,,,,,,,,,,,,,,,,,,,,,,,,,,,,,,,,,,,,,,,,,,,,,,,,,,,,,,,,,,,,,,,,,,,,,,,,,,,,,,,,,,,,,,,,,,,,,,,013021,0,1,2,3,1,1,2,0,12,2021_Jan_30_1057,listening_fmri,3.2.4,60.181305329620734,
1,,,,,,,,,,0,0,0,0,0,1,1,1,0,0,0,0,,,,,,,,,,,,,,,,,,,,,,,,,,,,,,,,,,,,,,272.6337020740002,278.6250647659999,447.3784790919999,None,,,,,,,,,,,,,,,,,,,,,453.3826240620001,None,453.3826240620001,None,,,,,,,,,,,,,,,,,,,,,,,,,,,,,,,,,,,,,,,,,,,,,,,,,,,,,,,,,,,,,,013021,0,1,2,3,1,1,2,0,12,2021_Jan_30_1057,listening_fmri,3.2.4,60.181305329620734,
1,,,,,,,,,,0,0,0,0,0,1,1,1,,,,,,,,,,,,,,,,,,,,,,,,,,,,,,,,,,,,,,,,,,,,,,,,,,,,,,,,,,,,,,,,,,,,,,,,,,,,,,,,,,,,,,,,,,,,,,,,,,,,,,,,,,,,,,,,,,,,,,,,,,,,,,,,,,,013021,0,1,2,3,1,1,2,0,12,2021_Jan_30_1057,listening_fmri,3.2.4,60.181305329620734,
2,,,,,,,,,,0,0,0,0,0,2,2,2,,,,,,,,,,,,,,,,,,,,,,,,,,,,,,,,,,,,,,,,,,,,,,,,,,,,,,,,,,,,,,,,,,,,,,,,,,,,,,,,,,,,,,,,,,,,,,,,,,,,,,,,,,,,,,,,,,,,,,,,,,,,,,,,,,,013021,0,1,2,3,1,1,2,0,12,2021_Jan_30_1057,listening_fmri,3.2.4,60.181305329620734,
3,,,,,,,,,,0,0,0,0,0,3,3,3,0,0,0,0,0,0,0,0,,,,,,,,,,,,,,,,,0,0,0,0,,,,,,,,,,,,,,,,,,454.4003318340001,None,454.4003318340001,None,7,1.0380836439999257,454.4003318340001,None,454.4003318340001,None,,,,,,,,,,,,,,,455.4615880709998,None,7,0.97281794599985,455.4615880709998,None,455.4615880709998,None,456.4832761279995,None,456.4832761279995,None,456.4832761279995,None,7,1.703113859000041,456.4832761279995,None,458.2117894129997,None,7,1.3235926460001792,458.2117894129997,None,458.2117894129997,None,459.6452112369998,None,459.6452112369998,None,459.6452112369998,None,459.6452112369998,None,459.6452112369998,None,459.6452112369998,None,459.6452112369998,None,None,459.6452112369998,None,,,,,,,,,,,,,,,,,,,013021,0,1,2,3,1,1,2,0,12,2021_Jan_30_1057,listening_fmri,3.2.4,60.181305329620734,
3,,,,,,,,,,0,0,0,0,0,3,3,3,0,0,0,0,0,0,0,0,,,,,,,,,,,,,,,,,,,,,,,,,,,,,,,,,,,,,,,,,,,,,,,,,,,,,,,,,,,,,,,,,,,,,,,,,,,,,,,,,,,,,,,,,,,,,,,,,,,,,,,,,488.5284128160001,None,2,2.130942769000285,488.5284128160001,None,488.5284128160001,None,490.694760501,None,490.694760501,None,490.694760501,None,2,1.4916297420004412,490.694760501,None,013021,0,1,2,3,1,1,2,0,12,2021_Jan_30_1057,listening_fmri,3.2.4,60.181305329620734,
3,parcelated_audio/34/34_1.ogg,,,,,,,,,0,0,0,0,0,3,3,3,0,0,0,0,,,,,,,,,0,0,0,0,0,0,0,0,,,,,,,,,,,,,,,,,,,,,,,,,,,,,,,,,,,,492.21158603799995,None,2,1.0437891789997593,492.21158603799995,None,318.5537970149999,321.55733933400006,321.563381039,330.2625194860002,,,,,,,,,,,,,,,,,,,,,,,,,,,,,,,,,,,,,,,,,,,,,,,,,,,,,,,,,,,,,,,,,,013021,0,1,2,3,1,1,2,0,12,2021_Jan_30_1057,listening_fmri,3.2.4,60.181305329620734,
3,parcelated_audio/34/34_2.ogg,,,,,,,,,0,0,0,0,0,3,3,3,0,0,0,0,,,,,,,,,0,0,0,0,0,1,1,1,,,,,,,,,,,,,,,,,,,,,,,,,,,,,,,,,,,,,,,,,,,,330.26288629099963,334.8147367669999,,,,,,,,,,,,,,,,,,,,,,,,,,,,,,,,,,,,,,,,,,,,,,,,,,,,,,,,,,,,,,,,,,013021,0,1,2,3,1,1,2,0,12,2021_Jan_30_1057,listening_fmri,3.2.4,60.181305329620734,
3,parcelated_audio/34/34_3.ogg,,,,,,,,,0,0,0,0,0,3,3,3,0,0,0,0,,,,,,,,,0,0,0,0,0,2,2,2,,,,,,,,,,,,,,,,,,,,,,,,,,,,,,,,,,,,,,,,,,,,334.81508142500024,339.451917419,,,,,,,,,,,,,,,,,,,,,,,,,,,,,,,,,,,,,,,,,,,,,,,,,,,,,,,,,,,,,,,,,,013021,0,1,2,3,1,1,2,0,12,2021_Jan_30_1057,listening_fmri,3.2.4,60.181305329620734,
3,parcelated_audio/34/34_4.ogg,,,,,,,,,0,0,0,0,0,3,3,3,0,0,0,0,,,,,,,,,0,0,0,0,0,3,3,3,,,,,,,,,,,,,,,,,,,,,,,,,,,,,,,,,,,,,,,,,,,,339.4523373209995,349.05985431499994,,,,,,,,,,,,,,,,,,,,,,,,,,,,,,,,,,,,,,,,,,,,,,,,,,,,,,,,,,,,,,,,,,013021,0,1,2,3,1,1,2,0,12,2021_Jan_30_1057,listening_fmri,3.2.4,60.181305329620734,
3,parcelated_audio/34/34_5.ogg,,,,,,,,,0,0,0,0,0,3,3,3,0,0,0,0,,,,,,,,,0,0,0,0,0,4,4,4,,,,,,,,,,,,,,,,,,,,,,,,,,,,,,,,,,,,,,,,,,,,349.0602070389996,359.47834578899983,,,,,,,,,,,,,,,,,,,,,,,,,,,,,,,,,,,,,,,,,,,,,,,,,,,,,,,,,,,,,,,,,,013021,0,1,2,3,1,1,2,0,12,2021_Jan_30_1057,listening_fmri,3.2.4,60.181305329620734,
3,parcelated_audio/34/34_6.ogg,,,,,,,,,0,0,0,0,0,3,3,3,0,0,0,0,,,,,,,,,0,0,0,0,0,5,5,5,,,,,,,,,,,,,,,,,,,,,,,,,,,,,,,,,,,,,,,,,,,,359.4787105659998,368.1877495560002,,,,,,,,,,,,,,,,,,,,,,,,,,,,,,,,,,,,,,,,,,,,,,,,,,,,,,,,,,,,,,,,,,013021,0,1,2,3,1,1,2,0,12,2021_Jan_30_1057,listening_fmri,3.2.4,60.181305329620734,
3,parcelated_audio/34/34_7.ogg,,,,,,,,,0,0,0,0,0,3,3,3,0,0,0,0,,,,,,,,,0,0,0,0,0,6,6,6,,,,,,,,,,,,,,,,,,,,,,,,,,,,,,,,,,,,,,,,,,,,368.18815883299976,374.1803281049997,,,,,,,,,,,,,,,,,,,,,,,,,,,,,,,,,,,,,,,,,,,,,,,,,,,,,,,,,,,,,,,,,,013021,0,1,2,3,1,1,2,0,12,2021_Jan_30_1057,listening_fmri,3.2.4,60.181305329620734,
3,parcelated_audio/34/34_8.ogg,,,,,,,,,0,0,0,0,0,3,3,3,0,0,0,0,,,,,,,,,0,0,0,0,0,7,7,7,,,,,,,,,,,,,,,,,,,,,,,,,,,,,,,,,,,,,,,,,,,,374.1816164330003,382.15594986700034,,,,,,,,,,,,,,,,,,,,,,,,,,,,,,,,,,,,,,,,,,,,,,,,,,,,,,,,,,,,,,,,,,013021,0,1,2,3,1,1,2,0,12,2021_Jan_30_1057,listening_fmri,3.2.4,60.181305329620734,
3,parcelated_audio/34/34_9.ogg,,,,,,,,,0,0,0,0,0,3,3,3,0,0,0,0,,,,,,,,,0,0,0,0,0,8,8,8,,,,,,,,,,,,,,,,,,,,,,,,,,,,,,,,,,,,,,,,,,,,382.1563651340002,386.9393923609996,,,,,,,,,,,,,,,,,,,,,,,,,,,,,,,,,,,,,,,,,,,,,,,,,,,,,,,,,,,,,,,,,,013021,0,1,2,3,1,1,2,0,12,2021_Jan_30_1057,listening_fmri,3.2.4,60.181305329620734,
3,parcelated_audio/34/34_10.ogg,,,,,,,,,0,0,0,0,0,3,3,3,0,0,0,0,,,,,,,,,0,0,0,0,0,9,9,9,,,,,,,,,,,,,,,,,,,,,,,,,,,,,,,,,,,,,,,,,,,,386.93985940400034,394.0480312620002,,,,,,,,,,,,,,,,,,,,,,,,,,,,,,,,,,,,,,,,,,,,,,,,,,,,,,,,,,,,,,,,,,013021,0,1,2,3,1,1,2,0,12,2021_Jan_30_1057,listening_fmri,3.2.4,60.181305329620734,
3,parcelated_audio/34/34_11.ogg,,,,,,,,,0,0,0,0,0,3,3,3,0,0,0,0,,,,,,,,,0,0,0,0,0,10,10,10,,,,,,,,,,,,,,,,,,,,,,,,,,,,,,,,,,,,,,,,,,,,394.0486012479996,397.4864956860001,,,,,,,,,,,,,,,,,,,,,,,,,,,,,,,,,,,,,,,,,,,,,,,,,,,,,,,,,,,,,,,,,,013021,0,1,2,3,1,1,2,0,12,2021_Jan_30_1057,listening_fmri,3.2.4,60.181305329620734,
3,parcelated_audio/34/34_12.ogg,,,,,,,,,0,0,0,0,0,3,3,3,0,0,0,0,,,,,,,,,0,0,0,0,0,11,11,11,,,,,,,,,,,,,,,,,,,,,,,,,,,,,,,,,,,,,,,,,,,,397.48686127200017,405.64294255299956,,,,,,,,,,,,,,,,,,,,,,,,,,,,,,,,,,,,,,,,,,,,,,,,,,,,,,,,,,,,,,,,,,013021,0,1,2,3,1,1,2,0,12,2021_Jan_30_1057,listening_fmri,3.2.4,60.181305329620734,
3,parcelated_audio/34/34_13.ogg,,,,,,,,,0,0,0,0,0,3,3,3,0,0,0,0,,,,,,,,,0,0,0,0,0,12,12,12,,,,,,,,,,,,,,,,,,,,,,,,,,,,,,,,,,,,,,,,,,,,405.6432902910001,409.6260013729998,,,,,,,,,,,,,,,,,,,,,,,,,,,,,,,,,,,,,,,,,,,,,,,,,,,,,,,,,,,,,,,,,,013021,0,1,2,3,1,1,2,0,12,2021_Jan_30_1057,listening_fmri,3.2.4,60.181305329620734,
3,parcelated_audio/34/34_14.ogg,,,,,,,,,0,0,0,0,0,3,3,3,0,0,0,0,,,,,,,,,0,0,0,0,0,13,13,13,,,,,,,,,,,,,,,,,,,,,,,,,,,,,,,,,,,,,,,,,,,,409.62717258999965,414.2707981779995,,,,,,,,,,,,,,,,,,,,,,,,,,,,,,,,,,,,,,,,,,,,,,,,,,,,,,,,,,,,,,,,,,013021,0,1,2,3,1,1,2,0,12,2021_Jan_30_1057,listening_fmri,3.2.4,60.181305329620734,
3,parcelated_audio/34/34_15.ogg,,,,,,,,,0,0,0,0,0,3,3,3,0,0,0,0,,,,,,,,,0,0,0,0,0,14,14,14,,,,,,,,,,,,,,,,,,,,,,,,,,,,,,,,,,,,,,,,,,,,414.27112011200006,418.47599137900033,,,,,,,,,,,,,,,,,,,,,,,,,,,,,,,,,,,,,,,,,,,,,,,,,,,,,,,,,,,,,,,,,,013021,0,1,2,3,1,1,2,0,12,2021_Jan_30_1057,listening_fmri,3.2.4,60.181305329620734,
3,parcelated_audio/34/34_16.ogg,,,,,,,,,0,0,0,0,0,3,3,3,0,0,0,0,,,,,,,,,0,0,0,0,0,15,15,15,,,,,,,,,,,,,,,,,,,,,,,,,,,,,,,,,,,,,,,,,,,,418.4764964340002,431.47589234099996,,,,,,,,,,,,,,,,,,,,,,,,,,,,,,,,,,,,,,,,,,,,,,,,,,,,,,,,,,,,,,,,,,013021,0,1,2,3,1,1,2,0,12,2021_Jan_30_1057,listening_fmri,3.2.4,60.181305329620734,
3,parcelated_audio/34/34_17.ogg,,,,,,,,,0,0,0,0,0,3,3,3,0,0,0,0,,,,,,,,,0,0,0,0,0,16,16,16,,,,,,,,,,,,,,,,,,,,,,,,,,,,,,,,,,,,,,,,,,,,431.47663959700003,440.39838831399993,,,,,,,,,,,,,,,,,,,,,,,,,,,,,,,,,,,,,,,,,,,,,,,,,,,,,,,,,,,,,,,,,,013021,0,1,2,3,1,1,2,0,12,2021_Jan_30_1057,listening_fmri,3.2.4,60.181305329620734,
3,parcelated_audio/34/34_18.ogg,,,,,,,,,0,0,0,0,0,3,3,3,0,0,0,0,,,,,,,,,0,0,0,0,0,17,17,17,,,,,,,,,,,,,,,,,,,,,,,,,,,,,,,,,,,,,,,,,,,,440.39874006399987,446.2811296919999,,,,,,,,,,,,,,,,,,,,,,,,,,,,,,,,,,,,,,,,,,,,,,,,,,,,,,,,,,,,,,,,,,013021,0,1,2,3,1,1,2,0,12,2021_Jan_30_1057,listening_fmri,3.2.4,60.181305329620734,
3,parcelated_audio/34/34_19.ogg,,,,,,,,,0,0,0,0,0,3,3,3,0,0,0,0,,,,,,,,,0,0,0,0,0,18,18,18,,,,,,,,,,,,,,,,,,,,,,,,,,,,,,,,,,,,,,,,,,,,446.281581921,452.49785946500015,,,,,,,,,,,,,,,,,,,,,,,,,,,,,,,,,,,,,,,,,,,,,,,,,,,,,,,,,,,,,,,,,,013021,0,1,2,3,1,1,2,0,12,2021_Jan_30_1057,listening_fmri,3.2.4,60.181305329620734,
3,parcelated_audio/34/34_20.ogg,,,,,,,,,0,0,0,0,0,3,3,3,0,0,0,0,,,,,,,,,0,0,0,0,0,19,19,19,,,,,,,,,,,,,,,,,,,,,,,,,,,,,,,,,,,,,,,,,,,,452.49820011799966,460.955374913,,,,,,,,,,,,,,,,,,,,,,,,,,,,,,,,,,,,,,,,,,,,,,,,,,,,,,,,,,,,,,,,,,013021,0,1,2,3,1,1,2,0,12,2021_Jan_30_1057,listening_fmri,3.2.4,60.181305329620734,
3,parcelated_audio/34/34_21.ogg,,,,,,,,,0,0,0,0,0,3,3,3,0,0,0,0,,,,,,,,,0,0,0,0,0,20,20,20,,,,,,,,,,,,,,,,,,,,,,,,,,,,,,,,,,,,,,,,,,,,460.9557930109995,467.32061256700035,,,,,,,,,,,,,,,,,,,,,,,,,,,,,,,,,,,,,,,,,,,,,,,,,,,,,,,,,,,,,,,,,,013021,0,1,2,3,1,1,2,0,12,2021_Jan_30_1057,listening_fmri,3.2.4,60.181305329620734,
3,parcelated_audio/34/34_22.ogg,,,,,,,,,0,0,0,0,0,3,3,3,0,0,0,0,,,,,,,,,0,0,0,0,0,21,21,21,,,,,,,,,,,,,,,,,,,,,,,,,,,,,,,,,,,,,,,,,,,,467.32097683200027,472.44692209499954,,,,,,,,,,,,,,,,,,,,,,,,,,,,,,,,,,,,,,,,,,,,,,,,,,,,,,,,,,,,,,,,,,013021,0,1,2,3,1,1,2,0,12,2021_Jan_30_1057,listening_fmri,3.2.4,60.181305329620734,
3,parcelated_audio/34/34_23.ogg,,,,,,,,,0,0,0,0,0,3,3,3,0,0,0,0,,,,,,,,,0,0,0,0,0,22,22,22,,,,,,,,,,,,,,,,,,,,,,,,,,,,,,,,,,,,,,,,,,,,472.44736170099986,480.2450254770001,,,,,,,,,,,,,,,,,,,,,,,,,,,,,,,,,,,,,,,,,,,,,,,,,,,,,,,,,,,,,,,,,,013021,0,1,2,3,1,1,2,0,12,2021_Jan_30_1057,listening_fmri,3.2.4,60.181305329620734,
3,parcelated_audio/34/34_24.ogg,,,,,,,,,0,0,0,0,0,3,3,3,0,0,0,0,,,,,,,,,0,0,0,0,0,23,23,23,,,,,,,,,,,,,,,,,,,,,,,,,,,,,,,,,,,,,,,,,,,,480.2453377619995,486.04142771900024,,,,,,,,,,,,,,,,,,,,,,,,,,,,,,,,,,,,,,,,,,,,,,,,,,,,,,,,,,,,,,,,,,013021,0,1,2,3,1,1,2,0,12,2021_Jan_30_1057,listening_fmri,3.2.4,60.181305329620734,
3,parcelated_audio/34/34_25.ogg,,,,,,,,,0,0,0,0,0,3,3,3,0,0,0,0,,,,,,,,,0,0,0,0,0,24,24,24,,,,,,,,,,,,,,,,,,,,,,,,,,,,,,,,,,,,,,,,,,,,486.0417561289996,492.6150221179996,,,,,,,,,,,,,,,,,,,,,,,,,,,,,,,,,,,,,,,,,,,,,,,,,,,,,,,,,,,,,,,,,,013021,0,1,2,3,1,1,2,0,12,2021_Jan_30_1057,listening_fmri,3.2.4,60.181305329620734,
3,parcelated_audio/34/34_26.ogg,,,,,,,,,0,0,0,0,0,3,3,3,0,0,0,0,,,,,,,,,0,0,0,0,0,25,25,25,,,,,,,,,,,,,,,,,,,,,,,,,,,,,,,,,,,,,,,,,,,,492.6154854839997,502.2733141529998,,,,,,,,,,,,,,,,,,,,,,,,,,,,,,,,,,,,,,,,,,,,,,,,,,,,,,,,,,,,,,,,,,013021,0,1,2,3,1,1,2,0,12,2021_Jan_30_1057,listening_fmri,3.2.4,60.181305329620734,
3,parcelated_audio/34/34_27.ogg,,,,,,,,,0,0,0,0,0,3,3,3,0,0,0,0,,,,,,,,,0,0,0,0,0,26,26,26,,,,,,,,,,,,,,,,,,,,,,,,,,,,,,,,,,,,,,,,,,,,502.2738502049997,509.774803671,,,,,,,,,,,,,,,,,,,,,,,,,,,,,,,,,,,,,,,,,,,,,,,,,,,,,,,,,,,,,,,,,,013021,0,1,2,3,1,1,2,0,12,2021_Jan_30_1057,listening_fmri,3.2.4,60.181305329620734,
3,,,,,,,,,,0,0,0,0,0,3,3,3,0,0,0,0,,,,,,,,,0,0,0,0,,,,,,,,,,,,,,,,,,,,,,,,,,,,,,,,,,,,,,,,,,,,,,,,,,,,,,,,,,,,,,,,,,,,,,,,,,,,,,,,,,,,,,,,,,,,,,,,,,,,,,,,,,,,,,,,,,,013021,0,1,2,3,1,1,2,0,12,2021_Jan_30_1057,listening_fmri,3.2.4,60.181305329620734,
3,,,,,,,,,,0,0,0,0,0,3,3,3,0,0,0,0,,,,,,,,,,,,,,,,,,,,,,,,,,,,,,,,,,,,,,509.7753639370003,515.774127357,684.5283343229994,None,,,,,,,,,,,,,,,,,,,,,690.5290647279999,None,690.5290647279999,None,,,,,,,,,,,,,,,,,,,,,,,,,,,,,,,,,,,,,,,,,,,,,,,,,,,,,,,,,,,,,,013021,0,1,2,3,1,1,2,0,12,2021_Jan_30_1057,listening_fmri,3.2.4,60.181305329620734,
3,,,,,,,,,,0,0,0,0,0,3,3,3,,,,,,,,,,,,,,,,,,,,,,,,,,,,,,,,,,,,,,,,,,,,,,,,,,,,,,,,,,,,,,,,,,,,,,,,,,,,,,,,,,,,,,,,,,,,,,,,,,,,,,,,,,,,,,,,,,,,,,,,,,,,,,,,,,,013021,0,1,2,3,1,1,2,0,12,2021_Jan_30_1057,listening_fmri,3.2.4,60.181305329620734,
4,parcelated_audio/41/41_1.ogg,,,,,,,,,0,0,0,0,0,4,4,4,0,0,0,0,,,,,,,,,0,0,0,0,0,0,0,0,,,,,,,,,,,,,,,,,,,,,,,,,,691.5455640989994,None,691.5455640989994,None,2,0.14682860900029482,691.5455640989994,None,691.5455640989994,None,691.7122357439994,None,2,2.0631524649998028,691.7122357439994,None,519.048996218,522.0573421219997,522.0682765669999,531.1720397469999,,,,,,,,,,,,,,,,,,,,,,,,,,,,,,,,,,,,,,,,,,,,,,,,,,,,,,,,,,,,,,,,,,013021,0,1,2,3,1,1,2,0,12,2021_Jan_30_1057,listening_fmri,3.2.4,60.181305329620734,
4,parcelated_audio/41/41_2.ogg,,,,,,,,,0,0,0,0,0,4,4,4,0,0,0,0,,,,,,,,,0,0,0,0,0,1,1,1,,,,,,,,,,,,,,,,,,,,,,,,,,,,,,,,,,,,,,,,,,,,531.1723909869997,538.4220415780001,,,,,,,,,,,,,,,,,,,,,,,,,,,,,,,,,,,,,,,,,,,,,,,,,,,,,,,,,,,,,,,,,,013021,0,1,2,3,1,1,2,0,12,2021_Jan_30_1057,listening_fmri,3.2.4,60.181305329620734,
4,parcelated_audio/41/41_3.ogg,,,,,,,,,0,0,0,0,0,4,4,4,0,0,0,0,,,,,,,,,0,0,0,0,0,2,2,2,,,,,,,,,,,,,,,,,,,,,,,,,,,,,,,,,,,,,,,,,,,,538.4223941130003,542.7210127079998,,,,,,,,,,,,,,,,,,,,,,,,,,,,,,,,,,,,,,,,,,,,,,,,,,,,,,,,,,,,,,,,,,013021,0,1,2,3,1,1,2,0,12,2021_Jan_30_1057,listening_fmri,3.2.4,60.181305329620734,
4,parcelated_audio/41/41_4.ogg,,,,,,,,,0,0,0,0,0,4,4,4,0,0,0,0,,,,,,,,,0,0,0,0,0,3,3,3,,,,,,,,,,,,,,,,,,,,,,,,,,,,,,,,,,,,,,,,,,,,542.7222934029996,546.68359186,,,,,,,,,,,,,,,,,,,,,,,,,,,,,,,,,,,,,,,,,,,,,,,,,,,,,,,,,,,,,,,,,,013021,0,1,2,3,1,1,2,0,12,2021_Jan_30_1057,listening_fmri,3.2.4,60.181305329620734,
4,parcelated_audio/41/41_5.ogg,,,,,,,,,0,0,0,0,0,4,4,4,0,0,0,0,,,,,,,,,0,0,0,0,0,4,4,4,,,,,,,,,,,,,,,,,,,,,,,,,,,,,,,,,,,,,,,,,,,,546.6839570869997,552.8031254799998,,,,,,,,,,,,,,,,,,,,,,,,,,,,,,,,,,,,,,,,,,,,,,,,,,,,,,,,,,,,,,,,,,013021,0,1,2,3,1,1,2,0,12,2021_Jan_30_1057,listening_fmri,3.2.4,60.181305329620734,
4,parcelated_audio/41/41_6.ogg,,,,,,,,,0,0,0,0,0,4,4,4,0,0,0,0,,,,,,,,,0,0,0,0,0,5,5,5,,,,,,,,,,,,,,,,,,,,,,,,,,,,,,,,,,,,,,,,,,,,552.8036372420001,562.8230989369995,,,,,,,,,,,,,,,,,,,,,,,,,,,,,,,,,,,,,,,,,,,,,,,,,,,,,,,,,,,,,,,,,,013021,0,1,2,3,1,1,2,0,12,2021_Jan_30_1057,listening_fmri,3.2.4,60.181305329620734,
4,parcelated_audio/41/41_7.ogg,,,,,,,,,0,0,0,0,0,4,4,4,0,0,0,0,,,,,,,,,0,0,0,0,0,6,6,6,,,,,,,,,,,,,,,,,,,,,,,,,,,,,,,,,,,,,,,,,,,,562.8233540600004,570.5550493649998,,,,,,,,,,,,,,,,,,,,,,,,,,,,,,,,,,,,,,,,,,,,,,,,,,,,,,,,,,,,,,,,,,013021,0,1,2,3,1,1,2,0,12,2021_Jan_30_1057,listening_fmri,3.2.4,60.181305329620734,
4,parcelated_audio/41/41_8.ogg,,,,,,,,,0,0,0,0,0,4,4,4,0,0,0,0,,,,,,,,,0,0,0,0,0,7,7,7,,,,,,,,,,,,,,,,,,,,,,,,,,,,,,,,,,,,,,,,,,,,570.5553984950002,574.7941357399995,,,,,,,,,,,,,,,,,,,,,,,,,,,,,,,,,,,,,,,,,,,,,,,,,,,,,,,,,,,,,,,,,,013021,0,1,2,3,1,1,2,0,12,2021_Jan_30_1057,listening_fmri,3.2.4,60.181305329620734,
4,parcelated_audio/41/41_9.ogg,,,,,,,,,0,0,0,0,0,4,4,4,0,0,0,0,,,,,,,,,0,0,0,0,0,8,8,8,,,,,,,,,,,,,,,,,,,,,,,,,,,,,,,,,,,,,,,,,,,,574.7945525819996,584.4483653939997,,,,,,,,,,,,,,,,,,,,,,,,,,,,,,,,,,,,,,,,,,,,,,,,,,,,,,,,,,,,,,,,,,013021,0,1,2,3,1,1,2,0,12,2021_Jan_30_1057,listening_fmri,3.2.4,60.181305329620734,
4,parcelated_audio/41/41_10.ogg,,,,,,,,,0,0,0,0,0,4,4,4,0,0,0,0,,,,,,,,,0,0,0,0,0,9,9,9,,,,,,,,,,,,,,,,,,,,,,,,,,,,,,,,,,,,,,,,,,,,584.4487202820001,590.9629816260003,,,,,,,,,,,,,,,,,,,,,,,,,,,,,,,,,,,,,,,,,,,,,,,,,,,,,,,,,,,,,,,,,,013021,0,1,2,3,1,1,2,0,12,2021_Jan_30_1057,listening_fmri,3.2.4,60.181305329620734,
4,parcelated_audio/41/41_11.ogg,,,,,,,,,0,0,0,0,0,4,4,4,0,0,0,0,,,,,,,,,0,0,0,0,0,10,10,10,,,,,,,,,,,,,,,,,,,,,,,,,,,,,,,,,,,,,,,,,,,,590.9633335970002,594.7290358049995,,,,,,,,,,,,,,,,,,,,,,,,,,,,,,,,,,,,,,,,,,,,,,,,,,,,,,,,,,,,,,,,,,013021,0,1,2,3,1,1,2,0,12,2021_Jan_30_1057,listening_fmri,3.2.4,60.181305329620734,
4,parcelated_audio/41/41_12.ogg,,,,,,,,,0,0,0,0,0,4,4,4,0,0,0,0,,,,,,,,,0,0,0,0,0,11,11,11,,,,,,,,,,,,,,,,,,,,,,,,,,,,,,,,,,,,,,,,,,,,594.7294863759998,604.4665524399998,,,,,,,,,,,,,,,,,,,,,,,,,,,,,,,,,,,,,,,,,,,,,,,,,,,,,,,,,,,,,,,,,,013021,0,1,2,3,1,1,2,0,12,2021_Jan_30_1057,listening_fmri,3.2.4,60.181305329620734,
4,parcelated_audio/41/41_13.ogg,,,,,,,,,0,0,0,0,0,4,4,4,0,0,0,0,,,,,,,,,0,0,0,0,0,12,12,12,,,,,,,,,,,,,,,,,,,,,,,,,,,,,,,,,,,,,,,,,,,,604.4669003709996,610.2784739460003,,,,,,,,,,,,,,,,,,,,,,,,,,,,,,,,,,,,,,,,,,,,,,,,,,,,,,,,,,,,,,,,,,013021,0,1,2,3,1,1,2,0,12,2021_Jan_30_1057,listening_fmri,3.2.4,60.181305329620734,
4,parcelated_audio/41/41_14.ogg,,,,,,,,,0,0,0,0,0,4,4,4,0,0,0,0,,,,,,,,,0,0,0,0,0,13,13,13,,,,,,,,,,,,,,,,,,,,,,,,,,,,,,,,,,,,,,,,,,,,610.2789406009997,617.5072142620002,,,,,,,,,,,,,,,,,,,,,,,,,,,,,,,,,,,,,,,,,,,,,,,,,,,,,,,,,,,,,,,,,,013021,0,1,2,3,1,1,2,0,12,2021_Jan_30_1057,listening_fmri,3.2.4,60.181305329620734,
4,parcelated_audio/41/41_15.ogg,,,,,,,,,0,0,0,0,0,4,4,4,0,0,0,0,,,,,,,,,0,0,0,0,0,14,14,14,,,,,,,,,,,,,,,,,,,,,,,,,,,,,,,,,,,,,,,,,,,,617.5076674709999,620.9318345310003,,,,,,,,,,,,,,,,,,,,,,,,,,,,,,,,,,,,,,,,,,,,,,,,,,,,,,,,,,,,,,,,,,013021,0,1,2,3,1,1,2,0,12,2021_Jan_30_1057,listening_fmri,3.2.4,60.181305329620734,
4,parcelated_audio/41/41_16.ogg,,,,,,,,,0,0,0,0,0,4,4,4,0,0,0,0,,,,,,,,,0,0,0,0,0,15,15,15,,,,,,,,,,,,,,,,,,,,,,,,,,,,,,,,,,,,,,,,,,,,620.9322873749998,625.7932161030003,,,,,,,,,,,,,,,,,,,,,,,,,,,,,,,,,,,,,,,,,,,,,,,,,,,,,,,,,,,,,,,,,,013021,0,1,2,3,1,1,2,0,12,2021_Jan_30_1057,listening_fmri,3.2.4,60.181305329620734,
4,parcelated_audio/41/41_17.ogg,,,,,,,,,0,0,0,0,0,4,4,4,0,0,0,0,,,,,,,,,0,0,0,0,0,16,16,16,,,,,,,,,,,,,,,,,,,,,,,,,,,,,,,,,,,,,,,,,,,,625.7935657460002,629.9856633640002,,,,,,,,,,,,,,,,,,,,,,,,,,,,,,,,,,,,,,,,,,,,,,,,,,,,,,,,,,,,,,,,,,013021,0,1,2,3,1,1,2,0,12,2021_Jan_30_1057,listening_fmri,3.2.4,60.181305329620734,
4,parcelated_audio/41/41_18.ogg,,,,,,,,,0,0,0,0,0,4,4,4,0,0,0,0,,,,,,,,,0,0,0,0,0,17,17,17,,,,,,,,,,,,,,,,,,,,,,,,,,,,,,,,,,,,,,,,,,,,629.9859848380001,632.5070119889997,,,,,,,,,,,,,,,,,,,,,,,,,,,,,,,,,,,,,,,,,,,,,,,,,,,,,,,,,,,,,,,,,,013021,0,1,2,3,1,1,2,0,12,2021_Jan_30_1057,listening_fmri,3.2.4,60.181305329620734,
4,parcelated_audio/41/41_19.ogg,,,,,,,,,0,0,0,0,0,4,4,4,0,0,0,0,,,,,,,,,0,0,0,0,0,18,18,18,,,,,,,,,,,,,,,,,,,,,,,,,,,,,,,,,,,,,,,,,,,,632.5074665559996,639.3959826990003,,,,,,,,,,,,,,,,,,,,,,,,,,,,,,,,,,,,,,,,,,,,,,,,,,,,,,,,,,,,,,,,,,013021,0,1,2,3,1,1,2,0,12,2021_Jan_30_1057,listening_fmri,3.2.4,60.181305329620734,
4,parcelated_audio/41/41_20.ogg,,,,,,,,,0,0,0,0,0,4,4,4,0,0,0,0,,,,,,,,,0,0,0,0,0,19,19,19,,,,,,,,,,,,,,,,,,,,,,,,,,,,,,,,,,,,,,,,,,,,639.396334049,644.327009998,,,,,,,,,,,,,,,,,,,,,,,,,,,,,,,,,,,,,,,,,,,,,,,,,,,,,,,,,,,,,,,,,,013021,0,1,2,3,1,1,2,0,12,2021_Jan_30_1057,listening_fmri,3.2.4,60.181305329620734,
4,parcelated_audio/41/41_21.ogg,,,,,,,,,0,0,0,0,0,4,4,4,0,0,0,0,,,,,,,,,0,0,0,0,0,20,20,20,,,,,,,,,,,,,,,,,,,,,,,,,,,,,,,,,,,,,,,,,,,,644.3273190849995,652.1582521849996,,,,,,,,,,,,,,,,,,,,,,,,,,,,,,,,,,,,,,,,,,,,,,,,,,,,,,,,,,,,,,,,,,013021,0,1,2,3,1,1,2,0,12,2021_Jan_30_1057,listening_fmri,3.2.4,60.181305329620734,
4,parcelated_audio/41/41_22.ogg,,,,,,,,,0,0,0,0,0,4,4,4,0,0,0,0,,,,,,,,,0,0,0,0,0,21,21,21,,,,,,,,,,,,,,,,,,,,,,,,,,,,,,,,,,,,,,,,,,,,652.1585336970002,667.9550553199997,,,,,,,,,,,,,,,,,,,,,,,,,,,,,,,,,,,,,,,,,,,,,,,,,,,,,,,,,,,,,,,,,,013021,0,1,2,3,1,1,2,0,12,2021_Jan_30_1057,listening_fmri,3.2.4,60.181305329620734,
4,parcelated_audio/41/41_23.ogg,,,,,,,,,0,0,0,0,0,4,4,4,0,0,0,0,,,,,,,,,0,0,0,0,0,22,22,22,,,,,,,,,,,,,,,,,,,,,,,,,,,,,,,,,,,,,,,,,,,,667.9554072250003,674.046612391,,,,,,,,,,,,,,,,,,,,,,,,,,,,,,,,,,,,,,,,,,,,,,,,,,,,,,,,,,,,,,,,,,013021,0,1,2,3,1,1,2,0,12,2021_Jan_30_1057,listening_fmri,3.2.4,60.181305329620734,
4,parcelated_audio/41/41_24.ogg,,,,,,,,,0,0,0,0,0,4,4,4,0,0,0,0,,,,,,,,,0,0,0,0,0,23,23,23,,,,,,,,,,,,,,,,,,,,,,,,,,,,,,,,,,,,,,,,,,,,674.046962337,680.6970624750002,,,,,,,,,,,,,,,,,,,,,,,,,,,,,,,,,,,,,,,,,,,,,,,,,,,,,,,,,,,,,,,,,,013021,0,1,2,3,1,1,2,0,12,2021_Jan_30_1057,listening_fmri,3.2.4,60.181305329620734,
4,parcelated_audio/41/41_25.ogg,,,,,,,,,0,0,0,0,0,4,4,4,0,0,0,0,,,,,,,,,0,0,0,0,0,24,24,24,,,,,,,,,,,,,,,,,,,,,,,,,,,,,,,,,,,,,,,,,,,,680.6975740739999,684.072862899,,,,,,,,,,,,,,,,,,,,,,,,,,,,,,,,,,,,,,,,,,,,,,,,,,,,,,,,,,,,,,,,,,013021,0,1,2,3,1,1,2,0,12,2021_Jan_30_1057,listening_fmri,3.2.4,60.181305329620734,
4,parcelated_audio/41/41_26.ogg,,,,,,,,,0,0,0,0,0,4,4,4,0,0,0,0,,,,,,,,,0,0,0,0,0,25,25,25,,,,,,,,,,,,,,,,,,,,,,,,,,,,,,,,,,,,,,,,,,,,684.0733736769998,689.5890212470003,,,,,,,,,,,,,,,,,,,,,,,,,,,,,,,,,,,,,,,,,,,,,,,,,,,,,,,,,,,,,,,,,,013021,0,1,2,3,1,1,2,0,12,2021_Jan_30_1057,listening_fmri,3.2.4,60.181305329620734,
4,parcelated_audio/41/41_27.ogg,,,,,,,,,0,0,0,0,0,4,4,4,0,0,0,0,,,,,,,,,0,0,0,0,0,26,26,26,,,,,,,,,,,,,,,,,,,,,,,,,,,,,,,,,,,,,,,,,,,,689.5893578260002,693.4547775729998,,,,,,,,,,,,,,,,,,,,,,,,,,,,,,,,,,,,,,,,,,,,,,,,,,,,,,,,,,,,,,,,,,013021,0,1,2,3,1,1,2,0,12,2021_Jan_30_1057,listening_fmri,3.2.4,60.181305329620734,
4,parcelated_audio/41/41_28.ogg,,,,,,,,,0,0,0,0,0,4,4,4,0,0,0,0,,,,,,,,,0,0,0,0,0,27,27,27,,,,,,,,,,,,,,,,,,,,,,,,,,,,,,,,,,,,,,,,,,,,693.4581117730004,701.8155281270001,,,,,,,,,,,,,,,,,,,,,,,,,,,,,,,,,,,,,,,,,,,,,,,,,,,,,,,,,,,,,,,,,,013021,0,1,2,3,1,1,2,0,12,2021_Jan_30_1057,listening_fmri,3.2.4,60.181305329620734,
4,parcelated_audio/41/41_29.ogg,,,,,,,,,0,0,0,0,0,4,4,4,0,0,0,0,,,,,,,,,0,0,0,0,0,28,28,28,,,,,,,,,,,,,,,,,,,,,,,,,,,,,,,,,,,,,,,,,,,,701.815777238,708.4305508239995,,,,,,,,,,,,,,,,,,,,,,,,,,,,,,,,,,,,,,,,,,,,,,,,,,,,,,,,,,,,,,,,,,013021,0,1,2,3,1,1,2,0,12,2021_Jan_30_1057,listening_fmri,3.2.4,60.181305329620734,
4,parcelated_audio/41/41_30.ogg,,,,,,,,,0,0,0,0,0,4,4,4,0,0,0,0,,,,,,,,,0,0,0,0,0,29,29,29,,,,,,,,,,,,,,,,,,,,,,,,,,,,,,,,,,,,,,,,,,,,708.4309670679995,717.1392481459998,,,,,,,,,,,,,,,,,,,,,,,,,,,,,,,,,,,,,,,,,,,,,,,,,,,,,,,,,,,,,,,,,,013021,0,1,2,3,1,1,2,0,12,2021_Jan_30_1057,listening_fmri,3.2.4,60.181305329620734,
4,parcelated_audio/41/41_31.ogg,,,,,,,,,0,0,0,0,0,4,4,4,0,0,0,0,,,,,,,,,0,0,0,0,0,30,30,30,,,,,,,,,,,,,,,,,,,,,,,,,,,,,,,,,,,,,,,,,,,,717.1396137940001,727.8785160369998,,,,,,,,,,,,,,,,,,,,,,,,,,,,,,,,,,,,,,,,,,,,,,,,,,,,,,,,,,,,,,,,,,013021,0,1,2,3,1,1,2,0,12,2021_Jan_30_1057,listening_fmri,3.2.4,60.181305329620734,
4,parcelated_audio/41/41_32.ogg,,,,,,,,,0,0,0,0,0,4,4,4,0,0,0,0,,,,,,,,,0,0,0,0,0,31,31,31,,,,,,,,,,,,,,,,,,,,,,,,,,,,,,,,,,,,,,,,,,,,727.8788680219996,736.2221154030003,,,,,,,,,,,,,,,,,,,,,,,,,,,,,,,,,,,,,,,,,,,,,,,,,,,,,,,,,,,,,,,,,,013021,0,1,2,3,1,1,2,0,12,2021_Jan_30_1057,listening_fmri,3.2.4,60.181305329620734,
4,parcelated_audio/41/41_33.ogg,,,,,,,,,0,0,0,0,0,4,4,4,0,0,0,0,,,,,,,,,0,0,0,0,0,32,32,32,,,,,,,,,,,,,,,,,,,,,,,,,,,,,,,,,,,,,,,,,,,,736.2224641040002,740.296827962,,,,,,,,,,,,,,,,,,,,,,,,,,,,,,,,,,,,,,,,,,,,,,,,,,,,,,,,,,,,,,,,,,013021,0,1,2,3,1,1,2,0,12,2021_Jan_30_1057,listening_fmri,3.2.4,60.181305329620734,
4,parcelated_audio/41/41_34.ogg,,,,,,,,,0,0,0,0,0,4,4,4,0,0,0,0,,,,,,,,,0,0,0,0,0,33,33,33,,,,,,,,,,,,,,,,,,,,,,,,,,,,,,,,,,,,,,,,,,,,740.2975082739995,745.8172681870001,,,,,,,,,,,,,,,,,,,,,,,,,,,,,,,,,,,,,,,,,,,,,,,,,,,,,,,,,,,,,,,,,,013021,0,1,2,3,1,1,2,0,12,2021_Jan_30_1057,listening_fmri,3.2.4,60.181305329620734,
4,parcelated_audio/41/41_35.ogg,,,,,,,,,0,0,0,0,0,4,4,4,0,0,0,0,,,,,,,,,0,0,0,0,0,34,34,34,,,,,,,,,,,,,,,,,,,,,,,,,,,,,,,,,,,,,,,,,,,,745.8176166439998,751.3771696189997,,,,,,,,,,,,,,,,,,,,,,,,,,,,,,,,,,,,,,,,,,,,,,,,,,,,,,,,,,,,,,,,,,013021,0,1,2,3,1,1,2,0,12,2021_Jan_30_1057,listening_fmri,3.2.4,60.181305329620734,
4,parcelated_audio/41/41_36.ogg,,,,,,,,,0,0,0,0,0,4,4,4,0,0,0,0,,,,,,,,,0,0,0,0,0,35,35,35,,,,,,,,,,,,,,,,,,,,,,,,,,,,,,,,,,,,,,,,,,,,751.3775174619996,758.3887958939995,,,,,,,,,,,,,,,,,,,,,,,,,,,,,,,,,,,,,,,,,,,,,,,,,,,,,,,,,,,,,,,,,,013021,0,1,2,3,1,1,2,0,12,2021_Jan_30_1057,listening_fmri,3.2.4,60.181305329620734,
4,parcelated_audio/41/41_37.ogg,,,,,,,,,0,0,0,0,0,4,4,4,0,0,0,0,,,,,,,,,0,0,0,0,0,36,36,36,,,,,,,,,,,,,,,,,,,,,,,,,,,,,,,,,,,,,,,,,,,,758.3893163639996,763.8861543330004,,,,,,,,,,,,,,,,,,,,,,,,,,,,,,,,,,,,,,,,,,,,,,,,,,,,,,,,,,,,,,,,,,013021,0,1,2,3,1,1,2,0,12,2021_Jan_30_1057,listening_fmri,3.2.4,60.181305329620734,
4,,,,,,,,,,0,0,0,0,0,4,4,4,0,0,0,0,,,,,,,,,0,0,0,0,,,,,,,,,,,,,,,,,,,,,,,,,,,,,,,,,,,,,,,,,,,,,,,,,,,,,,,,,,,,,,,,,,,,,,,,,,,,,,,,,,,,,,,,,,,,,,,,,,,,,,,,,,,,,,,,,,,013021,0,1,2,3,1,1,2,0,12,2021_Jan_30_1057,listening_fmri,3.2.4,60.181305329620734,
,,,,,,,,,,,,,,,,,,,,,,,,,,,,,,,,,,,,,,,,,,,,,,,,,,,,,,,,,,,763.8866514470001,769.8744781699997,938.6281772960001,None,,,,,,,,,,,,,,,,,,,,,944.629333717,None,944.629333717,None,,,,,,,,,,,,,,,,,,,,,,,,,,,,,,,,,,,,,,,,,,,,,,,,,,,,,,,,,,,,,,,,,,,,,,,,,,,,
﻿count,audio,trials_14.thisRepN,trials_14.thisTrialN,trials_14.thisN,trials_14.thisIndex,trials_3.thisRepN,trials_3.thisTrialN,trials_3.thisN,trials_3.thisIndex,trials_4.thisRepN,trials_4.thisTrialN,trials_4.thisN,trials_4.thisIndex,trials_6.thisRepN,trials_6.thisTrialN,trials_6.thisN,trials_6.thisIndex,trials_9.thisRepN,trials_9.thisTrialN,trials_9.thisN,trials_9.thisIndex,trials_10.thisRepN,trials_10.thisTrialN,trials_10.thisN,trials_10.thisIndex,trials_12.thisRepN,trials_12.thisTrialN,trials_12.thisN,trials_12.thisIndex,trials_25.thisRepN,trials_25.thisTrialN,trials_25.thisN,trials_25.thisIndex,trials_15.thisRepN,trials_15.thisTrialN,trials_15.thisN,trials_15.thisIndex,trials_26.thisRepN,trials_26.thisTrialN,trials_26.thisN,trials_26.thisIndex,trials_11.thisRepN,trials_11.thisTrialN,trials_11.thisN,trials_11.thisIndex,story_list_block2,action_list_block2,textTrigger.started,textTrigger.stopped,getTrigger.keys,getTrigger.rt,getTrigger.started,getTrigger.stopped,triggerTime,text_76.started,text_76.stopped,text_77.started,text_77.stopped,startWait,endWait,image_23.started,image_23.stopped,text_55.started,text_55.stopped,text_56.started,text_56.stopped,key_resp_2.keys,key_resp_2.rt,key_resp_2.started,key_resp_2.stopped,text_82.started,text_82.stopped,text_64.started,text_64.stopped,key_resp_20.keys,key_resp_20.rt,key_resp_20.started,key_resp_20.stopped,storyImage_StartTime,storyImage_EndTime,clip_StartTime,clip_EndTime,text_67.started,text_67.stopped,text_68.started,text_68.stopped,text_57.started,text_57.stopped,key_resp_17.keys,key_resp_17.rt,key_resp_17.started,key_resp_17.stopped,text_83.started,text_83.stopped,text_60.started,text_60.stopped,image_2.started,image_2.stopped,text_58.started,text_58.stopped,key_resp_23.keys,key_resp_23.rt,key_resp_23.started,key_resp_23.stopped,text_62.started,text_62.stopped,key_resp_18.keys,key_resp_18.rt,key_resp_18.started,key_resp_18.stopped,text_84.started,text_84.stopped,question1_2.started,question1_2.stopped,question2_2.started,question2_2.stopped,question3_2.started,question3_2.stopped,question4_2.started,question4_2.stopped,question5_2.started,question5_2.stopped,question6_2.started,question6_2.stopped,image_15.started,image_15.stopped,key_resp.keys,key_resp.started,key_resp.stopped,text_59.started,text_59.stopped,key_resp_19.keys,key_resp_19.rt,key_resp_19.started,key_resp_19.stopped,text_85.started,text_85.stopped,text_61.started,text_61.stopped,image_17.started,image_17.stopped,text_63.started,text_63.stopped,key_resp_24.keys,key_resp_24.rt,key_resp_24.started,key_resp_24.stopped,participant,sA,sB,lA,lB,block_struct,play_stories,block,behavioral,random_seed,date,expName,psychopyVersion,frameRate,
0,,,,,,,,,,0,0,0,0,0,0,0,0,,,,,,,,,,,,,,,,,,,,,,,,,,,,,[14 32 23 34 41 43 12 21],[3 4 3 2 4 2 1 1],14.338867014999778,None,equal,160.3924250099999,14.338867014999778,None,160.4152464939998,14.338867014999778,None,14.338867014999778,None,0.00045061000037094345,5.999108432999492,174.75349837399972,None,,,,,,,,,,,,,,,,,,,,,,,,,,,,,,,,,,,,,,,,,,,,,,,,,,,,,,,,,,,,,,,,,,,,,,,,,,,,,,,,,,,,,,013021,0,1,2,3,1,1,2,0,12,2021_Jan_30_1057,listening_fmri,3.2.4,60.181305329620734,
1,parcelated_audio/32/32_1.ogg,,,,,,,,,0,0,0,0,0,1,1,1,0,0,0,0,,,,,,,,,0,0,0,0,0,0,0,0,,,,,,,,,,,,,,,,,,,,,,,,,,180.76144122499954,None,180.76144122499954,None,7,1.5619318070002919,180.76144122499954,None,180.76144122499954,None,182.3446052019999,None,7,1.2506493199998658,182.3446052019999,None,8.882493021999835,11.890450484000212,11.895742095999594,23.273237792000145,,,,,,,,,,,,,,,,,,,,,,,,,,,,,,,,,,,,,,,,,,,,,,,,,,,,,,,,,,,,,,,,,,013021,0,1,2,3,1,1,2,0,12,2021_Jan_30_1057,listening_fmri,3.2.4,60.181305329620734,
1,parcelated_audio/32/32_2.ogg,,,,,,,,,0,0,0,0,0,1,1,1,0,0,0,0,,,,,,,,,0,0,0,0,0,1,1,1,,,,,,,,,,,,,,,,,,,,,,,,,,,,,,,,,,,,,,,,,,,,23.273585197000102,31.611510425999768,,,,,,,,,,,,,,,,,,,,,,,,,,,,,,,,,,,,,,,,,,,,,,,,,,,,,,,,,,,,,,,,,,013021,0,1,2,3,1,1,2,0,12,2021_Jan_30_1057,listening_fmri,3.2.4,60.181305329620734,
1,parcelated_audio/32/32_3.ogg,,,,,,,,,0,0,0,0,0,1,1,1,0,0,0,0,,,,,,,,,0,0,0,0,0,2,2,2,,,,,,,,,,,,,,,,,,,,,,,,,,,,,,,,,,,,,,,,,,,,31.61182867000025,37.18864657999984,,,,,,,,,,,,,,,,,,,,,,,,,,,,,,,,,,,,,,,,,,,,,,,,,,,,,,,,,,,,,,,,,,013021,0,1,2,3,1,1,2,0,12,2021_Jan_30_1057,listening_fmri,3.2.4,60.181305329620734,
1,parcelated_audio/32/32_4.ogg,,,,,,,,,0,0,0,0,0,1,1,1,0,0,0,0,,,,,,,,,0,0,0,0,0,3,3,3,,,,,,,,,,,,,,,,,,,,,,,,,,,,,,,,,,,,,,,,,,,,37.18897632199969,43.88102345399966,,,,,,,,,,,,,,,,,,,,,,,,,,,,,,,,,,,,,,,,,,,,,,,,,,,,,,,,,,,,,,,,,,013021,0,1,2,3,1,1,2,0,12,2021_Jan_30_1057,listening_fmri,3.2.4,60.181305329620734,
1,parcelated_audio/32/32_5.ogg,,,,,,,,,0,0,0,0,0,1,1,1,0,0,0,0,,,,,,,,,0,0,0,0,0,4,4,4,,,,,,,,,,,,,,,,,,,,,,,,,,,,,,,,,,,,,,,,,,,,43.88137119299972,55.56307473800007,,,,,,,,,,,,,,,,,,,,,,,,,,,,,,,,,,,,,,,,,,,,,,,,,,,,,,,,,,,,,,,,,,013021,0,1,2,3,1,1,2,0,12,2021_Jan_30_1057,listening_fmri,3.2.4,60.181305329620734,
1,parcelated_audio/32/32_6.ogg,,,,,,,,,0,0,0,0,0,1,1,1,0,0,0,0,,,,,,,,,0,0,0,0,0,5,5,5,,,,,,,,,,,,,,,,,,,,,,,,,,,,,,,,,,,,,,,,,,,,55.56342735399994,64.04396353500033,,,,,,,,,,,,,,,,,,,,,,,,,,,,,,,,,,,,,,,,,,,,,,,,,,,,,,,,,,,,,,,,,,013021,0,1,2,3,1,1,2,0,12,2021_Jan_30_1057,listening_fmri,3.2.4,60.181305329620734,
1,parcelated_audio/32/32_7.ogg,,,,,,,,,0,0,0,0,0,1,1,1,0,0,0,0,,,,,,,,,0,0,0,0,0,6,6,6,,,,,,,,,,,,,,,,,,,,,,,,,,,,,,,,,,,,,,,,,,,,64.04452632599987,67.43893664699954,,,,,,,,,,,,,,,,,,,,,,,,,,,,,,,,,,,,,,,,,,,,,,,,,,,,,,,,,,,,,,,,,,013021,0,1,2,3,1,1,2,0,12,2021_Jan_30_1057,listening_fmri,3.2.4,60.181305329620734,
1,parcelated_audio/32/32_8.ogg,,,,,,,,,0,0,0,0,0,1,1,1,0,0,0,0,,,,,,,,,0,0,0,0,0,7,7,7,,,,,,,,,,,,,,,,,,,,,,,,,,,,,,,,,,,,,,,,,,,,67.4393514759995,71.91309937999995,,,,,,,,,,,,,,,,,,,,,,,,,,,,,,,,,,,,,,,,,,,,,,,,,,,,,,,,,,,,,,,,,,013021,0,1,2,3,1,1,2,0,12,2021_Jan_30_1057,listening_fmri,3.2.4,60.181305329620734,
1,parcelated_audio/32/32_9.ogg,,,,,,,,,0,0,0,0,0,1,1,1,0,0,0,0,,,,,,,,,0,0,0,0,0,8,8,8,,,,,,,,,,,,,,,,,,,,,,,,,,,,,,,,,,,,,,,,,,,,71.91344326299986,80.59498950699981,,,,,,,,,,,,,,,,,,,,,,,,,,,,,,,,,,,,,,,,,,,,,,,,,,,,,,,,,,,,,,,,,,013021,0,1,2,3,1,1,2,0,12,2021_Jan_30_1057,listening_fmri,3.2.4,60.181305329620734,
1,parcelated_audio/32/32_10.ogg,,,,,,,,,0,0,0,0,0,1,1,1,0,0,0,0,,,,,,,,,0,0,0,0,0,9,9,9,,,,,,,,,,,,,,,,,,,,,,,,,,,,,,,,,,,,,,,,,,,,80.59533900299994,85.36888063700007,,,,,,,,,,,,,,,,,,,,,,,,,,,,,,,,,,,,,,,,,,,,,,,,,,,,,,,,,,,,,,,,,,013021,0,1,2,3,1,1,2,0,12,2021_Jan_30_1057,listening_fmri,3.2.4,60.181305329620734,
1,parcelated_audio/32/32_11.ogg,,,,,,,,,0,0,0,0,0,1,1,1,0,0,0,0,,,,,,,,,0,0,0,0,0,10,10,10,,,,,,,,,,,,,,,,,,,,,,,,,,,,,,,,,,,,,,,,,,,,85.36923341900001,91.45307198299997,,,,,,,,,,,,,,,,,,,,,,,,,,,,,,,,,,,,,,,,,,,,,,,,,,,,,,,,,,,,,,,,,,013021,0,1,2,3,1,1,2,0,12,2021_Jan_30_1057,listening_fmri,3.2.4,60.181305329620734,
1,parcelated_audio/32/32_12.ogg,,,,,,,,,0,0,0,0,0,1,1,1,0,0,0,0,,,,,,,,,0,0,0,0,0,11,11,11,,,,,,,,,,,,,,,,,,,,,,,,,,,,,,,,,,,,,,,,,,,,91.4534968099997,100.89914575900002,,,,,,,,,,,,,,,,,,,,,,,,,,,,,,,,,,,,,,,,,,,,,,,,,,,,,,,,,,,,,,,,,,013021,0,1,2,3,1,1,2,0,12,2021_Jan_30_1057,listening_fmri,3.2.4,60.181305329620734,
1,parcelated_audio/32/32_13.ogg,,,,,,,,,0,0,0,0,0,1,1,1,0,0,0,0,,,,,,,,,0,0,0,0,0,12,12,12,,,,,,,,,,,,,,,,,,,,,,,,,,,,,,,,,,,,,,,,,,,,100.89959231299963,110.51563698999962,,,,,,,,,,,,,,,,,,,,,,,,,,,,,,,,,,,,,,,,,,,,,,,,,,,,,,,,,,,,,,,,,,013021,0,1,2,3,1,1,2,0,12,2021_Jan_30_1057,listening_fmri,3.2.4,60.181305329620734,
1,parcelated_audio/32/32_14.ogg,,,,,,,,,0,0,0,0,0,1,1,1,0,0,0,0,,,,,,,,,0,0,0,0,0,13,13,13,,,,,,,,,,,,,,,,,,,,,,,,,,,,,,,,,,,,,,,,,,,,110.51616499800002,118.5935788199995,,,,,,,,,,,,,,,,,,,,,,,,,,,,,,,,,,,,,,,,,,,,,,,,,,,,,,,,,,,,,,,,,,013021,0,1,2,3,1,1,2,0,12,2021_Jan_30_1057,listening_fmri,3.2.4,60.181305329620734,
1,parcelated_audio/32/32_15.ogg,,,,,,,,,0,0,0,0,0,1,1,1,0,0,0,0,,,,,,,,,0,0,0,0,0,14,14,14,,,,,,,,,,,,,,,,,,,,,,,,,,,,,,,,,,,,,,,,,,,,118.59416316199986,125.4754148029997,,,,,,,,,,,,,,,,,,,,,,,,,,,,,,,,,,,,,,,,,,,,,,,,,,,,,,,,,,,,,,,,,,013021,0,1,2,3,1,1,2,0,12,2021_Jan_30_1057,listening_fmri,3.2.4,60.181305329620734,
1,parcelated_audio/32/32_16.ogg,,,,,,,,,0,0,0,0,0,1,1,1,0,0,0,0,,,,,,,,,0,0,0,0,0,15,15,15,,,,,,,,,,,,,,,,,,,,,,,,,,,,,,,,,,,,,,,,,,,,125.4756730879999,133.1077261499995,,,,,,,,,,,,,,,,,,,,,,,,,,,,,,,,,,,,,,,,,,,,,,,,,,,,,,,,,,,,,,,,,,013021,0,1,2,3,1,1,2,0,12,2021_Jan_30_1057,listening_fmri,3.2.4,60.181305329620734,
1,parcelated_audio/32/32_17.ogg,,,,,,,,,0,0,0,0,0,1,1,1,0,0,0,0,,,,,,,,,0,0,0,0,0,16,16,16,,,,,,,,,,,,,,,,,,,,,,,,,,,,,,,,,,,,,,,,,,,,133.10807159399974,141.41302814000028,,,,,,,,,,,,,,,,,,,,,,,,,,,,,,,,,,,,,,,,,,,,,,,,,,,,,,,,,,,,,,,,,,013021,0,1,2,3,1,1,2,0,12,2021_Jan_30_1057,listening_fmri,3.2.4,60.181305329620734,
1,parcelated_audio/32/32_18.ogg,,,,,,,,,0,0,0,0,0,1,1,1,0,0,0,0,,,,,,,,,0,0,0,0,0,17,17,17,,,,,,,,,,,,,,,,,,,,,,,,,,,,,,,,,,,,,,,,,,,,141.41338007000013,145.82498943999963,,,,,,,,,,,,,,,,,,,,,,,,,,,,,,,,,,,,,,,,,,,,,,,,,,,,,,,,,,,,,,,,,,013021,0,1,2,3,1,1,2,0,12,2021_Jan_30_1057,listening_fmri,3.2.4,60.181305329620734,
1,parcelated_audio/32/32_19.ogg,,,,,,,,,0,0,0,0,0,1,1,1,0,0,0,0,,,,,,,,,0,0,0,0,0,18,18,18,,,,,,,,,,,,,,,,,,,,,,,,,,,,,,,,,,,,,,,,,,,,145.827189525,153.87858836899977,,,,,,,,,,,,,,,,,,,,,,,,,,,,,,,,,,,,,,,,,,,,,,,,,,,,,,,,,,,,,,,,,,013021,0,1,2,3,1,1,2,0,12,2021_Jan_30_1057,listening_fmri,3.2.4,60.181305329620734,
1,parcelated_audio/32/32_20.ogg,,,,,,,,,0,0,0,0,0,1,1,1,0,0,0,0,,,,,,,,,0,0,0,0,0,19,19,19,,,,,,,,,,,,,,,,,,,,,,,,,,,,,,,,,,,,,,,,,,,,153.8791299280001,164.77691264500027,,,,,,,,,,,,,,,,,,,,,,,,,,,,,,,,,,,,,,,,,,,,,,,,,,,,,,,,,,,,,,,,,,013021,0,1,2,3,1,1,2,0,12,2021_Jan_30_1057,listening_fmri,3.2.4,60.181305329620734,
1,parcelated_audio/32/32_21.ogg,,,,,,,,,0,0,0,0,0,1,1,1,0,0,0,0,,,,,,,,,0,0,0,0,0,20,20,20,,,,,,,,,,,,,,,,,,,,,,,,,,,,,,,,,,,,,,,,,,,,164.7774207880002,173.64336767399982,,,,,,,,,,,,,,,,,,,,,,,,,,,,,,,,,,,,,,,,,,,,,,,,,,,,,,,,,,,,,,,,,,013021,0,1,2,3,1,1,2,0,12,2021_Jan_30_1057,listening_fmri,3.2.4,60.181305329620734,
1,parcelated_audio/32/32_22.ogg,,,,,,,,,0,0,0,0,0,1,1,1,0,0,0,0,,,,,,,,,0,0,0,0,0,21,21,21,,,,,,,,,,,,,,,,,,,,,,,,,,,,,,,,,,,,,,,,,,,,173.6437115130002,187.68501593200017,,,,,,,,,,,,,,,,,,,,,,,,,,,,,,,,,,,,,,,,,,,,,,,,,,,,,,,,,,,,,,,,,,013021,0,1,2,3,1,1,2,0,12,2021_Jan_30_1057,listening_fmri,3.2.4,60.181305329620734,
1,parcelated_audio/32/32_23.ogg,,,,,,,,,0,0,0,0,0,1,1,1,0,0,0,0,,,,,,,,,0,0,0,0,0,22,22,22,,,,,,,,,,,,,,,,,,,,,,,,,,,,,,,,,,,,,,,,,,,,187.68551672299964,196.73718655599987,,,,,,,,,,,,,,,,,,,,,,,,,,,,,,,,,,,,,,,,,,,,,,,,,,,,,,,,,,,,,,,,,,013021,0,1,2,3,1,1,2,0,12,2021_Jan_30_1057,listening_fmri,3.2.4,60.181305329620734,
1,parcelated_audio/32/32_24.ogg,,,,,,,,,0,0,0,0,0,1,1,1,0,0,0,0,,,,,,,,,0,0,0,0,0,23,23,23,,,,,,,,,,,,,,,,,,,,,,,,,,,,,,,,,,,,,,,,,,,,196.7375327310001,208.04111300299974,,,,,,,,,,,,,,,,,,,,,,,,,,,,,,,,,,,,,,,,,,,,,,,,,,,,,,,,,,,,,,,,,,013021,0,1,2,3,1,1,2,0,12,2021_Jan_30_1057,listening_fmri,3.2.4,60.181305329620734,
1,parcelated_audio/32/32_25.ogg,,,,,,,,,0,0,0,0,0,1,1,1,0,0,0,0,,,,,,,,,0,0,0,0,0,24,24,24,,,,,,,,,,,,,,,,,,,,,,,,,,,,,,,,,,,,,,,,,,,,208.04145848000007,214.10483216400007,,,,,,,,,,,,,,,,,,,,,,,,,,,,,,,,,,,,,,,,,,,,,,,,,,,,,,,,,,,,,,,,,,013021,0,1,2,3,1,1,2,0,12,2021_Jan_30_1057,listening_fmri,3.2.4,60.181305329620734,
1,parcelated_audio/32/32_26.ogg,,,,,,,,,0,0,0,0,0,1,1,1,0,0,0,0,,,,,,,,,0,0,0,0,0,25,25,25,,,,,,,,,,,,,,,,,,,,,,,,,,,,,,,,,,,,,,,,,,,,214.10520062500018,227.45374868700037,,,,,,,,,,,,,,,,,,,,,,,,,,,,,,,,,,,,,,,,,,,,,,,,,,,,,,,,,,,,,,,,,,013021,0,1,2,3,1,1,2,0,12,2021_Jan_30_1057,listening_fmri,3.2.4,60.181305329620734,
1,parcelated_audio/32/32_27.ogg,,,,,,,,,0,0,0,0,0,1,1,1,0,0,0,0,,,,,,,,,0,0,0,0,0,26,26,26,,,,,,,,,,,,,,,,,,,,,,,,,,,,,,,,,,,,,,,,,,,,227.45427245700012,234.42981810400033,,,,,,,,,,,,,,,,,,,,,,,,,,,,,,,,,,,,,,,,,,,,,,,,,,,,,,,,,,,,,,,,,,013021,0,1,2,3,1,1,2,0,12,2021_Jan_30_1057,listening_fmri,3.2.4,60.181305329620734,
1,parcelated_audio/32/32_28.ogg,,,,,,,,,0,0,0,0,0,1,1,1,0,0,0,0,,,,,,,,,0,0,0,0,0,27,27,27,,,,,,,,,,,,,,,,,,,,,,,,,,,,,,,,,,,,,,,,,,,,234.43150164599956,241.1411601259997,,,,,,,,,,,,,,,,,,,,,,,,,,,,,,,,,,,,,,,,,,,,,,,,,,,,,,,,,,,,,,,,,,013021,0,1,2,3,1,1,2,0,12,2021_Jan_30_1057,listening_fmri,3.2.4,60.181305329620734,
1,parcelated_audio/32/32_29.ogg,,,,,,,,,0,0,0,0,0,1,1,1,0,0,0,0,,,,,,,,,0,0,0,0,0,28,28,28,,,,,,,,,,,,,,,,,,,,,,,,,,,,,,,,,,,,,,,,,,,,241.1416676990002,243.80545161400005,,,,,,,,,,,,,,,,,,,,,,,,,,,,,,,,,,,,,,,,,,,,,,,,,,,,,,,,,,,,,,,,,,013021,0,1,2,3,1,1,2,0,12,2021_Jan_30_1057,listening_fmri,3.2.4,60.181305329620734,
1,parcelated_audio/32/32_30.ogg,,,,,,,,,0,0,0,0,0,1,1,1,0,0,0,0,,,,,,,,,0,0,0,0,0,29,29,29,,,,,,,,,,,,,,,,,,,,,,,,,,,,,,,,,,,,,,,,,,,,243.8057942839996,250.83313662199998,,,,,,,,,,,,,,,,,,,,,,,,,,,,,,,,,,,,,,,,,,,,,,,,,,,,,,,,,,,,,,,,,,013021,0,1,2,3,1,1,2,0,12,2021_Jan_30_1057,listening_fmri,3.2.4,60.181305329620734,
1,parcelated_audio/32/32_31.ogg,,,,,,,,,0,0,0,0,0,1,1,1,0,0,0,0,,,,,,,,,0,0,0,0,0,30,30,30,,,,,,,,,,,,,,,,,,,,,,,,,,,,,,,,,,,,,,,,,,,,250.83338476300014,257.17037733899997,,,,,,,,,,,,,,,,,,,,,,,,,,,,,,,,,,,,,,,,,,,,,,,,,,,,,,,,,,,,,,,,,,013021,0,1,2,3,1,1,2,0,12,2021_Jan_30_1057,listening_fmri,3.2.4,60.181305329620734,
1,parcelated_audio/32/32_32.ogg,,,,,,,,,0,0,0,0,0,1,1,1,0,0,0,0,,,,,,,,,0,0,0,0,0,31,31,31,,,,,,,,,,,,,,,,,,,,,,,,,,,,,,,,,,,,,,,,,,,,257.1707218299998,266.8786298220002,,,,,,,,,,,,,,,,,,,,,,,,,,,,,,,,,,,,,,,,,,,,,,,,,,,,,,,,,,,,,,,,,,013021,0,1,2,3,1,1,2,0,12,2021_Jan_30_1057,listening_fmri,3.2.4,60.181305329620734,
1,parcelated_audio/32/32_33.ogg,,,,,,,,,0,0,0,0,0,1,1,1,0,0,0,0,,,,,,,,,0,0,0,0,0,32,32,32,,,,,,,,,,,,,,,,,,,,,,,,,,,,,,,,,,,,,,,,,,,,266.8789763369996,272.6332155479995,,,,,,,,,,,,,,,,,,,,,,,,,,,,,,,,,,,,,,,,,,,,,,,,,,,,,,,,,,,,,,,,,,013021,0,1,2,3,1,1,2,0,12,2021_Jan_30_1057,listening_fmri,3.2.4,60.181305329620734,
1,,,,,,,,,,0,0,0,0,0,1,1,1,0,0,0,0,,,,,,,,,0,0,0,0,,,,,,,,,,,,,,,,,,,,,,,,,,,,,,,,,,,,,,,,,,,,,,,,,,,,,,,,,,,,,,,,,,,,,,,,,,,,,,,,,,,,,,,,,,,,,,,,,,,,,,,,,,,,,,,,,,,013021,0,1,2,3,1,1,2,0,12,2021_Jan_30_1057,listening_fmri,3.2.4,60.181305329620734,
1,,,,,,,,,,0,0,0,0,0,1,1,1,0,0,0,0,,,,,,,,,,,,,,,,,,,,,,,,,,,,,,,,,,,,,,272.6337020740002,278.6250647659999,447.3784790919999,None,,,,,,,,,,,,,,,,,,,,,453.3826240620001,None,453.3826240620001,None,,,,,,,,,,,,,,,,,,,,,,,,,,,,,,,,,,,,,,,,,,,,,,,,,,,,,,,,,,,,,,013021,0,1,2,3,1,1,2,0,12,2021_Jan_30_1057,listening_fmri,3.2.4,60.181305329620734,
1,,,,,,,,,,0,0,0,0,0,1,1,1,,,,,,,,,,,,,,,,,,,,,,,,,,,,,,,,,,,,,,,,,,,,,,,,,,,,,,,,,,,,,,,,,,,,,,,,,,,,,,,,,,,,,,,,,,,,,,,,,,,,,,,,,,,,,,,,,,,,,,,,,,,,,,,,,,,013021,0,1,2,3,1,1,2,0,12,2021_Jan_30_1057,listening_fmri,3.2.4,60.181305329620734,
2,,,,,,,,,,0,0,0,0,0,2,2,2,,,,,,,,,,,,,,,,,,,,,,,,,,,,,,,,,,,,,,,,,,,,,,,,,,,,,,,,,,,,,,,,,,,,,,,,,,,,,,,,,,,,,,,,,,,,,,,,,,,,,,,,,,,,,,,,,,,,,,,,,,,,,,,,,,,013021,0,1,2,3,1,1,2,0,12,2021_Jan_30_1057,listening_fmri,3.2.4,60.181305329620734,
3,,,,,,,,,,0,0,0,0,0,3,3,3,0,0,0,0,0,0,0,0,,,,,,,,,,,,,,,,,0,0,0,0,,,,,,,,,,,,,,,,,,454.4003318340001,None,454.4003318340001,None,7,1.0380836439999257,454.4003318340001,None,454.4003318340001,None,,,,,,,,,,,,,,,455.4615880709998,None,7,0.97281794599985,455.4615880709998,None,455.4615880709998,None,456.4832761279995,None,456.4832761279995,None,456.4832761279995,None,7,1.703113859000041,456.4832761279995,None,458.2117894129997,None,7,1.3235926460001792,458.2117894129997,None,458.2117894129997,None,459.6452112369998,None,459.6452112369998,None,459.6452112369998,None,459.6452112369998,None,459.6452112369998,None,459.6452112369998,None,459.6452112369998,None,None,459.6452112369998,None,,,,,,,,,,,,,,,,,,,013021,0,1,2,3,1,1,2,0,12,2021_Jan_30_1057,listening_fmri,3.2.4,60.181305329620734,
3,,,,,,,,,,0,0,0,0,0,3,3,3,0,0,0,0,0,0,0,0,,,,,,,,,,,,,,,,,,,,,,,,,,,,,,,,,,,,,,,,,,,,,,,,,,,,,,,,,,,,,,,,,,,,,,,,,,,,,,,,,,,,,,,,,,,,,,,,,,,,,,,,,488.5284128160001,None,2,2.130942769000285,488.5284128160001,None,488.5284128160001,None,490.694760501,None,490.694760501,None,490.694760501,None,2,1.4916297420004412,490.694760501,None,013021,0,1,2,3,1,1,2,0,12,2021_Jan_30_1057,listening_fmri,3.2.4,60.181305329620734,
3,parcelated_audio/34/34_1.ogg,,,,,,,,,0,0,0,0,0,3,3,3,0,0,0,0,,,,,,,,,0,0,0,0,0,0,0,0,,,,,,,,,,,,,,,,,,,,,,,,,,,,,,,,,,,,492.21158603799995,None,2,1.0437891789997593,492.21158603799995,None,318.5537970149999,321.55733933400006,321.563381039,330.2625194860002,,,,,,,,,,,,,,,,,,,,,,,,,,,,,,,,,,,,,,,,,,,,,,,,,,,,,,,,,,,,,,,,,,013021,0,1,2,3,1,1,2,0,12,2021_Jan_30_1057,listening_fmri,3.2.4,60.181305329620734,
3,parcelated_audio/34/34_2.ogg,,,,,,,,,0,0,0,0,0,3,3,3,0,0,0,0,,,,,,,,,0,0,0,0,0,1,1,1,,,,,,,,,,,,,,,,,,,,,,,,,,,,,,,,,,,,,,,,,,,,330.26288629099963,334.8147367669999,,,,,,,,,,,,,,,,,,,,,,,,,,,,,,,,,,,,,,,,,,,,,,,,,,,,,,,,,,,,,,,,,,013021,0,1,2,3,1,1,2,0,12,2021_Jan_30_1057,listening_fmri,3.2.4,60.181305329620734,
3,parcelated_audio/34/34_3.ogg,,,,,,,,,0,0,0,0,0,3,3,3,0,0,0,0,,,,,,,,,0,0,0,0,0,2,2,2,,,,,,,,,,,,,,,,,,,,,,,,,,,,,,,,,,,,,,,,,,,,334.81508142500024,339.451917419,,,,,,,,,,,,,,,,,,,,,,,,,,,,,,,,,,,,,,,,,,,,,,,,,,,,,,,,,,,,,,,,,,013021,0,1,2,3,1,1,2,0,12,2021_Jan_30_1057,listening_fmri,3.2.4,60.181305329620734,
3,parcelated_audio/34/34_4.ogg,,,,,,,,,0,0,0,0,0,3,3,3,0,0,0,0,,,,,,,,,0,0,0,0,0,3,3,3,,,,,,,,,,,,,,,,,,,,,,,,,,,,,,,,,,,,,,,,,,,,339.4523373209995,349.05985431499994,,,,,,,,,,,,,,,,,,,,,,,,,,,,,,,,,,,,,,,,,,,,,,,,,,,,,,,,,,,,,,,,,,013021,0,1,2,3,1,1,2,0,12,2021_Jan_30_1057,listening_fmri,3.2.4,60.181305329620734,
3,parcelated_audio/34/34_5.ogg,,,,,,,,,0,0,0,0,0,3,3,3,0,0,0,0,,,,,,,,,0,0,0,0,0,4,4,4,,,,,,,,,,,,,,,,,,,,,,,,,,,,,,,,,,,,,,,,,,,,349.0602070389996,359.47834578899983,,,,,,,,,,,,,,,,,,,,,,,,,,,,,,,,,,,,,,,,,,,,,,,,,,,,,,,,,,,,,,,,,,013021,0,1,2,3,1,1,2,0,12,2021_Jan_30_1057,listening_fmri,3.2.4,60.181305329620734,
3,parcelated_audio/34/34_6.ogg,,,,,,,,,0,0,0,0,0,3,3,3,0,0,0,0,,,,,,,,,0,0,0,0,0,5,5,5,,,,,,,,,,,,,,,,,,,,,,,,,,,,,,,,,,,,,,,,,,,,359.4787105659998,368.1877495560002,,,,,,,,,,,,,,,,,,,,,,,,,,,,,,,,,,,,,,,,,,,,,,,,,,,,,,,,,,,,,,,,,,013021,0,1,2,3,1,1,2,0,12,2021_Jan_30_1057,listening_fmri,3.2.4,60.181305329620734,
3,parcelated_audio/34/34_7.ogg,,,,,,,,,0,0,0,0,0,3,3,3,0,0,0,0,,,,,,,,,0,0,0,0,0,6,6,6,,,,,,,,,,,,,,,,,,,,,,,,,,,,,,,,,,,,,,,,,,,,368.18815883299976,374.1803281049997,,,,,,,,,,,,,,,,,,,,,,,,,,,,,,,,,,,,,,,,,,,,,,,,,,,,,,,,,,,,,,,,,,013021,0,1,2,3,1,1,2,0,12,2021_Jan_30_1057,listening_fmri,3.2.4,60.181305329620734,
3,parcelated_audio/34/34_8.ogg,,,,,,,,,0,0,0,0,0,3,3,3,0,0,0,0,,,,,,,,,0,0,0,0,0,7,7,7,,,,,,,,,,,,,,,,,,,,,,,,,,,,,,,,,,,,,,,,,,,,374.1816164330003,382.15594986700034,,,,,,,,,,,,,,,,,,,,,,,,,,,,,,,,,,,,,,,,,,,,,,,,,,,,,,,,,,,,,,,,,,013021,0,1,2,3,1,1,2,0,12,2021_Jan_30_1057,listening_fmri,3.2.4,60.181305329620734,
3,parcelated_audio/34/34_9.ogg,,,,,,,,,0,0,0,0,0,3,3,3,0,0,0,0,,,,,,,,,0,0,0,0,0,8,8,8,,,,,,,,,,,,,,,,,,,,,,,,,,,,,,,,,,,,,,,,,,,,382.1563651340002,386.9393923609996,,,,,,,,,,,,,,,,,,,,,,,,,,,,,,,,,,,,,,,,,,,,,,,,,,,,,,,,,,,,,,,,,,013021,0,1,2,3,1,1,2,0,12,2021_Jan_30_1057,listening_fmri,3.2.4,60.181305329620734,
3,parcelated_audio/34/34_10.ogg,,,,,,,,,0,0,0,0,0,3,3,3,0,0,0,0,,,,,,,,,0,0,0,0,0,9,9,9,,,,,,,,,,,,,,,,,,,,,,,,,,,,,,,,,,,,,,,,,,,,386.93985940400034,394.0480312620002,,,,,,,,,,,,,,,,,,,,,,,,,,,,,,,,,,,,,,,,,,,,,,,,,,,,,,,,,,,,,,,,,,013021,0,1,2,3,1,1,2,0,12,2021_Jan_30_1057,listening_fmri,3.2.4,60.181305329620734,
3,parcelated_audio/34/34_11.ogg,,,,,,,,,0,0,0,0,0,3,3,3,0,0,0,0,,,,,,,,,0,0,0,0,0,10,10,10,,,,,,,,,,,,,,,,,,,,,,,,,,,,,,,,,,,,,,,,,,,,394.0486012479996,397.4864956860001,,,,,,,,,,,,,,,,,,,,,,,,,,,,,,,,,,,,,,,,,,,,,,,,,,,,,,,,,,,,,,,,,,013021,0,1,2,3,1,1,2,0,12,2021_Jan_30_1057,listening_fmri,3.2.4,60.181305329620734,
3,parcelated_audio/34/34_12.ogg,,,,,,,,,0,0,0,0,0,3,3,3,0,0,0,0,,,,,,,,,0,0,0,0,0,11,11,11,,,,,,,,,,,,,,,,,,,,,,,,,,,,,,,,,,,,,,,,,,,,397.48686127200017,405.64294255299956,,,,,,,,,,,,,,,,,,,,,,,,,,,,,,,,,,,,,,,,,,,,,,,,,,,,,,,,,,,,,,,,,,013021,0,1,2,3,1,1,2,0,12,2021_Jan_30_1057,listening_fmri,3.2.4,60.181305329620734,
3,parcelated_audio/34/34_13.ogg,,,,,,,,,0,0,0,0,0,3,3,3,0,0,0,0,,,,,,,,,0,0,0,0,0,12,12,12,,,,,,,,,,,,,,,,,,,,,,,,,,,,,,,,,,,,,,,,,,,,405.6432902910001,409.6260013729998,,,,,,,,,,,,,,,,,,,,,,,,,,,,,,,,,,,,,,,,,,,,,,,,,,,,,,,,,,,,,,,,,,013021,0,1,2,3,1,1,2,0,12,2021_Jan_30_1057,listening_fmri,3.2.4,60.181305329620734,
3,parcelated_audio/34/34_14.ogg,,,,,,,,,0,0,0,0,0,3,3,3,0,0,0,0,,,,,,,,,0,0,0,0,0,13,13,13,,,,,,,,,,,,,,,,,,,,,,,,,,,,,,,,,,,,,,,,,,,,409.62717258999965,414.2707981779995,,,,,,,,,,,,,,,,,,,,,,,,,,,,,,,,,,,,,,,,,,,,,,,,,,,,,,,,,,,,,,,,,,013021,0,1,2,3,1,1,2,0,12,2021_Jan_30_1057,listening_fmri,3.2.4,60.181305329620734,
3,parcelated_audio/34/34_15.ogg,,,,,,,,,0,0,0,0,0,3,3,3,0,0,0,0,,,,,,,,,0,0,0,0,0,14,14,14,,,,,,,,,,,,,,,,,,,,,,,,,,,,,,,,,,,,,,,,,,,,414.27112011200006,418.47599137900033,,,,,,,,,,,,,,,,,,,,,,,,,,,,,,,,,,,,,,,,,,,,,,,,,,,,,,,,,,,,,,,,,,013021,0,1,2,3,1,1,2,0,12,2021_Jan_30_1057,listening_fmri,3.2.4,60.181305329620734,
3,parcelated_audio/34/34_16.ogg,,,,,,,,,0,0,0,0,0,3,3,3,0,0,0,0,,,,,,,,,0,0,0,0,0,15,15,15,,,,,,,,,,,,,,,,,,,,,,,,,,,,,,,,,,,,,,,,,,,,418.4764964340002,431.47589234099996,,,,,,,,,,,,,,,,,,,,,,,,,,,,,,,,,,,,,,,,,,,,,,,,,,,,,,,,,,,,,,,,,,013021,0,1,2,3,1,1,2,0,12,2021_Jan_30_1057,listening_fmri,3.2.4,60.181305329620734,
3,parcelated_audio/34/34_17.ogg,,,,,,,,,0,0,0,0,0,3,3,3,0,0,0,0,,,,,,,,,0,0,0,0,0,16,16,16,,,,,,,,,,,,,,,,,,,,,,,,,,,,,,,,,,,,,,,,,,,,431.47663959700003,440.39838831399993,,,,,,,,,,,,,,,,,,,,,,,,,,,,,,,,,,,,,,,,,,,,,,,,,,,,,,,,,,,,,,,,,,013021,0,1,2,3,1,1,2,0,12,2021_Jan_30_1057,listening_fmri,3.2.4,60.181305329620734,
3,parcelated_audio/34/34_18.ogg,,,,,,,,,0,0,0,0,0,3,3,3,0,0,0,0,,,,,,,,,0,0,0,0,0,17,17,17,,,,,,,,,,,,,,,,,,,,,,,,,,,,,,,,,,,,,,,,,,,,440.39874006399987,446.2811296919999,,,,,,,,,,,,,,,,,,,,,,,,,,,,,,,,,,,,,,,,,,,,,,,,,,,,,,,,,,,,,,,,,,013021,0,1,2,3,1,1,2,0,12,2021_Jan_30_1057,listening_fmri,3.2.4,60.181305329620734,
3,parcelated_audio/34/34_19.ogg,,,,,,,,,0,0,0,0,0,3,3,3,0,0,0,0,,,,,,,,,0,0,0,0,0,18,18,18,,,,,,,,,,,,,,,,,,,,,,,,,,,,,,,,,,,,,,,,,,,,446.281581921,452.49785946500015,,,,,,,,,,,,,,,,,,,,,,,,,,,,,,,,,,,,,,,,,,,,,,,,,,,,,,,,,,,,,,,,,,013021,0,1,2,3,1,1,2,0,12,2021_Jan_30_1057,listening_fmri,3.2.4,60.181305329620734,
3,parcelated_audio/34/34_20.ogg,,,,,,,,,0,0,0,0,0,3,3,3,0,0,0,0,,,,,,,,,0,0,0,0,0,19,19,19,,,,,,,,,,,,,,,,,,,,,,,,,,,,,,,,,,,,,,,,,,,,452.49820011799966,460.955374913,,,,,,,,,,,,,,,,,,,,,,,,,,,,,,,,,,,,,,,,,,,,,,,,,,,,,,,,,,,,,,,,,,013021,0,1,2,3,1,1,2,0,12,2021_Jan_30_1057,listening_fmri,3.2.4,60.181305329620734,
3,parcelated_audio/34/34_21.ogg,,,,,,,,,0,0,0,0,0,3,3,3,0,0,0,0,,,,,,,,,0,0,0,0,0,20,20,20,,,,,,,,,,,,,,,,,,,,,,,,,,,,,,,,,,,,,,,,,,,,460.9557930109995,467.32061256700035,,,,,,,,,,,,,,,,,,,,,,,,,,,,,,,,,,,,,,,,,,,,,,,,,,,,,,,,,,,,,,,,,,013021,0,1,2,3,1,1,2,0,12,2021_Jan_30_1057,listening_fmri,3.2.4,60.181305329620734,
3,parcelated_audio/34/34_22.ogg,,,,,,,,,0,0,0,0,0,3,3,3,0,0,0,0,,,,,,,,,0,0,0,0,0,21,21,21,,,,,,,,,,,,,,,,,,,,,,,,,,,,,,,,,,,,,,,,,,,,467.32097683200027,472.44692209499954,,,,,,,,,,,,,,,,,,,,,,,,,,,,,,,,,,,,,,,,,,,,,,,,,,,,,,,,,,,,,,,,,,013021,0,1,2,3,1,1,2,0,12,2021_Jan_30_1057,listening_fmri,3.2.4,60.181305329620734,
3,parcelated_audio/34/34_23.ogg,,,,,,,,,0,0,0,0,0,3,3,3,0,0,0,0,,,,,,,,,0,0,0,0,0,22,22,22,,,,,,,,,,,,,,,,,,,,,,,,,,,,,,,,,,,,,,,,,,,,472.44736170099986,480.2450254770001,,,,,,,,,,,,,,,,,,,,,,,,,,,,,,,,,,,,,,,,,,,,,,,,,,,,,,,,,,,,,,,,,,013021,0,1,2,3,1,1,2,0,12,2021_Jan_30_1057,listening_fmri,3.2.4,60.181305329620734,
3,parcelated_audio/34/34_24.ogg,,,,,,,,,0,0,0,0,0,3,3,3,0,0,0,0,,,,,,,,,0,0,0,0,0,23,23,23,,,,,,,,,,,,,,,,,,,,,,,,,,,,,,,,,,,,,,,,,,,,480.2453377619995,486.04142771900024,,,,,,,,,,,,,,,,,,,,,,,,,,,,,,,,,,,,,,,,,,,,,,,,,,,,,,,,,,,,,,,,,,013021,0,1,2,3,1,1,2,0,12,2021_Jan_30_1057,listening_fmri,3.2.4,60.181305329620734,
3,parcelated_audio/34/34_25.ogg,,,,,,,,,0,0,0,0,0,3,3,3,0,0,0,0,,,,,,,,,0,0,0,0,0,24,24,24,,,,,,,,,,,,,,,,,,,,,,,,,,,,,,,,,,,,,,,,,,,,486.0417561289996,492.6150221179996,,,,,,,,,,,,,,,,,,,,,,,,,,,,,,,,,,,,,,,,,,,,,,,,,,,,,,,,,,,,,,,,,,013021,0,1,2,3,1,1,2,0,12,2021_Jan_30_1057,listening_fmri,3.2.4,60.181305329620734,
3,parcelated_audio/34/34_26.ogg,,,,,,,,,0,0,0,0,0,3,3,3,0,0,0,0,,,,,,,,,0,0,0,0,0,25,25,25,,,,,,,,,,,,,,,,,,,,,,,,,,,,,,,,,,,,,,,,,,,,492.6154854839997,502.2733141529998,,,,,,,,,,,,,,,,,,,,,,,,,,,,,,,,,,,,,,,,,,,,,,,,,,,,,,,,,,,,,,,,,,013021,0,1,2,3,1,1,2,0,12,2021_Jan_30_1057,listening_fmri,3.2.4,60.181305329620734,
3,parcelated_audio/34/34_27.ogg,,,,,,,,,0,0,0,0,0,3,3,3,0,0,0,0,,,,,,,,,0,0,0,0,0,26,26,26,,,,,,,,,,,,,,,,,,,,,,,,,,,,,,,,,,,,,,,,,,,,502.2738502049997,509.774803671,,,,,,,,,,,,,,,,,,,,,,,,,,,,,,,,,,,,,,,,,,,,,,,,,,,,,,,,,,,,,,,,,,013021,0,1,2,3,1,1,2,0,12,2021_Jan_30_1057,listening_fmri,3.2.4,60.181305329620734,
3,,,,,,,,,,0,0,0,0,0,3,3,3,0,0,0,0,,,,,,,,,0,0,0,0,,,,,,,,,,,,,,,,,,,,,,,,,,,,,,,,,,,,,,,,,,,,,,,,,,,,,,,,,,,,,,,,,,,,,,,,,,,,,,,,,,,,,,,,,,,,,,,,,,,,,,,,,,,,,,,,,,,013021,0,1,2,3,1,1,2,0,12,2021_Jan_30_1057,listening_fmri,3.2.4,60.181305329620734,
3,,,,,,,,,,0,0,0,0,0,3,3,3,0,0,0,0,,,,,,,,,,,,,,,,,,,,,,,,,,,,,,,,,,,,,,509.7753639370003,515.774127357,684.5283343229994,None,,,,,,,,,,,,,,,,,,,,,690.5290647279999,None,690.5290647279999,None,,,,,,,,,,,,,,,,,,,,,,,,,,,,,,,,,,,,,,,,,,,,,,,,,,,,,,,,,,,,,,013021,0,1,2,3,1,1,2,0,12,2021_Jan_30_1057,listening_fmri,3.2.4,60.181305329620734,
