instructText,count,trials_5.thisRepN,trials_5.thisTrialN,trials_5.thisN,trials_5.thisIndex,trials_6.thisRepN,trials_6.thisTrialN,trials_6.thisN,trials_6.thisIndex,trials.thisRepN,trials.thisTrialN,trials.thisN,trials.thisIndex,trials_8.thisRepN,trials_8.thisTrialN,trials_8.thisN,trials_8.thisIndex,story_list_block1,action_list_block1,story_list_block2,action_list_block2,key_resp_3.keys,key_resp_3.rt,key_resp_3.started,key_resp_3.stopped,text_13.started,text_13.stopped,text_23.started,text_23.stopped,text_43.started,text_43.stopped,key_resp_11.keys,key_resp_11.rt,key_resp_11.started,key_resp_11.stopped,text_44.started,text_44.stopped,text_53.started,text_53.stopped,image_10.started,image_10.stopped,text_22.started,text_22.stopped,recall,question1_answer,order of question,text_14.started,text_14.stopped,text_15.started,text_15.stopped,image_6.started,image_6.stopped,polygon_3.started,polygon_3.stopped,bottom_line_3.started,bottom_line_3.stopped,right_line_3.started,right_line_3.stopped,left_line_3.started,left_line_3.stopped,question2_answer,text_16.started,text_16.stopped,text_17.started,text_17.stopped,image_7.started,image_7.stopped,polygon_4.started,polygon_4.stopped,bottom_line_4.started,bottom_line_4.stopped,right_line_4.started,right_line_4.stopped,left_line_4.started,left_line_4.stopped,question3_answer,text_18.started,text_18.stopped,text_19.started,text_19.stopped,image_8.started,image_8.stopped,polygon_5.started,polygon_5.stopped,bottom_line_5.started,bottom_line_5.stopped,right_line_5.started,right_line_5.stopped,left_line_5.started,left_line_5.stopped,question4_answer,text_20.started,text_20.stopped,text_21.started,text_21.stopped,image_9.started,image_9.stopped,polygon_6.started,polygon_6.stopped,bottom_line_6.started,bottom_line_6.stopped,right_line_6.started,right_line_6.stopped,left_line_6.started,left_line_6.stopped,question5_answer,text_25.started,text_25.stopped,text_26.started,text_26.stopped,image_11.started,image_11.stopped,polygon_7.started,polygon_7.stopped,bottom_line_7.started,bottom_line_7.stopped,right_line_7.started,right_line_7.stopped,left_line_7.started,left_line_7.stopped,question6_answer,text_27.started,text_27.stopped,text_28.started,text_28.stopped,image_12.started,image_12.stopped,polygon_8.started,polygon_8.stopped,bottom_line_8.started,bottom_line_8.stopped,right_line_8.started,right_line_8.stopped,left_line_8.started,left_line_8.stopped,question7_answer,text_29.started,text_29.stopped,text_30.started,text_30.stopped,image_13.started,image_13.stopped,polygon_9.started,polygon_9.stopped,bottom_line_9.started,bottom_line_9.stopped,right_line_9.started,right_line_9.stopped,left_line_9.started,left_line_9.stopped,question8_answer,text_31.started,text_31.stopped,text_32.started,text_32.stopped,image_14.started,image_14.stopped,polygon_10.started,polygon_10.stopped,bottom_line_10.started,bottom_line_10.stopped,right_line_10.started,right_line_10.stopped,left_line_10.started,left_line_10.stopped,text_36.started,text_36.stopped,participant,sA,sB,lA,lB,block_struct,random_seed,date,expName,psychopyVersion,frameRate,
"In the final part of the experiment, please answer 8 questions about each story.",,0,0,0,0,,,,,,,,,,,,,[31 42 11 22 13 33 44 24],[4 4 1 1 3 2 2 3],[14 32 23 34 41 43 12 21],[3 4 3 2 4 2 1 1],space,7.099326792000284,6.120675313999527,None,6.120675313999527,None,6.120675313999527,None,,,,,,,,,,,,,,,,,,,,,,,,,,,,,,,,,,,,,,,,,,,,,,,,,,,,,,,,,,,,,,,,,,,,,,,,,,,,,,,,,,,,,,,,,,,,,,,,,,,,,,,,,,,,,,,,,,,,,,,,,,,,,,,,,,,,,,,,,,,013021,0,1,2,3,1,12,2021_Jan_30_1154,short_answer,3.2.4,60.20312401646325,
"We did not tell you to think of all or some of these questions during the story, but please do your best to answer them.",,0,1,1,1,,,,,,,,,,,,,,,,,space,7.393853608000427,13.25422528099989,None,13.25422528099989,None,13.25422528099989,None,,,,,,,,,,,,,,,,,,,,,,,,,,,,,,,,,,,,,,,,,,,,,,,,,,,,,,,,,,,,,,,,,,,,,,,,,,,,,,,,,,,,,,,,,,,,,,,,,,,,,,,,,,,,,,,,,,,,,,,,,,,,,,,,,,,,,,,,,,,013021,0,1,2,3,1,12,2021_Jan_30_1154,short_answer,3.2.4,60.20312401646325,
"Answer as much as you remember, and be specific and concrete in your answers. It is best to try to be as faithful as possible to what the story actually said.
",,0,2,2,2,,,,,,,,,,,,,,,,,space,6.86027632600053,20.688476766999884,None,20.688476766999884,None,20.688476766999884,None,,,,,,,,,,,,,,,,,,,,,,,,,,,,,,,,,,,,,,,,,,,,,,,,,,,,,,,,,,,,,,,,,,,,,,,,,,,,,,,,,,,,,,,,,,,,,,,,,,,,,,,,,,,,,,,,,,,,,,,,,,,,,,,,,,,,,,,,,,,013021,0,1,2,3,1,12,2021_Jan_30_1154,short_answer,3.2.4,60.20312401646325,
"When you have finished typing your answer, hit ‘return’ to submit your answer and move onto the next question. ",,0,3,3,3,,,,,,,,,,,,,,,,,space,4.907127711998328,27.58796430199982,None,27.58796430199982,None,27.58796430199982,None,,,,,,,,,,,,,,,,,,,,,,,,,,,,,,,,,,,,,,,,,,,,,,,,,,,,,,,,,,,,,,,,,,,,,,,,,,,,,,,,,,,,,,,,,,,,,,,,,,,,,,,,,,,,,,,,,,,,,,,,,,,,,,,,,,,,,,,,,,,013021,0,1,2,3,1,12,2021_Jan_30_1154,short_answer,3.2.4,60.20312401646325,
,0,,,,,0,0,0,0,0,0,0,0,,,,,,,,,,,,,,,,,32.53817617599998,None,space,1.6236528730005375,32.53817617599998,None,32.53817617599998,None,32.53817617599998,None,34.255003188000046,None,34.255003188000046,None,It was subpar because the food was a little overcooked and dry,Mr shelton is cfo and mr gordon is ceo,"[1, 2]",40.5382546689998,None,40.5382546689998,None,40.5382546689998,None,40.5382546689998,None,40.5382546689998,None,40.5382546689998,None,40.5382546689998,None,6 million dollars,70.37110258299981,None,70.37110258299981,None,70.37110258299981,None,70.37110258299981,None,70.37110258299981,None,70.37110258299981,None,70.37110258299981,None,Question,83.35526348799976,None,83.35526348799976,None,83.35526348799976,None,83.35526348799976,None,83.35526348799976,None,83.35526348799976,None,83.35526348799976,None,Clinking of their manhattan and martini drinks,91.75478832799854,None,91.75478832799854,None,91.75478832799854,None,91.75478832799854,None,91.75478832799854,None,91.75478832799854,None,91.75478832799854,None,Red velvet and wooden,124.48713255199982,None,124.48713255199982,None,124.48713255199982,None,124.48713255199982,None,124.48713255199982,None,124.48713255199982,None,124.48713255199982,None,Velvet menus smooth to the touch with lots of options,143.45356258500033,None,143.45356258500033,None,143.45356258500033,None,143.45356258500033,None,143.45356258500033,None,143.45356258500033,None,143.45356258500033,None,"Steak, mr gordon order the steak medium; both steaks we a little dry",169.67031207999935,None,169.67031207999935,None,169.67031207999935,None,169.67031207999935,None,169.67031207999935,None,169.67031207999935,None,169.67031207999935,None,It was subpar because the food was a little overcooked and dry,199.93677811499947,None,199.93677811499947,None,199.93677811499947,None,199.93677811499947,None,199.93677811499947,None,199.93677811499947,None,199.93677811499947,None,,,013021,0,1,2,3,1,12,2021_Jan_30_1154,short_answer,3.2.4,60.20312401646325,
,0,,,,,0,0,0,0,,,,,,,,,,,,,,,,,,,,,,,,,,,,,,,,,,,,,,,,,,,,,,,,,,,,,,,,,,,,,,,,,,,,,,,,,,,,,,,,,,,,,,,,,,,,,,,,,,,,,,,,,,,,,,,,,,,,,,,,,,,,,,,,,,,,,,,,,,,,,,,,,,,,,,,,,,,,,,,013021,0,1,2,3,1,12,2021_Jan_30_1154,short_answer,3.2.4,60.20312401646325,
,1,,,,,0,1,1,1,0,0,0,0,,,,,,,,,,,,,,,,,223.56823685199925,None,space,2.3206256049998046,223.56823685199925,None,223.56823685199925,None,223.56823685199925,None,225.95283372299855,None,225.95283372299855,None,11am,2 hour,"[2, 1]",227.2356544689992,None,227.2356544689992,None,227.2356544689992,None,227.2356544689992,None,227.2356544689992,None,227.2356544689992,None,227.2356544689992,None,,241.2186262439991,None,241.2186262439991,None,241.2186262439991,None,241.2186262439991,None,241.2186262439991,None,241.2186262439991,None,241.2186262439991,None,A11,270.80187044899867,None,270.80187044899867,None,270.80187044899867,None,270.80187044899867,None,270.80187044899867,None,270.80187044899867,None,270.80187044899867,None,A11,276.2522631519987,None,276.2522631519987,None,276.2522631519987,None,276.2522631519987,None,276.2522631519987,None,276.2522631519987,None,276.2522631519987,None,"Anna's shoes were untied, she almost got hit by a terminal car ",291.58574432000023,None,291.58574432000023,None,291.58574432000023,None,291.58574432000023,None,291.58574432000023,None,291.58574432000023,None,291.58574432000023,None,Are you a gymnist,355.50165103499967,None,355.50165103499967,None,355.50165103499967,None,355.50165103499967,None,355.50165103499967,None,355.50165103499967,None,355.50165103499967,None,They will have dinner together ,367.0344593709997,None,367.0344593709997,None,367.0344593709997,None,367.0344593709997,None,367.0344593709997,None,367.0344593709997,None,367.0344593709997,None,11am,388.03316486399854,None,388.03316486399854,None,388.03316486399854,None,388.03316486399854,None,388.03316486399854,None,388.03316486399854,None,388.03316486399854,None,,,013021,0,1,2,3,1,12,2021_Jan_30_1154,short_answer,3.2.4,60.20312401646325,
,1,,,,,0,1,1,1,,,,,,,,,,,,,,,,,,,,,,,,,,,,,,,,,,,,,,,,,,,,,,,,,,,,,,,,,,,,,,,,,,,,,,,,,,,,,,,,,,,,,,,,,,,,,,,,,,,,,,,,,,,,,,,,,,,,,,,,,,,,,,,,,,,,,,,,,,,,,,,,,,,,,,,,,,,,,,,013021,0,1,2,3,1,12,2021_Jan_30_1154,short_answer,3.2.4,60.20312401646325,
,2,,,,,0,2,2,2,0,0,0,0,,,,,,,,,,,,,,,,,401.9328317740001,None,space,1.384726086000228,401.9328317740001,None,401.9328317740001,None,401.9328317740001,None,403.36677082499955,None,403.36677082499955,None,Sadie wants some books back or something,Black and white checked floor,"[2, 1]",404.5003070829989,None,404.5003070829989,None,404.5003070829989,None,404.5003070829989,None,404.5003070829989,None,404.5003070829989,None,404.5003070829989,None,"Dense and lots of words, so they just ordered familiar items on the menu",413.46634318499855,None,413.46634318499855,None,413.46634318499855,None,413.46634318499855,None,413.46634318499855,None,413.46634318499855,None,413.46634318499855,None,Sandwiches,430.6328652609991,None,430.6328652609991,None,430.6328652609991,None,430.6328652609991,None,430.6328652609991,None,430.6328652609991,None,430.6328652609991,None,They never ate it,436.49984168399897,None,436.49984168399897,None,436.49984168399897,None,436.49984168399897,None,436.49984168399897,None,436.49984168399897,None,436.49984168399897,None,2 months,441.30024298399985,None,441.30024298399985,None,441.30024298399985,None,441.30024298399985,None,441.30024298399985,None,441.30024298399985,None,441.30024298399985,None,Career workload and aspirations that he needs to figure out on his own,451.88352539599873,None,451.88352539599873,None,451.88352539599873,None,451.88352539599873,None,451.88352539599873,None,451.88352539599873,None,451.88352539599873,None,No sadie doesnt want to break up with thomas and so she's willing to see him less often but then she changes her mind and walks out on him,466.31619676599985,None,466.31619676599985,None,466.31619676599985,None,466.31619676599985,None,466.31619676599985,None,466.31619676599985,None,466.31619676599985,None,Sadie wants some books back or something,501.3656519369997,None,501.3656519369997,None,501.3656519369997,None,501.3656519369997,None,501.3656519369997,None,501.3656519369997,None,501.3656519369997,None,,,013021,0,1,2,3,1,12,2021_Jan_30_1154,short_answer,3.2.4,60.20312401646325,
,2,,,,,0,2,2,2,,,,,,,,,,,,,,,,,,,,,,,,,,,,,,,,,,,,,,,,,,,,,,,,,,,,,,,,,,,,,,,,,,,,,,,,,,,,,,,,,,,,,,,,,,,,,,,,,,,,,,,,,,,,,,,,,,,,,,,,,,,,,,,,,,,,,,,,,,,,,,,,,,,,,,,,,,,,,,,013021,0,1,2,3,1,12,2021_Jan_30_1154,short_answer,3.2.4,60.20312401646325,
,3,,,,,0,3,3,3,0,0,0,0,,,,,,,,,,,,,,,,,518.8813318489993,None,space,1.2757684280004469,518.8813318489993,None,518.8813318489993,None,518.8813318489993,None,520.1987424449999,None,520.1987424449999,None,A11,11 months,"[1, 2]",521.7492119149993,None,521.7492119149993,None,521.7492119149993,None,521.7492119149993,None,521.7492119149993,None,521.7492119149993,None,521.7492119149993,None,"2, red",524.7153476329986,None,524.7153476329986,None,524.7153476329986,None,524.7153476329986,None,524.7153476329986,None,524.7153476329986,None,524.7153476329986,None,It was in sven's pocket,529.0147832469993,None,529.0147832469993,None,529.0147832469993,None,529.0147832469993,None,529.0147832469993,None,529.0147832469993,None,529.0147832469993,None,Her best friend,541.5815544460002,None,541.5815544460002,None,541.5815544460002,None,541.5815544460002,None,541.5815544460002,None,541.5815544460002,None,541.5815544460002,None,2 hours,549.5316004420001,None,549.5316004420001,None,549.5316004420001,None,549.5316004420001,None,549.5316004420001,None,549.5316004420001,None,549.5316004420001,None,Sven decided to propose to isabel at that moment and everyone was watching because it was such a spectacle and isabel was too shy to say yes at that moment so she ran out,571.2984799850001,None,571.2984799850001,None,571.2984799850001,None,571.2984799850001,None,571.2984799850001,None,571.2984799850001,None,571.2984799850001,None,A11,611.6808419219997,None,611.6808419219997,None,611.6808419219997,None,611.6808419219997,None,611.6808419219997,None,611.6808419219997,None,611.6808419219997,None,A11,614.9808018940003,None,614.9808018940003,None,614.9808018940003,None,614.9808018940003,None,614.9808018940003,None,614.9808018940003,None,614.9808018940003,None,,,013021,0,1,2,3,1,12,2021_Jan_30_1154,short_answer,3.2.4,60.20312401646325,
,3,,,,,0,3,3,3,,,,,,,,,,,,,,,,,,,,,,,,,,,,,,,,,,,,,,,,,,,,,,,,,,,,,,,,,,,,,,,,,,,,,,,,,,,,,,,,,,,,,,,,,,,,,,,,,,,,,,,,,,,,,,,,,,,,,,,,,,,,,,,,,,,,,,,,,,,,,,,,,,,,,,,,,,,,,,,013021,0,1,2,3,1,12,2021_Jan_30_1154,short_answer,3.2.4,60.20312401646325,
,4,,,,,0,4,4,4,,,,,,,,,,,,,,,,,,,,,,,,,,,,,,,,,,,,,,,,,,,,,,,,,,,,,,,,,,,,,,,,,,,,,,,,,,,,,,,,,,,,,,,,,,,,,,,,,,,,,,,,,,,,,,,,,,,,,,,,,,,,,,,,,,,,,,,,,,,,,,,,,,,,,,,,,,,,,,,013021,0,1,2,3,1,12,2021_Jan_30_1154,short_answer,3.2.4,60.20312401646325,
,5,,,,,0,5,5,5,0,0,0,0,,,,,,,,,,,,,,,,,617.0802852889992,None,space,1.4278083270000934,617.0802852889992,None,617.0802852889992,None,617.0802852889992,None,618.5470305159997,None,618.5470305159997,None,They pay by check,"Ceo, maybe","[1, 2]",619.531693723,None,619.531693723,None,619.531693723,None,619.531693723,None,619.531693723,None,619.531693723,None,619.531693723,None,Dont know,633.2644593389996,None,633.2644593389996,None,633.2644593389996,None,633.2644593389996,None,633.2644593389996,None,633.2644593389996,None,633.2644593389996,None,,642.497239458,None,642.497239458,None,642.497239458,None,642.497239458,None,642.497239458,None,642.497239458,None,642.497239458,None,Bianchi pays by check,644.8144712289995,None,644.8144712289995,None,644.8144712289995,None,644.8144712289995,None,644.8144712289995,None,644.8144712289995,None,644.8144712289995,None,Large and high rise ceiling,659.8304410780001,None,659.8304410780001,None,659.8304410780001,None,659.8304410780001,None,659.8304410780001,None,659.8304410780001,None,659.8304410780001,None,Cheese and wine,672.1305795839999,None,672.1305795839999,None,672.1305795839999,None,672.1305795839999,None,672.1305795839999,None,672.1305795839999,None,672.1305795839999,None,10 lanes are open,675.9801636109987,None,675.9801636109987,None,675.9801636109987,None,675.9801636109987,None,675.9801636109987,None,675.9801636109987,None,675.9801636109987,None,They pay by check,705.1973298920002,None,705.1973298920002,None,705.1973298920002,None,705.1973298920002,None,705.1973298920002,None,705.1973298920002,None,705.1973298920002,None,,,013021,0,1,2,3,1,12,2021_Jan_30_1154,short_answer,3.2.4,60.20312401646325,
,5,,,,,0,5,5,5,,,,,,,,,,,,,,,,,,,,,,,,,,,,,,,,,,,,,,,,,,,,,,,,,,,,,,,,,,,,,,,,,,,,,,,,,,,,,,,,,,,,,,,,,,,,,,,,,,,,,,,,,,,,,,,,,,,,,,,,,,,,,,,,,,,,,,,,,,,,,,,,,,,,,,,,,,,,,,,013021,0,1,2,3,1,12,2021_Jan_30_1154,short_answer,3.2.4,60.20312401646325,
,6,,,,,0,6,6,6,0,0,0,0,,,,,,,,,,,,,,,,,712.1622909639991,None,space,1.151848952000364,712.1622909639991,None,712.1622909639991,None,712.1622909639991,None,713.3621910040001,None,713.3621910040001,None,"Noon, because ariana had another class",Large and spacious ,"[2, 1]",714.4783614529988,None,714.4783614529988,None,714.4783614529988,None,714.4783614529988,None,714.4783614529988,None,714.4783614529988,None,714.4783614529988,None,They are in history class taking about ancient egyptian mummification,720.346943397999,None,720.346943397999,None,720.346943397999,None,720.346943397999,None,720.346943397999,None,720.346943397999,None,720.346943397999,None,The binding practices of mummification based on the book of the dead,734.846421459999,None,734.846421459999,None,734.846421459999,None,734.846421459999,None,734.846421459999,None,734.846421459999,None,734.846421459999,None,Assignment is due next week,756.7124816249998,None,756.7124816249998,None,756.7124816249998,None,756.7124816249998,None,756.7124816249998,None,756.7124816249998,None,756.7124816249998,None,Ariana noticed leon when leon passes a note to her asking her if she's from la,768.6296169409998,None,768.6296169409998,None,768.6296169409998,None,768.6296169409998,None,768.6296169409998,None,768.6296169409998,None,768.6296169409998,None,Where is ariana from,806.8448244169995,None,806.8448244169995,None,806.8448244169995,None,806.8448244169995,None,806.8448244169995,None,806.8448244169995,None,806.8448244169995,None,They will meet together for a walk in the evening,815.7620411939988,None,815.7620411939988,None,815.7620411939988,None,815.7620411939988,None,815.7620411939988,None,815.7620411939988,None,815.7620411939988,None,"Noon, because ariana had another class",826.2286140469987,None,826.2286140469987,None,826.2286140469987,None,826.2286140469987,None,826.2286140469987,None,826.2286140469987,None,826.2286140469987,None,,,013021,0,1,2,3,1,12,2021_Jan_30_1154,short_answer,3.2.4,60.20312401646325,
,6,,,,,0,6,6,6,,,,,,,,,,,,,,,,,,,,,,,,,,,,,,,,,,,,,,,,,,,,,,,,,,,,,,,,,,,,,,,,,,,,,,,,,,,,,,,,,,,,,,,,,,,,,,,,,,,,,,,,,,,,,,,,,,,,,,,,,,,,,,,,,,,,,,,,,,,,,,,,,,,,,,,,,,,,,,,013021,0,1,2,3,1,12,2021_Jan_30_1154,short_answer,3.2.4,60.20312401646325,
,7,,,,,0,7,7,7,,,,,,,,,,,,,,,,,,,,,,,,,,,,,,,,,,,,,,,,,,,,,,,,,,,,,,,,,,,,,,,,,,,,,,,,,,,,,,,,,,,,,,,,,,,,,,,,,,,,,,,,,,,,,,,,,,,,,,,,,,,,,,,,,,,,,,,,,,,,,,,,,,,,,,,,,,,,,,,013021,0,1,2,3,1,12,2021_Jan_30_1154,short_answer,3.2.4,60.20312401646325,
,8,,,,,0,8,8,8,,,,,,,,,,,,,,,,,,,,,,,,,,,,,,,,,,,,,,,,,,,,,,,,,,,,,,,,,,,,,,,,,,,,,,,,,,,,,,,,,,,,,,,,,,,,,,,,,,,,,,,,,,,,,,,,,,,,,,,,,,,,,,,,,,,,,,,,,,,,,,,,,,,,,,,,,,,,,,,013021,0,1,2,3,1,12,2021_Jan_30_1154,short_answer,3.2.4,60.20312401646325,
,9,,,,,0,9,9,9,0,0,0,0,,,,,,,,,,,,,,,,,840.1938562939995,None,space,2.0591244570005074,840.1938562939995,None,840.1938562939995,None,840.1938562939995,None,842.2948888559986,None,842.2948888559986,None,A11,They are ceos  ,"[1, 2]",843.5272895589987,None,843.5272895589987,None,843.5272895589987,None,843.5272895589987,None,843.5272895589987,None,843.5272895589987,None,843.5272895589987,None,,850.8946951019989,None,850.8946951019989,None,850.8946951019989,None,850.8946951019989,None,850.8946951019989,None,850.8946951019989,None,850.8946951019989,None,,853.34447387,None,853.34447387,None,853.34447387,None,853.34447387,None,853.34447387,None,853.34447387,None,853.34447387,None,Handshake,856.0282038009991,None,856.0282038009991,None,856.0282038009991,None,856.0282038009991,None,856.0282038009991,None,856.0282038009991,None,856.0282038009991,None,2 hours,860.4610297700001,None,860.4610297700001,None,860.4610297700001,None,860.4610297700001,None,860.4610297700001,None,860.4610297700001,None,860.4610297700001,None,,872.2947397999997,None,872.2947397999997,None,872.2947397999997,None,872.2947397999997,None,872.2947397999997,None,872.2947397999997,None,872.2947397999997,None,A11,877.3943039939986,None,877.3943039939986,None,877.3943039939986,None,877.3943039939986,None,877.3943039939986,None,877.3943039939986,None,877.3943039939986,None,A11,879.9779730129994,None,879.9779730129994,None,879.9779730129994,None,879.9779730129994,None,879.9779730129994,None,879.9779730129994,None,879.9779730129994,None,,,013021,0,1,2,3,1,12,2021_Jan_30_1154,short_answer,3.2.4,60.20312401646325,
,9,,,,,0,9,9,9,,,,,,,,,,,,,,,,,,,,,,,,,,,,,,,,,,,,,,,,,,,,,,,,,,,,,,,,,,,,,,,,,,,,,,,,,,,,,,,,,,,,,,,,,,,,,,,,,,,,,,,,,,,,,,,,,,,,,,,,,,,,,,,,,,,,,,,,,,,,,,,,,,,,,,,,,,,,,,,013021,0,1,2,3,1,12,2021_Jan_30_1154,short_answer,3.2.4,60.20312401646325,
,10,,,,,0,10,10,10,,,,,,,,,,,,,,,,,,,,,,,,,,,,,,,,,,,,,,,,,,,,,,,,,,,,,,,,,,,,,,,,,,,,,,,,,,,,,,,,,,,,,,,,,,,,,,,,,,,,,,,,,,,,,,,,,,,,,,,,,,,,,,,,,,,,,,,,,,,,,,,,,,,,,,,,,,,,,,,013021,0,1,2,3,1,12,2021_Jan_30_1154,short_answer,3.2.4,60.20312401646325,
,11,,,,,0,11,11,11,0,0,0,0,,,,,,,,,,,,,,,,,881.843601261,None,space,1.271985716000927,881.843601261,None,881.843601261,None,881.843601261,None,883.1609955149997,None,883.1609955149997,None,Handshake,Big and spacious,"[2, 1]",884.3945715409991,None,884.3945715409991,None,884.3945715409991,None,884.3945715409991,None,884.3945715409991,None,884.3945715409991,None,884.3945715409991,None,They are in an archeology class learning about the romans,891.3942063499999,None,891.3942063499999,None,891.3942063499999,None,891.3942063499999,None,891.3942063499999,None,891.3942063499999,None,891.3942063499999,None,They were discussing cesaer and how they thought themselves to be better than the ancient greeks,909.1768004939986,None,909.1768004939986,None,909.1768004939986,None,909.1768004939986,None,909.1768004939986,None,909.1768004939986,None,909.1768004939986,None,Assignment due next week,949.6433597389987,None,949.6433597389987,None,949.6433597389987,None,949.6433597389987,None,949.6433597389987,None,949.6433597389987,None,949.6433597389987,None,"Charlie is an investor, alma is an entrepeneur ",965.3267813330003,None,965.3267813330003,None,965.3267813330003,None,965.3267813330003,None,965.3267813330003,None,965.3267813330003,None,965.3267813330003,None,Somewhere around 50k,977.4099807739985,None,977.4099807739985,None,977.4099807739985,None,977.4099807739985,None,977.4099807739985,None,977.4099807739985,None,977.4099807739985,None,"Citibank, citigroup... citi-something",991.5762543279998,None,991.5762543279998,None,991.5762543279998,None,991.5762543279998,None,991.5762543279998,None,991.5762543279998,None,991.5762543279998,None,Handshake,1008.3764001719992,None,1008.3764001719992,None,1008.3764001719992,None,1008.3764001719992,None,1008.3764001719992,None,1008.3764001719992,None,1008.3764001719992,None,,,013021,0,1,2,3,1,12,2021_Jan_30_1154,short_answer,3.2.4,60.20312401646325,
,11,,,,,0,11,11,11,,,,,,,,,,,,,,,,,,,,,,,,,,,,,,,,,,,,,,,,,,,,,,,,,,,,,,,,,,,,,,,,,,,,,,,,,,,,,,,,,,,,,,,,,,,,,,,,,,,,,,,,,,,,,,,,,,,,,,,,,,,,,,,,,,,,,,,,,,,,,,,,,,,,,,,,,,,,,,,013021,0,1,2,3,1,12,2021_Jan_30_1154,short_answer,3.2.4,60.20312401646325,
,12,,,,,0,12,12,12,0,0,0,0,,,,,,,,,,,,,,,,,1014.7585581739986,None,space,1.1020899949999148,1014.7585581739986,None,1014.7585581739986,None,1014.7585581739986,None,1015.9091131360001,None,1015.9091131360001,None,The food was good,They were both having dinner alone at the same restaurant,"[1, 2]",1017.0597650199998,None,1017.0597650199998,None,1017.0597650199998,None,1017.0597650199998,None,1017.0597650199998,None,1017.0597650199998,None,1017.0597650199998,None,Something about the food,1027.9254658970003,None,1027.9254658970003,None,1027.9254658970003,None,1027.9254658970003,None,1027.9254658970003,None,1027.9254658970003,None,1027.9254658970003,None,They will meet the next day for dinner,1051.8259101089989,None,1051.8259101089989,None,1051.8259101089989,None,1051.8259101089989,None,1051.8259101089989,None,1051.8259101089989,None,1051.8259101089989,None,The evening,1073.5418174919996,None,1073.5418174919996,None,1073.5418174919996,None,1073.5418174919996,None,1073.5418174919996,None,1073.5418174919996,None,1073.5418174919996,None,"Bright, outdoors, with hanging decore",1079.4421276499997,None,1079.4421276499997,None,1079.4421276499997,None,1079.4421276499997,None,1079.4421276499997,None,1079.4421276499997,None,1079.4421276499997,None,,1108.6742465059997,None,1108.6742465059997,None,1108.6742465059997,None,1108.6742465059997,None,1108.6742465059997,None,1108.6742465059997,None,1108.6742465059997,None,,1111.1749836219988,None,1111.1749836219988,None,1111.1749836219988,None,1111.1749836219988,None,1111.1749836219988,None,1111.1749836219988,None,1111.1749836219988,None,The food was good,1113.4424834419988,None,1113.4424834419988,None,1113.4424834419988,None,1113.4424834419988,None,1113.4424834419988,None,1113.4424834419988,None,1113.4424834419988,None,,,013021,0,1,2,3,1,12,2021_Jan_30_1154,short_answer,3.2.4,60.20312401646325,
,12,,,,,0,12,12,12,,,,,,,,,,,,,,,,,,,,,,,,,,,,,,,,,,,,,,,,,,,,,,,,,,,,,,,,,,,,,,,,,,,,,,,,,,,,,,,,,,,,,,,,,,,,,,,,,,,,,,,,,,,,,,,,,,,,,,,,,,,,,,,,,,,,,,,,,,,,,,,,,,,,,,,,,,,,,,,013021,0,1,2,3,1,12,2021_Jan_30_1154,short_answer,3.2.4,60.20312401646325,
,13,,,,,0,13,13,13,0,0,0,0,,,,,,,,,,,,,,,,,1120.990908447,None,space,1.8834319389989105,1120.990908447,None,1120.990908447,None,1120.990908447,None,1122.9246041039987,None,1122.9246041039987,None,Simon pays for both him and carina on his credit card and calls it a first date,  ,"[1, 2]",1124.4241192699992,None,1124.4241192699992,None,1124.4241192699992,None,1124.4241192699992,None,1124.4241192699992,None,1124.4241192699992,None,1124.4241192699992,None,,1161.024256192999,None,1161.024256192999,None,1161.024256192999,None,1161.024256192999,None,1161.024256192999,None,1161.024256192999,None,1161.024256192999,None,,1162.673955671,None,1162.673955671,None,1162.673955671,None,1162.673955671,None,1162.673955671,None,1162.673955671,None,1162.673955671,None,,1166.0901010910002,None,1166.0901010910002,None,1166.0901010910002,None,1166.0901010910002,None,1166.0901010910002,None,1166.0901010910002,None,1166.0901010910002,None,It was big with a high rise dark ceiling,1167.440757553999,None,1167.440757553999,None,1167.440757553999,None,1167.440757553999,None,1167.440757553999,None,1167.440757553999,None,1167.440757553999,None,Food,1225.4899069909989,None,1225.4899069909989,None,1225.4899069909989,None,1225.4899069909989,None,1225.4899069909989,None,1225.4899069909989,None,1225.4899069909989,None,10,1232.123439224999,None,1232.123439224999,None,1232.123439224999,None,1232.123439224999,None,1232.123439224999,None,1232.123439224999,None,1232.123439224999,None,Simon pays for both him and carina on his credit card and calls it a first date,1240.9567009679995,None,1240.9567009679995,None,1240.9567009679995,None,1240.9567009679995,None,1240.9567009679995,None,1240.9567009679995,None,1240.9567009679995,None,,,013021,0,1,2,3,1,12,2021_Jan_30_1154,short_answer,3.2.4,60.20312401646325,
,13,,,,,0,13,13,13,,,,,,,,,,,,,,,,,,,,,,,,,,,,,,,,,,,,,,,,,,,,,,,,,,,,,,,,,,,,,,,,,,,,,,,,,,,,,,,,,,,,,,,,,,,,,,,,,,,,,,,,,,,,,,,,,,,,,,,,,,,,,,,,,,,,,,,,,,,,,,,,,,,,,,,,,,,,,,,013021,0,1,2,3,1,12,2021_Jan_30_1154,short_answer,3.2.4,60.20312401646325,
,14,,,,,0,14,14,14,0,0,0,0,,,,,,,,,,,,,,,,,1265.1720283639988,None,space,1.170479690999855,1265.1720283639988,None,1265.1720283639988,None,1265.1720283639988,None,1266.389419584999,None,1266.389419584999,None,,Jessie has been thinking about breaking up with calvin since before the vacation they went on,"[1, 2]",1267.7563852719995,None,1267.7563852719995,None,1267.7563852719995,None,1267.7563852719995,None,1267.7563852719995,None,1267.7563852719995,None,1267.7563852719995,None,She thinks that her personality and his are incompatable,1292.3895664020001,None,1292.3895664020001,None,1292.3895664020001,None,1292.3895664020001,None,1292.3895664020001,None,1292.3895664020001,None,1292.3895664020001,None,"Calvin is ok with them breaking up but wishes that jessie told him sooner that he she didn't think they were compatable, specifically before the vacation, and that she doesn't appreciate all the effort he made for her",1320.8224473439986,None,1320.8224473439986,None,1320.8224473439986,None,1320.8224473439986,None,1320.8224473439986,None,1320.8224473439986,None,1320.8224473439986,None,Jessie wants her philosophy books back from calvin,1399.7880551119997,None,1399.7880551119997,None,1399.7880551119997,None,1399.7880551119997,None,1399.7880551119997,None,1399.7880551119997,None,1399.7880551119997,None,About an hour,1413.4055963640003,None,1413.4055963640003,None,1413.4055963640003,None,1413.4055963640003,None,1413.4055963640003,None,1413.4055963640003,None,1413.4055963640003,None,,1421.6377842829988,None,1421.6377842829988,None,1421.6377842829988,None,1421.6377842829988,None,1421.6377842829988,None,1421.6377842829988,None,1421.6377842829988,None,,1423.937777219,None,1423.937777219,None,1423.937777219,None,1423.937777219,None,1423.937777219,None,1423.937777219,None,1423.937777219,None,,1425.2038031720003,None,1425.2038031720003,None,1425.2038031720003,None,1425.2038031720003,None,1425.2038031720003,None,1425.2038031720003,None,1425.2038031720003,None,,,013021,0,1,2,3,1,12,2021_Jan_30_1154,short_answer,3.2.4,60.20312401646325,
,14,,,,,0,14,14,14,,,,,,,,,,,,,,,,,,,,,,,,,,,,,,,,,,,,,,,,,,,,,,,,,,,,,,,,,,,,,,,,,,,,,,,,,,,,,,,,,,,,,,,,,,,,,,,,,,,,,,,,,,,,,,,,,,,,,,,,,,,,,,,,,,,,,,,,,,,,,,,,,,,,,,,,,,,,,,,013021,0,1,2,3,1,12,2021_Jan_30_1154,short_answer,3.2.4,60.20312401646325,
,15,,,,,0,15,15,15,0,0,0,0,,,,,,,,,,,,,,,,,1426.902740698999,None,space,2.6088161740008218,1426.902740698999,None,1426.902740698999,None,1426.902740698999,None,1429.553598573999,None,1429.553598573999,None,They liked it,11 months  ,"[1, 2]",1430.670671242,None,1430.670671242,None,1430.670671242,None,1430.670671242,None,1430.670671242,None,1430.670671242,None,1430.670671242,None,3 canary colored diamonds,1434.8715621739993,None,1434.8715621739993,None,1434.8715621739993,None,1434.8715621739993,None,1434.8715621739993,None,1434.8715621739993,None,1434.8715621739993,None,A box,1444.2540043070003,None,1444.2540043070003,None,1444.2540043070003,None,1444.2540043070003,None,1444.2540043070003,None,1444.2540043070003,None,1444.2540043070003,None,Her dad,1448.1204964539993,None,1448.1204964539993,None,1448.1204964539993,None,1448.1204964539993,None,1448.1204964539993,None,1448.1204964539993,None,1448.1204964539993,None,With tomaoes,1452.0374402859998,None,1452.0374402859998,None,1452.0374402859998,None,1452.0374402859998,None,1452.0374402859998,None,1452.0374402859998,None,1452.0374402859998,None,,1457.3532263919988,None,1457.3532263919988,None,1457.3532263919988,None,1457.3532263919988,None,1457.3532263919988,None,1457.3532263919988,None,1457.3532263919988,None,Pasta,1459.7706304999992,None,1459.7706304999992,None,1459.7706304999992,None,1459.7706304999992,None,1459.7706304999992,None,1459.7706304999992,None,1459.7706304999992,None,They liked it,1463.8703067730003,None,1463.8703067730003,None,1463.8703067730003,None,1463.8703067730003,None,1463.8703067730003,None,1463.8703067730003,None,1463.8703067730003,None,,,013021,0,1,2,3,1,12,2021_Jan_30_1154,short_answer,3.2.4,60.20312401646325,
,15,,,,,0,15,15,15,,,,,,,,,,,,,,,,,,,,,,,,,,,,,,,,,,,,,,,,,,,,,,,,,,,,,,,,,,,,,,,,,,,,,,,,,,,,,,,,,,,,,,,,,,,,,,,,,,,,,,,,,,,,,,,,,,,,,,,,,,,,,,,,,,,,,,,,,,,,,,,,,,,,,,,,,,,,,,,013021,0,1,2,3,1,12,2021_Jan_30_1154,short_answer,3.2.4,60.20312401646325,
,,,,,,,,,,,,,,0,0,0,0,,,,,,,,,,,,,,,,,,,,,,,,,,,,,,,,,,,,,,,,,,,,,,,,,,,,,,,,,,,,,,,,,,,,,,,,,,,,,,,,,,,,,,,,,,,,,,,,,,,,,,,,,,,,,,,,,,,,,,,,,,,,,,,,,,,,,,,,,,,,,,,,,,,,,1468.5519517659995,None,013021,0,1,2,3,1,12,2021_Jan_30_1154,short_answer,3.2.4,60.20312401646325,
