count,audio,trials_14.thisRepN,trials_14.thisTrialN,trials_14.thisN,trials_14.thisIndex,trials_3.thisRepN,trials_3.thisTrialN,trials_3.thisN,trials_3.thisIndex,trials_4.thisRepN,trials_4.thisTrialN,trials_4.thisN,trials_4.thisIndex,trials_6.thisRepN,trials_6.thisTrialN,trials_6.thisN,trials_6.thisIndex,trials_9.thisRepN,trials_9.thisTrialN,trials_9.thisN,trials_9.thisIndex,trials_10.thisRepN,trials_10.thisTrialN,trials_10.thisN,trials_10.thisIndex,trials_11.thisRepN,trials_11.thisTrialN,trials_11.thisN,trials_11.thisIndex,trials_12.thisRepN,trials_12.thisTrialN,trials_12.thisN,trials_12.thisIndex,trials_25.thisRepN,trials_25.thisTrialN,trials_25.thisN,trials_25.thisIndex,trials_15.thisRepN,trials_15.thisTrialN,trials_15.thisN,trials_15.thisIndex,trials_26.thisRepN,trials_26.thisTrialN,trials_26.thisN,trials_26.thisIndex,trials_8.thisRepN,trials_8.thisTrialN,trials_8.thisN,trials_8.thisIndex,story_list_block2,action_list_block2,textTrigger.started,textTrigger.stopped,getTrigger.keys,getTrigger.rt,getTrigger.started,getTrigger.stopped,triggerTime,text_76.started,text_76.stopped,text_77.started,text_77.stopped,startWait,endWait,image_23.started,image_23.stopped,text_55.started,text_55.stopped,text_56.started,text_56.stopped,key_resp_2.keys,key_resp_2.rt,key_resp_2.started,key_resp_2.stopped,text_82.started,text_82.stopped,text_57.started,text_57.stopped,key_resp_17.keys,key_resp_17.rt,key_resp_17.started,key_resp_17.stopped,text_83.started,text_83.stopped,text_60.started,text_60.stopped,image_2.started,image_2.stopped,text_58.started,text_58.stopped,key_resp_23.keys,key_resp_23.rt,key_resp_23.started,key_resp_23.stopped,text_62.started,text_62.stopped,key_resp_18.keys,key_resp_18.rt,key_resp_18.started,key_resp_18.stopped,text_84.started,text_84.stopped,question1_2.started,question1_2.stopped,question2_2.started,question2_2.stopped,question3_2.started,question3_2.stopped,question4_2.started,question4_2.stopped,question5_2.started,question5_2.stopped,question6_2.started,question6_2.stopped,image_15.started,image_15.stopped,key_resp.keys,key_resp.started,key_resp.stopped,text_59.started,text_59.stopped,key_resp_19.keys,key_resp_19.rt,key_resp_19.started,key_resp_19.stopped,text_85.started,text_85.stopped,text_61.started,text_61.stopped,image_17.started,image_17.stopped,text_63.started,text_63.stopped,key_resp_24.keys,key_resp_24.rt,key_resp_24.started,key_resp_24.stopped,text_64.started,text_64.stopped,key_resp_20.keys,key_resp_20.rt,key_resp_20.started,key_resp_20.stopped,storyImage_StartTime,storyImage_EndTime,clip_StartTime,clip_EndTime,text_67.started,text_67.stopped,text_68.started,text_68.stopped,text_36.started,text_36.stopped,participant,sA,sB,lA,lB,block_struct,play_stories,block,behavioral,random_seed,date,expName,psychopyVersion,frameRate,
0,,,,,,,,,,0,0,0,0,0,0,0,0,0,0,0,0,0,0,0,0,0,0,0,0,,,,,,,,,,,,,,,,,,,,,[41 43 23 14 34 21 12 32],[1 3 2 1 4 4 3 2],16.235087499000656,None,equal,30.190099550000014,16.235087499000656,None,30.214615140000205,16.235087499000656,None,16.235087499000656,None,0.0003689260001920047,5.999124743999346,46.45197697900039,None,52.46905060000063,None,52.46905060000063,None,1,0.8839756030001809,52.46905060000063,None,52.46905060000063,None,53.385739708000074,None,1,1.5234575340000447,53.385739708000074,None,53.385739708000074,None,54.951978410000265,None,54.951978410000265,None,54.951978410000265,None,1,1.5912233170001855,54.951978410000265,None,56.569522331999906,None,1,1.3974983779999093,56.569522331999906,None,56.569522331999906,None,58.06804369400015,None,58.06804369400015,None,58.06804369400015,None,58.06804369400015,None,58.06804369400015,None,58.06804369400015,None,58.06804369400015,None,None,58.06804369400015,None,,,,,,,,,,,,,,,,,,,,,,,,,,,,,,,,,,,032822,0,3,1,2,1,1,2,0,32,2022_Mar_28_1029,listening_fmri,3.2.4,59.88652437853629,
0,,,,,,,,,,0,0,0,0,0,0,0,0,0,0,0,0,0,0,0,0,,,,,,,,,,,,,,,,,,,,,,,,,,,,,,,,,,,,,,,,,,,,,,,,,,,,,,,,,,,,,,,,,,,,,,,,,,,,,,,,,,,,,,,,,,,,,,,74.1692925010002,None,1,0.8219016709999778,74.1692925010002,None,74.1692925010002,None,75.03526191800029,None,75.03526191800029,None,75.03526191800029,None,1,0.8028670020003119,75.03526191800029,None,,,,,,,,,,,,,,,,,032822,0,3,1,2,1,1,2,0,32,2022_Mar_28_1029,listening_fmri,3.2.4,59.88652437853629,
0,parcelated_audio/41/41_1.ogg,,,,,,,,,0,0,0,0,0,0,0,0,0,0,0,0,,,,,,,,,,,,,0,0,0,0,0,0,0,0,,,,,,,,,,,,,,,,,,,,,,,,,,,,,,,,,,,,,,,,,,,,,,,,,,,,,,,,,,,,,,,,,,,,,,,,,,,,,,,,,,,,,,,,,,,,,,,,,75.86876592499993,None,1,1.609363444000337,75.86876592499993,None,31.058361286000036,34.06586090400015,34.074222266000106,43.195147372000065,,,,,,,032822,0,3,1,2,1,1,2,0,32,2022_Mar_28_1029,listening_fmri,3.2.4,59.88652437853629,
0,parcelated_audio/41/41_2.ogg,,,,,,,,,0,0,0,0,0,0,0,0,0,0,0,0,,,,,,,,,,,,,0,0,0,0,0,1,1,1,,,,,,,,,,,,,,,,,,,,,,,,,,,,,,,,,,,,,,,,,,,,,,,,,,,,,,,,,,,,,,,,,,,,,,,,,,,,,,,,,,,,,,,,,,,,,,,,,,,,,,,,,43.19547653999962,50.436098164000214,,,,,,,032822,0,3,1,2,1,1,2,0,32,2022_Mar_28_1029,listening_fmri,3.2.4,59.88652437853629,
0,parcelated_audio/41/41_3.ogg,,,,,,,,,0,0,0,0,0,0,0,0,0,0,0,0,,,,,,,,,,,,,0,0,0,0,0,2,2,2,,,,,,,,,,,,,,,,,,,,,,,,,,,,,,,,,,,,,,,,,,,,,,,,,,,,,,,,,,,,,,,,,,,,,,,,,,,,,,,,,,,,,,,,,,,,,,,,,,,,,,,,,50.4363697660001,54.73360455399961,,,,,,,032822,0,3,1,2,1,1,2,0,32,2022_Mar_28_1029,listening_fmri,3.2.4,59.88652437853629,
0,parcelated_audio/41/41_4.ogg,,,,,,,,,0,0,0,0,0,0,0,0,0,0,0,0,,,,,,,,,,,,,0,0,0,0,0,3,3,3,,,,,,,,,,,,,,,,,,,,,,,,,,,,,,,,,,,,,,,,,,,,,,,,,,,,,,,,,,,,,,,,,,,,,,,,,,,,,,,,,,,,,,,,,,,,,,,,,,,,,,,,,54.73408963299971,58.725735363999775,,,,,,,032822,0,3,1,2,1,1,2,0,32,2022_Mar_28_1029,listening_fmri,3.2.4,59.88652437853629,
0,parcelated_audio/41/41_5.ogg,,,,,,,,,0,0,0,0,0,0,0,0,0,0,0,0,,,,,,,,,,,,,0,0,0,0,0,4,4,4,,,,,,,,,,,,,,,,,,,,,,,,,,,,,,,,,,,,,,,,,,,,,,,,,,,,,,,,,,,,,,,,,,,,,,,,,,,,,,,,,,,,,,,,,,,,,,,,,,,,,,,,,58.72607775300003,64.86474131199975,,,,,,,032822,0,3,1,2,1,1,2,0,32,2022_Mar_28_1029,listening_fmri,3.2.4,59.88652437853629,
0,parcelated_audio/41/41_6.ogg,,,,,,,,,0,0,0,0,0,0,0,0,0,0,0,0,,,,,,,,,,,,,0,0,0,0,0,5,5,5,,,,,,,,,,,,,,,,,,,,,,,,,,,,,,,,,,,,,,,,,,,,,,,,,,,,,,,,,,,,,,,,,,,,,,,,,,,,,,,,,,,,,,,,,,,,,,,,,,,,,,,,,64.865096816,74.79259707399979,,,,,,,032822,0,3,1,2,1,1,2,0,32,2022_Mar_28_1029,listening_fmri,3.2.4,59.88652437853629,
0,parcelated_audio/41/41_7.ogg,,,,,,,,,0,0,0,0,0,0,0,0,0,0,0,0,,,,,,,,,,,,,0,0,0,0,0,6,6,6,,,,,,,,,,,,,,,,,,,,,,,,,,,,,,,,,,,,,,,,,,,,,,,,,,,,,,,,,,,,,,,,,,,,,,,,,,,,,,,,,,,,,,,,,,,,,,,,,,,,,,,,,74.7930584629994,82.52060315200015,,,,,,,032822,0,3,1,2,1,1,2,0,32,2022_Mar_28_1029,listening_fmri,3.2.4,59.88652437853629,
0,parcelated_audio/41/41_8.ogg,,,,,,,,,0,0,0,0,0,0,0,0,0,0,0,0,,,,,,,,,,,,,0,0,0,0,0,7,7,7,,,,,,,,,,,,,,,,,,,,,,,,,,,,,,,,,,,,,,,,,,,,,,,,,,,,,,,,,,,,,,,,,,,,,,,,,,,,,,,,,,,,,,,,,,,,,,,,,,,,,,,,,82.52095379399998,86.76265338599933,,,,,,,032822,0,3,1,2,1,1,2,0,32,2022_Mar_28_1029,listening_fmri,3.2.4,59.88652437853629,
0,parcelated_audio/41/41_9.ogg,,,,,,,,,0,0,0,0,0,0,0,0,0,0,0,0,,,,,,,,,,,,,0,0,0,0,0,8,8,8,,,,,,,,,,,,,,,,,,,,,,,,,,,,,,,,,,,,,,,,,,,,,,,,,,,,,,,,,,,,,,,,,,,,,,,,,,,,,,,,,,,,,,,,,,,,,,,,,,,,,,,,,86.76300838299994,96.41384270199978,,,,,,,032822,0,3,1,2,1,1,2,0,32,2022_Mar_28_1029,listening_fmri,3.2.4,59.88652437853629,
0,parcelated_audio/41/41_10.ogg,,,,,,,,,0,0,0,0,0,0,0,0,0,0,0,0,,,,,,,,,,,,,0,0,0,0,0,9,9,9,,,,,,,,,,,,,,,,,,,,,,,,,,,,,,,,,,,,,,,,,,,,,,,,,,,,,,,,,,,,,,,,,,,,,,,,,,,,,,,,,,,,,,,,,,,,,,,,,,,,,,,,,96.4141929870002,102.9301500470001,,,,,,,032822,0,3,1,2,1,1,2,0,32,2022_Mar_28_1029,listening_fmri,3.2.4,59.88652437853629,
0,parcelated_audio/41/41_11.ogg,,,,,,,,,0,0,0,0,0,0,0,0,0,0,0,0,,,,,,,,,,,,,0,0,0,0,0,10,10,10,,,,,,,,,,,,,,,,,,,,,,,,,,,,,,,,,,,,,,,,,,,,,,,,,,,,,,,,,,,,,,,,,,,,,,,,,,,,,,,,,,,,,,,,,,,,,,,,,,,,,,,,,102.93069432499942,106.70974703399952,,,,,,,032822,0,3,1,2,1,1,2,0,32,2022_Mar_28_1029,listening_fmri,3.2.4,59.88652437853629,
0,parcelated_audio/41/41_12.ogg,,,,,,,,,0,0,0,0,0,0,0,0,0,0,0,0,,,,,,,,,,,,,0,0,0,0,0,11,11,11,,,,,,,,,,,,,,,,,,,,,,,,,,,,,,,,,,,,,,,,,,,,,,,,,,,,,,,,,,,,,,,,,,,,,,,,,,,,,,,,,,,,,,,,,,,,,,,,,,,,,,,,,106.71010069699969,116.44849437799985,,,,,,,032822,0,3,1,2,1,1,2,0,32,2022_Mar_28_1029,listening_fmri,3.2.4,59.88652437853629,
0,parcelated_audio/41/41_13.ogg,,,,,,,,,0,0,0,0,0,0,0,0,0,0,0,0,,,,,,,,,,,,,0,0,0,0,0,12,12,12,,,,,,,,,,,,,,,,,,,,,,,,,,,,,,,,,,,,,,,,,,,,,,,,,,,,,,,,,,,,,,,,,,,,,,,,,,,,,,,,,,,,,,,,,,,,,,,,,,,,,,,,,116.4488589169996,122.26478660599969,,,,,,,032822,0,3,1,2,1,1,2,0,32,2022_Mar_28_1029,listening_fmri,3.2.4,59.88652437853629,
0,parcelated_audio/41/41_14.ogg,,,,,,,,,0,0,0,0,0,0,0,0,0,0,0,0,,,,,,,,,,,,,0,0,0,0,0,13,13,13,,,,,,,,,,,,,,,,,,,,,,,,,,,,,,,,,,,,,,,,,,,,,,,,,,,,,,,,,,,,,,,,,,,,,,,,,,,,,,,,,,,,,,,,,,,,,,,,,,,,,,,,,122.26516891199935,129.49715121400004,,,,,,,032822,0,3,1,2,1,1,2,0,32,2022_Mar_28_1029,listening_fmri,3.2.4,59.88652437853629,
0,parcelated_audio/41/41_15.ogg,,,,,,,,,0,0,0,0,0,0,0,0,0,0,0,0,,,,,,,,,,,,,0,0,0,0,0,14,14,14,,,,,,,,,,,,,,,,,,,,,,,,,,,,,,,,,,,,,,,,,,,,,,,,,,,,,,,,,,,,,,,,,,,,,,,,,,,,,,,,,,,,,,,,,,,,,,,,,,,,,,,,,129.49741787199946,132.92679792699982,,,,,,,032822,0,3,1,2,1,1,2,0,32,2022_Mar_28_1029,listening_fmri,3.2.4,59.88652437853629,
0,parcelated_audio/41/41_16.ogg,,,,,,,,,0,0,0,0,0,0,0,0,0,0,0,0,,,,,,,,,,,,,0,0,0,0,0,15,15,15,,,,,,,,,,,,,,,,,,,,,,,,,,,,,,,,,,,,,,,,,,,,,,,,,,,,,,,,,,,,,,,,,,,,,,,,,,,,,,,,,,,,,,,,,,,,,,,,,,,,,,,,,132.92733171599957,137.7966229599997,,,,,,,032822,0,3,1,2,1,1,2,0,32,2022_Mar_28_1029,listening_fmri,3.2.4,59.88652437853629,
0,parcelated_audio/41/41_17.ogg,,,,,,,,,0,0,0,0,0,0,0,0,0,0,0,0,,,,,,,,,,,,,0,0,0,0,0,16,16,16,,,,,,,,,,,,,,,,,,,,,,,,,,,,,,,,,,,,,,,,,,,,,,,,,,,,,,,,,,,,,,,,,,,,,,,,,,,,,,,,,,,,,,,,,,,,,,,,,,,,,,,,,137.79697914999997,141.97472126799948,,,,,,,032822,0,3,1,2,1,1,2,0,32,2022_Mar_28_1029,listening_fmri,3.2.4,59.88652437853629,
0,parcelated_audio/41/41_18.ogg,,,,,,,,,0,0,0,0,0,0,0,0,0,0,0,0,,,,,,,,,,,,,0,0,0,0,0,17,17,17,,,,,,,,,,,,,,,,,,,,,,,,,,,,,,,,,,,,,,,,,,,,,,,,,,,,,,,,,,,,,,,,,,,,,,,,,,,,,,,,,,,,,,,,,,,,,,,,,,,,,,,,,141.9750688919994,144.52167393499985,,,,,,,032822,0,3,1,2,1,1,2,0,32,2022_Mar_28_1029,listening_fmri,3.2.4,59.88652437853629,
0,parcelated_audio/41/41_19.ogg,,,,,,,,,0,0,0,0,0,0,0,0,0,0,0,0,,,,,,,,,,,,,0,0,0,0,0,18,18,18,,,,,,,,,,,,,,,,,,,,,,,,,,,,,,,,,,,,,,,,,,,,,,,,,,,,,,,,,,,,,,,,,,,,,,,,,,,,,,,,,,,,,,,,,,,,,,,,,,,,,,,,,144.52202551199935,151.40363543500007,,,,,,,032822,0,3,1,2,1,1,2,0,32,2022_Mar_28_1029,listening_fmri,3.2.4,59.88652437853629,
0,parcelated_audio/41/41_20.ogg,,,,,,,,,0,0,0,0,0,0,0,0,0,0,0,0,,,,,,,,,,,,,0,0,0,0,0,19,19,19,,,,,,,,,,,,,,,,,,,,,,,,,,,,,,,,,,,,,,,,,,,,,,,,,,,,,,,,,,,,,,,,,,,,,,,,,,,,,,,,,,,,,,,,,,,,,,,,,,,,,,,,,151.40398221899977,156.3349328939994,,,,,,,032822,0,3,1,2,1,1,2,0,32,2022_Mar_28_1029,listening_fmri,3.2.4,59.88652437853629,
0,parcelated_audio/41/41_21.ogg,,,,,,,,,0,0,0,0,0,0,0,0,0,0,0,0,,,,,,,,,,,,,0,0,0,0,0,20,20,20,,,,,,,,,,,,,,,,,,,,,,,,,,,,,,,,,,,,,,,,,,,,,,,,,,,,,,,,,,,,,,,,,,,,,,,,,,,,,,,,,,,,,,,,,,,,,,,,,,,,,,,,,156.33528644799935,164.13650335300008,,,,,,,032822,0,3,1,2,1,1,2,0,32,2022_Mar_28_1029,listening_fmri,3.2.4,59.88652437853629,
0,parcelated_audio/41/41_22.ogg,,,,,,,,,0,0,0,0,0,0,0,0,0,0,0,0,,,,,,,,,,,,,0,0,0,0,0,21,21,21,,,,,,,,,,,,,,,,,,,,,,,,,,,,,,,,,,,,,,,,,,,,,,,,,,,,,,,,,,,,,,,,,,,,,,,,,,,,,,,,,,,,,,,,,,,,,,,,,,,,,,,,,164.13685941599942,179.9419677629994,,,,,,,032822,0,3,1,2,1,1,2,0,32,2022_Mar_28_1029,listening_fmri,3.2.4,59.88652437853629,
0,parcelated_audio/41/41_23.ogg,,,,,,,,,0,0,0,0,0,0,0,0,0,0,0,0,,,,,,,,,,,,,0,0,0,0,0,22,22,22,,,,,,,,,,,,,,,,,,,,,,,,,,,,,,,,,,,,,,,,,,,,,,,,,,,,,,,,,,,,,,,,,,,,,,,,,,,,,,,,,,,,,,,,,,,,,,,,,,,,,,,,,179.94253948699952,185.93132046499977,,,,,,,032822,0,3,1,2,1,1,2,0,32,2022_Mar_28_1029,listening_fmri,3.2.4,59.88652437853629,
0,parcelated_audio/41/41_24.ogg,,,,,,,,,0,0,0,0,0,0,0,0,0,0,0,0,,,,,,,,,,,,,0,0,0,0,0,23,23,23,,,,,,,,,,,,,,,,,,,,,,,,,,,,,,,,,,,,,,,,,,,,,,,,,,,,,,,,,,,,,,,,,,,,,,,,,,,,,,,,,,,,,,,,,,,,,,,,,,,,,,,,,185.93170251299944,192.58861107899975,,,,,,,032822,0,3,1,2,1,1,2,0,32,2022_Mar_28_1029,listening_fmri,3.2.4,59.88652437853629,
0,parcelated_audio/41/41_25.ogg,,,,,,,,,0,0,0,0,0,0,0,0,0,0,0,0,,,,,,,,,,,,,0,0,0,0,0,24,24,24,,,,,,,,,,,,,,,,,,,,,,,,,,,,,,,,,,,,,,,,,,,,,,,,,,,,,,,,,,,,,,,,,,,,,,,,,,,,,,,,,,,,,,,,,,,,,,,,,,,,,,,,,192.5918972769996,195.9525773989999,,,,,,,032822,0,3,1,2,1,1,2,0,32,2022_Mar_28_1029,listening_fmri,3.2.4,59.88652437853629,
0,parcelated_audio/41/41_26.ogg,,,,,,,,,0,0,0,0,0,0,0,0,0,0,0,0,,,,,,,,,,,,,0,0,0,0,0,25,25,25,,,,,,,,,,,,,,,,,,,,,,,,,,,,,,,,,,,,,,,,,,,,,,,,,,,,,,,,,,,,,,,,,,,,,,,,,,,,,,,,,,,,,,,,,,,,,,,,,,,,,,,,,195.95305201100018,201.47775759900014,,,,,,,032822,0,3,1,2,1,1,2,0,32,2022_Mar_28_1029,listening_fmri,3.2.4,59.88652437853629,
0,parcelated_audio/41/41_27.ogg,,,,,,,,,0,0,0,0,0,0,0,0,0,0,0,0,,,,,,,,,,,,,0,0,0,0,0,26,26,26,,,,,,,,,,,,,,,,,,,,,,,,,,,,,,,,,,,,,,,,,,,,,,,,,,,,,,,,,,,,,,,,,,,,,,,,,,,,,,,,,,,,,,,,,,,,,,,,,,,,,,,,,201.47811962800006,205.34269584699996,,,,,,,032822,0,3,1,2,1,1,2,0,32,2022_Mar_28_1029,listening_fmri,3.2.4,59.88652437853629,
0,parcelated_audio/41/41_28.ogg,,,,,,,,,0,0,0,0,0,0,0,0,0,0,0,0,,,,,,,,,,,,,0,0,0,0,0,27,27,27,,,,,,,,,,,,,,,,,,,,,,,,,,,,,,,,,,,,,,,,,,,,,,,,,,,,,,,,,,,,,,,,,,,,,,,,,,,,,,,,,,,,,,,,,,,,,,,,,,,,,,,,,205.34383685099965,213.69644827499997,,,,,,,032822,0,3,1,2,1,1,2,0,32,2022_Mar_28_1029,listening_fmri,3.2.4,59.88652437853629,
0,parcelated_audio/41/41_29.ogg,,,,,,,,,0,0,0,0,0,0,0,0,0,0,0,0,,,,,,,,,,,,,0,0,0,0,0,28,28,28,,,,,,,,,,,,,,,,,,,,,,,,,,,,,,,,,,,,,,,,,,,,,,,,,,,,,,,,,,,,,,,,,,,,,,,,,,,,,,,,,,,,,,,,,,,,,,,,,,,,,,,,,213.6969673550002,220.32580013000006,,,,,,,032822,0,3,1,2,1,1,2,0,32,2022_Mar_28_1029,listening_fmri,3.2.4,59.88652437853629,
0,parcelated_audio/41/41_30.ogg,,,,,,,,,0,0,0,0,0,0,0,0,0,0,0,0,,,,,,,,,,,,,0,0,0,0,0,29,29,29,,,,,,,,,,,,,,,,,,,,,,,,,,,,,,,,,,,,,,,,,,,,,,,,,,,,,,,,,,,,,,,,,,,,,,,,,,,,,,,,,,,,,,,,,,,,,,,,,,,,,,,,,220.32615359299962,229.02961182499985,,,,,,,032822,0,3,1,2,1,1,2,0,32,2022_Mar_28_1029,listening_fmri,3.2.4,59.88652437853629,
0,parcelated_audio/41/41_31.ogg,,,,,,,,,0,0,0,0,0,0,0,0,0,0,0,0,,,,,,,,,,,,,0,0,0,0,0,30,30,30,,,,,,,,,,,,,,,,,,,,,,,,,,,,,,,,,,,,,,,,,,,,,,,,,,,,,,,,,,,,,,,,,,,,,,,,,,,,,,,,,,,,,,,,,,,,,,,,,,,,,,,,,229.0301063930001,239.7656519709999,,,,,,,032822,0,3,1,2,1,1,2,0,32,2022_Mar_28_1029,listening_fmri,3.2.4,59.88652437853629,
0,parcelated_audio/41/41_32.ogg,,,,,,,,,0,0,0,0,0,0,0,0,0,0,0,0,,,,,,,,,,,,,0,0,0,0,0,31,31,31,,,,,,,,,,,,,,,,,,,,,,,,,,,,,,,,,,,,,,,,,,,,,,,,,,,,,,,,,,,,,,,,,,,,,,,,,,,,,,,,,,,,,,,,,,,,,,,,,,,,,,,,,239.76600715699988,248.10185503699995,,,,,,,032822,0,3,1,2,1,1,2,0,32,2022_Mar_28_1029,listening_fmri,3.2.4,59.88652437853629,
0,parcelated_audio/41/41_33.ogg,,,,,,,,,0,0,0,0,0,0,0,0,0,0,0,0,,,,,,,,,,,,,0,0,0,0,0,32,32,32,,,,,,,,,,,,,,,,,,,,,,,,,,,,,,,,,,,,,,,,,,,,,,,,,,,,,,,,,,,,,,,,,,,,,,,,,,,,,,,,,,,,,,,,,,,,,,,,,,,,,,,,,248.10227981199932,252.17070112999954,,,,,,,032822,0,3,1,2,1,1,2,0,32,2022_Mar_28_1029,listening_fmri,3.2.4,59.88652437853629,
0,parcelated_audio/41/41_34.ogg,,,,,,,,,0,0,0,0,0,0,0,0,0,0,0,0,,,,,,,,,,,,,0,0,0,0,0,33,33,33,,,,,,,,,,,,,,,,,,,,,,,,,,,,,,,,,,,,,,,,,,,,,,,,,,,,,,,,,,,,,,,,,,,,,,,,,,,,,,,,,,,,,,,,,,,,,,,,,,,,,,,,,252.17116178699962,257.7016599560002,,,,,,,032822,0,3,1,2,1,1,2,0,32,2022_Mar_28_1029,listening_fmri,3.2.4,59.88652437853629,
0,parcelated_audio/41/41_35.ogg,,,,,,,,,0,0,0,0,0,0,0,0,0,0,0,0,,,,,,,,,,,,,0,0,0,0,0,34,34,34,,,,,,,,,,,,,,,,,,,,,,,,,,,,,,,,,,,,,,,,,,,,,,,,,,,,,,,,,,,,,,,,,,,,,,,,,,,,,,,,,,,,,,,,,,,,,,,,,,,,,,,,,257.70211937899967,263.2611022589999,,,,,,,032822,0,3,1,2,1,1,2,0,32,2022_Mar_28_1029,listening_fmri,3.2.4,59.88652437853629,
0,parcelated_audio/41/41_36.ogg,,,,,,,,,0,0,0,0,0,0,0,0,0,0,0,0,,,,,,,,,,,,,0,0,0,0,0,35,35,35,,,,,,,,,,,,,,,,,,,,,,,,,,,,,,,,,,,,,,,,,,,,,,,,,,,,,,,,,,,,,,,,,,,,,,,,,,,,,,,,,,,,,,,,,,,,,,,,,,,,,,,,,263.26152298799934,270.2820504599995,,,,,,,032822,0,3,1,2,1,1,2,0,32,2022_Mar_28_1029,listening_fmri,3.2.4,59.88652437853629,
0,parcelated_audio/41/41_37.ogg,,,,,,,,,0,0,0,0,0,0,0,0,0,0,0,0,,,,,,,,,,,,,0,0,0,0,0,36,36,36,,,,,,,,,,,,,,,,,,,,,,,,,,,,,,,,,,,,,,,,,,,,,,,,,,,,,,,,,,,,,,,,,,,,,,,,,,,,,,,,,,,,,,,,,,,,,,,,,,,,,,,,,270.28235817099994,275.7667589120001,,,,,,,032822,0,3,1,2,1,1,2,0,32,2022_Mar_28_1029,listening_fmri,3.2.4,59.88652437853629,
0,,,,,,,,,,0,0,0,0,0,0,0,0,0,0,0,0,,,,,,,,,,,,,0,0,0,0,,,,,,,,,,,,,,,,,,,,,,,,,,,,,,,,,,,,,,,,,,,,,,,,,,,,,,,,,,,,,,,,,,,,,,,,,,,,,,,,,,,,,,,,,,,,,,,,,,,,,,,,,,,,,,,,,,,,,032822,0,3,1,2,1,1,2,0,32,2022_Mar_28_1029,listening_fmri,3.2.4,59.88652437853629,
0,,,,,,,,,,0,0,0,0,0,0,0,0,0,0,0,0,,,,,,,,,,,,,,,,,,,,,,,,,,,,,,,,,,,,,,,,,,275.7672501679999,281.765678107,322.21516164400055,None,,,,,,,,,,,,,,,,,,,,,,,,,,,,,,,,,,,,,,,,,,,,,,,,,,,,,,,,,,,,,,,,,,,,,,,,,,,,,,,,,,328.2197452300006,None,328.2197452300006,None,,,032822,0,3,1,2,1,1,2,0,32,2022_Mar_28_1029,listening_fmri,3.2.4,59.88652437853629,
0,,,,,,,,,,0,0,0,0,0,0,0,0,,,,,,,,,,,,,,,,,,,,,,,,,,,,,,,,,,,,,,,,,,,,,,,,,,,,,,,,,,,,,,,,,,,,,,,,,,,,,,,,,,,,,,,,,,,,,,,,,,,,,,,,,,,,,,,,,,,,,,,,,,,,,,,,,,,,,,,,,032822,0,3,1,2,1,1,2,0,32,2022_Mar_28_1029,listening_fmri,3.2.4,59.88652437853629,
1,,,,,,,,,,0,0,0,0,0,1,1,1,,,,,,,,,,,,,,,,,,,,,,,,,,,,,,,,,,,,,,,,,,,,,,,,,,,,,,,,,,,,,,,,,,,,,,,,,,,,,,,,,,,,,,,,,,,,,,,,,,,,,,,,,,,,,,,,,,,,,,,,,,,,,,,,,,,,,,,,,032822,0,3,1,2,1,1,2,0,32,2022_Mar_28_1029,listening_fmri,3.2.4,59.88652437853629,
2,,,,,,,,,,0,0,0,0,0,2,2,2,0,0,0,0,0,0,0,0,0,0,0,0,,,,,,,,,,,,,,,,,,,,,,,,,,,,,,,,,,,,,,329.23219789500035,None,329.23219789500035,None,1,0.7829995279998911,329.23219789500035,None,329.23219789500035,None,330.0362432560005,None,1,1.3329537899999195,330.0362432560005,None,330.0362432560005,None,331.416348834,None,331.416348834,None,331.416348834,None,1,1.8438341109995235,331.416348834,None,333.2862651740006,None,1,0.9837898710002264,333.2862651740006,None,333.2862651740006,None,334.3822712580004,None,334.3822712580004,None,334.3822712580004,None,334.3822712580004,None,334.3822712580004,None,334.3822712580004,None,334.3822712580004,None,None,334.3822712580004,None,,,,,,,,,,,,,,,,,,,,,,,,,,,,,,,,,,,032822,0,3,1,2,1,1,2,0,32,2022_Mar_28_1029,listening_fmri,3.2.4,59.88652437853629,
2,,,,,,,,,,0,0,0,0,0,2,2,2,0,0,0,0,0,0,0,0,,,,,,,,,,,,,,,,,,,,,,,,,,,,,,,,,,,,,,,,,,,,,,,,,,,,,,,,,,,,,,,,,,,,,,,,,,,,,,,,,,,,,,,,,,,,,,,349.61885195300056,None,1,0.7773521760000222,349.61885195300056,None,349.61885195300056,None,350.4486264690004,None,350.4486264690004,None,350.4486264690004,None,1,0.5894430139996985,350.4486264690004,None,,,,,,,,,,,,,,,,,032822,0,3,1,2,1,1,2,0,32,2022_Mar_28_1029,listening_fmri,3.2.4,59.88652437853629,
2,parcelated_audio/23/23_1.ogg,,,,,,,,,0,0,0,0,0,2,2,2,0,0,0,0,,,,,,,,,,,,,0,0,0,0,0,0,0,0,,,,,,,,,,,,,,,,,,,,,,,,,,,,,,,,,,,,,,,,,,,,,,,,,,,,,,,,,,,,,,,,,,,,,,,,,,,,,,,,,,,,,,,,,,,,,,,,,351.06975340700046,None,1,1.3374418299999888,351.06975340700046,None,306.0017434269994,309.01606326599995,309.02168951899966,319.4193832000001,,,,,,,032822,0,3,1,2,1,1,2,0,32,2022_Mar_28_1029,listening_fmri,3.2.4,59.88652437853629,
2,parcelated_audio/23/23_2.ogg,,,,,,,,,0,0,0,0,0,2,2,2,0,0,0,0,,,,,,,,,,,,,0,0,0,0,0,1,1,1,,,,,,,,,,,,,,,,,,,,,,,,,,,,,,,,,,,,,,,,,,,,,,,,,,,,,,,,,,,,,,,,,,,,,,,,,,,,,,,,,,,,,,,,,,,,,,,,,,,,,,,,,319.4197490759998,326.30265684299957,,,,,,,032822,0,3,1,2,1,1,2,0,32,2022_Mar_28_1029,listening_fmri,3.2.4,59.88652437853629,
2,parcelated_audio/23/23_3.ogg,,,,,,,,,0,0,0,0,0,2,2,2,0,0,0,0,,,,,,,,,,,,,0,0,0,0,0,2,2,2,,,,,,,,,,,,,,,,,,,,,,,,,,,,,,,,,,,,,,,,,,,,,,,,,,,,,,,,,,,,,,,,,,,,,,,,,,,,,,,,,,,,,,,,,,,,,,,,,,,,,,,,,326.30300924199946,332.1056105359994,,,,,,,032822,0,3,1,2,1,1,2,0,32,2022_Mar_28_1029,listening_fmri,3.2.4,59.88652437853629,
2,parcelated_audio/23/23_4.ogg,,,,,,,,,0,0,0,0,0,2,2,2,0,0,0,0,,,,,,,,,,,,,0,0,0,0,0,3,3,3,,,,,,,,,,,,,,,,,,,,,,,,,,,,,,,,,,,,,,,,,,,,,,,,,,,,,,,,,,,,,,,,,,,,,,,,,,,,,,,,,,,,,,,,,,,,,,,,,,,,,,,,,332.1060101519997,343.37373296999976,,,,,,,032822,0,3,1,2,1,1,2,0,32,2022_Mar_28_1029,listening_fmri,3.2.4,59.88652437853629,
2,parcelated_audio/23/23_5.ogg,,,,,,,,,0,0,0,0,0,2,2,2,0,0,0,0,,,,,,,,,,,,,0,0,0,0,0,4,4,4,,,,,,,,,,,,,,,,,,,,,,,,,,,,,,,,,,,,,,,,,,,,,,,,,,,,,,,,,,,,,,,,,,,,,,,,,,,,,,,,,,,,,,,,,,,,,,,,,,,,,,,,,343.3740966139994,349.5908622729994,,,,,,,032822,0,3,1,2,1,1,2,0,32,2022_Mar_28_1029,listening_fmri,3.2.4,59.88652437853629,
2,parcelated_audio/23/23_6.ogg,,,,,,,,,0,0,0,0,0,2,2,2,0,0,0,0,,,,,,,,,,,,,0,0,0,0,0,5,5,5,,,,,,,,,,,,,,,,,,,,,,,,,,,,,,,,,,,,,,,,,,,,,,,,,,,,,,,,,,,,,,,,,,,,,,,,,,,,,,,,,,,,,,,,,,,,,,,,,,,,,,,,,349.5912301600001,357.00531655399936,,,,,,,032822,0,3,1,2,1,1,2,0,32,2022_Mar_28_1029,listening_fmri,3.2.4,59.88652437853629,
2,parcelated_audio/23/23_7.ogg,,,,,,,,,0,0,0,0,0,2,2,2,0,0,0,0,,,,,,,,,,,,,0,0,0,0,0,6,6,6,,,,,,,,,,,,,,,,,,,,,,,,,,,,,,,,,,,,,,,,,,,,,,,,,,,,,,,,,,,,,,,,,,,,,,,,,,,,,,,,,,,,,,,,,,,,,,,,,,,,,,,,,357.0056799949998,363.7578495279995,,,,,,,032822,0,3,1,2,1,1,2,0,32,2022_Mar_28_1029,listening_fmri,3.2.4,59.88652437853629,
2,parcelated_audio/23/23_8.ogg,,,,,,,,,0,0,0,0,0,2,2,2,0,0,0,0,,,,,,,,,,,,,0,0,0,0,0,7,7,7,,,,,,,,,,,,,,,,,,,,,,,,,,,,,,,,,,,,,,,,,,,,,,,,,,,,,,,,,,,,,,,,,,,,,,,,,,,,,,,,,,,,,,,,,,,,,,,,,,,,,,,,,363.7585154919998,369.16240924199974,,,,,,,032822,0,3,1,2,1,1,2,0,32,2022_Mar_28_1029,listening_fmri,3.2.4,59.88652437853629,
2,parcelated_audio/23/23_9.ogg,,,,,,,,,0,0,0,0,0,2,2,2,0,0,0,0,,,,,,,,,,,,,0,0,0,0,0,8,8,8,,,,,,,,,,,,,,,,,,,,,,,,,,,,,,,,,,,,,,,,,,,,,,,,,,,,,,,,,,,,,,,,,,,,,,,,,,,,,,,,,,,,,,,,,,,,,,,,,,,,,,,,,369.1627608769995,373.55780530599986,,,,,,,032822,0,3,1,2,1,1,2,0,32,2022_Mar_28_1029,listening_fmri,3.2.4,59.88652437853629,
2,parcelated_audio/23/23_10.ogg,,,,,,,,,0,0,0,0,0,2,2,2,0,0,0,0,,,,,,,,,,,,,0,0,0,0,0,9,9,9,,,,,,,,,,,,,,,,,,,,,,,,,,,,,,,,,,,,,,,,,,,,,,,,,,,,,,,,,,,,,,,,,,,,,,,,,,,,,,,,,,,,,,,,,,,,,,,,,,,,,,,,,373.55822582899964,377.59931195599984,,,,,,,032822,0,3,1,2,1,1,2,0,32,2022_Mar_28_1029,listening_fmri,3.2.4,59.88652437853629,
2,parcelated_audio/23/23_11.ogg,,,,,,,,,0,0,0,0,0,2,2,2,0,0,0,0,,,,,,,,,,,,,0,0,0,0,0,10,10,10,,,,,,,,,,,,,,,,,,,,,,,,,,,,,,,,,,,,,,,,,,,,,,,,,,,,,,,,,,,,,,,,,,,,,,,,,,,,,,,,,,,,,,,,,,,,,,,,,,,,,,,,,377.6001623659995,385.7227005200002,,,,,,,032822,0,3,1,2,1,1,2,0,32,2022_Mar_28_1029,listening_fmri,3.2.4,59.88652437853629,
2,parcelated_audio/23/23_12.ogg,,,,,,,,,0,0,0,0,0,2,2,2,0,0,0,0,,,,,,,,,,,,,0,0,0,0,0,11,11,11,,,,,,,,,,,,,,,,,,,,,,,,,,,,,,,,,,,,,,,,,,,,,,,,,,,,,,,,,,,,,,,,,,,,,,,,,,,,,,,,,,,,,,,,,,,,,,,,,,,,,,,,,385.7230586119995,392.8776033409995,,,,,,,032822,0,3,1,2,1,1,2,0,32,2022_Mar_28_1029,listening_fmri,3.2.4,59.88652437853629,
2,parcelated_audio/23/23_13.ogg,,,,,,,,,0,0,0,0,0,2,2,2,0,0,0,0,,,,,,,,,,,,,0,0,0,0,0,12,12,12,,,,,,,,,,,,,,,,,,,,,,,,,,,,,,,,,,,,,,,,,,,,,,,,,,,,,,,,,,,,,,,,,,,,,,,,,,,,,,,,,,,,,,,,,,,,,,,,,,,,,,,,,392.87795670499963,399.65761962099987,,,,,,,032822,0,3,1,2,1,1,2,0,32,2022_Mar_28_1029,listening_fmri,3.2.4,59.88652437853629,
2,parcelated_audio/23/23_14.ogg,,,,,,,,,0,0,0,0,0,2,2,2,0,0,0,0,,,,,,,,,,,,,0,0,0,0,0,13,13,13,,,,,,,,,,,,,,,,,,,,,,,,,,,,,,,,,,,,,,,,,,,,,,,,,,,,,,,,,,,,,,,,,,,,,,,,,,,,,,,,,,,,,,,,,,,,,,,,,,,,,,,,,399.6579802319993,404.0212429100002,,,,,,,032822,0,3,1,2,1,1,2,0,32,2022_Mar_28_1029,listening_fmri,3.2.4,59.88652437853629,
2,parcelated_audio/23/23_15.ogg,,,,,,,,,0,0,0,0,0,2,2,2,0,0,0,0,,,,,,,,,,,,,0,0,0,0,0,14,14,14,,,,,,,,,,,,,,,,,,,,,,,,,,,,,,,,,,,,,,,,,,,,,,,,,,,,,,,,,,,,,,,,,,,,,,,,,,,,,,,,,,,,,,,,,,,,,,,,,,,,,,,,,404.02159116299936,408.44975853599954,,,,,,,032822,0,3,1,2,1,1,2,0,32,2022_Mar_28_1029,listening_fmri,3.2.4,59.88652437853629,
2,parcelated_audio/23/23_16.ogg,,,,,,,,,0,0,0,0,0,2,2,2,0,0,0,0,,,,,,,,,,,,,0,0,0,0,0,15,15,15,,,,,,,,,,,,,,,,,,,,,,,,,,,,,,,,,,,,,,,,,,,,,,,,,,,,,,,,,,,,,,,,,,,,,,,,,,,,,,,,,,,,,,,,,,,,,,,,,,,,,,,,,408.4501196559995,415.02816975399946,,,,,,,032822,0,3,1,2,1,1,2,0,32,2022_Mar_28_1029,listening_fmri,3.2.4,59.88652437853629,
2,parcelated_audio/23/23_17.ogg,,,,,,,,,0,0,0,0,0,2,2,2,0,0,0,0,,,,,,,,,,,,,0,0,0,0,0,16,16,16,,,,,,,,,,,,,,,,,,,,,,,,,,,,,,,,,,,,,,,,,,,,,,,,,,,,,,,,,,,,,,,,,,,,,,,,,,,,,,,,,,,,,,,,,,,,,,,,,,,,,,,,,415.028628303,421.7778348799993,,,,,,,032822,0,3,1,2,1,1,2,0,32,2022_Mar_28_1029,listening_fmri,3.2.4,59.88652437853629,
2,parcelated_audio/23/23_18.ogg,,,,,,,,,0,0,0,0,0,2,2,2,0,0,0,0,,,,,,,,,,,,,0,0,0,0,0,17,17,17,,,,,,,,,,,,,,,,,,,,,,,,,,,,,,,,,,,,,,,,,,,,,,,,,,,,,,,,,,,,,,,,,,,,,,,,,,,,,,,,,,,,,,,,,,,,,,,,,,,,,,,,,421.7783121329994,433.76136512099947,,,,,,,032822,0,3,1,2,1,1,2,0,32,2022_Mar_28_1029,listening_fmri,3.2.4,59.88652437853629,
2,parcelated_audio/23/23_19.ogg,,,,,,,,,0,0,0,0,0,2,2,2,0,0,0,0,,,,,,,,,,,,,0,0,0,0,0,18,18,18,,,,,,,,,,,,,,,,,,,,,,,,,,,,,,,,,,,,,,,,,,,,,,,,,,,,,,,,,,,,,,,,,,,,,,,,,,,,,,,,,,,,,,,,,,,,,,,,,,,,,,,,,433.7616949160001,439.5427549879996,,,,,,,032822,0,3,1,2,1,1,2,0,32,2022_Mar_28_1029,listening_fmri,3.2.4,59.88652437853629,
2,parcelated_audio/23/23_20.ogg,,,,,,,,,0,0,0,0,0,2,2,2,0,0,0,0,,,,,,,,,,,,,0,0,0,0,0,19,19,19,,,,,,,,,,,,,,,,,,,,,,,,,,,,,,,,,,,,,,,,,,,,,,,,,,,,,,,,,,,,,,,,,,,,,,,,,,,,,,,,,,,,,,,,,,,,,,,,,,,,,,,,,439.54321386299944,442.4180303590001,,,,,,,032822,0,3,1,2,1,1,2,0,32,2022_Mar_28_1029,listening_fmri,3.2.4,59.88652437853629,
2,parcelated_audio/23/23_21.ogg,,,,,,,,,0,0,0,0,0,2,2,2,0,0,0,0,,,,,,,,,,,,,0,0,0,0,0,20,20,20,,,,,,,,,,,,,,,,,,,,,,,,,,,,,,,,,,,,,,,,,,,,,,,,,,,,,,,,,,,,,,,,,,,,,,,,,,,,,,,,,,,,,,,,,,,,,,,,,,,,,,,,,442.41849161699975,450.09927005699956,,,,,,,032822,0,3,1,2,1,1,2,0,32,2022_Mar_28_1029,listening_fmri,3.2.4,59.88652437853629,
2,parcelated_audio/23/23_22.ogg,,,,,,,,,0,0,0,0,0,2,2,2,0,0,0,0,,,,,,,,,,,,,0,0,0,0,0,21,21,21,,,,,,,,,,,,,,,,,,,,,,,,,,,,,,,,,,,,,,,,,,,,,,,,,,,,,,,,,,,,,,,,,,,,,,,,,,,,,,,,,,,,,,,,,,,,,,,,,,,,,,,,,450.09962434999943,452.763482501,,,,,,,032822,0,3,1,2,1,1,2,0,32,2022_Mar_28_1029,listening_fmri,3.2.4,59.88652437853629,
2,parcelated_audio/23/23_23.ogg,,,,,,,,,0,0,0,0,0,2,2,2,0,0,0,0,,,,,,,,,,,,,0,0,0,0,0,22,22,22,,,,,,,,,,,,,,,,,,,,,,,,,,,,,,,,,,,,,,,,,,,,,,,,,,,,,,,,,,,,,,,,,,,,,,,,,,,,,,,,,,,,,,,,,,,,,,,,,,,,,,,,,452.7638418870001,456.9206255469999,,,,,,,032822,0,3,1,2,1,1,2,0,32,2022_Mar_28_1029,listening_fmri,3.2.4,59.88652437853629,
2,parcelated_audio/23/23_24.ogg,,,,,,,,,0,0,0,0,0,2,2,2,0,0,0,0,,,,,,,,,,,,,0,0,0,0,0,23,23,23,,,,,,,,,,,,,,,,,,,,,,,,,,,,,,,,,,,,,,,,,,,,,,,,,,,,,,,,,,,,,,,,,,,,,,,,,,,,,,,,,,,,,,,,,,,,,,,,,,,,,,,,,456.9209939960001,460.3632019409997,,,,,,,032822,0,3,1,2,1,1,2,0,32,2022_Mar_28_1029,listening_fmri,3.2.4,59.88652437853629,
2,parcelated_audio/23/23_25.ogg,,,,,,,,,0,0,0,0,0,2,2,2,0,0,0,0,,,,,,,,,,,,,0,0,0,0,0,24,24,24,,,,,,,,,,,,,,,,,,,,,,,,,,,,,,,,,,,,,,,,,,,,,,,,,,,,,,,,,,,,,,,,,,,,,,,,,,,,,,,,,,,,,,,,,,,,,,,,,,,,,,,,,460.36375588400006,464.5139970909995,,,,,,,032822,0,3,1,2,1,1,2,0,32,2022_Mar_28_1029,listening_fmri,3.2.4,59.88652437853629,
2,parcelated_audio/23/23_26.ogg,,,,,,,,,0,0,0,0,0,2,2,2,0,0,0,0,,,,,,,,,,,,,0,0,0,0,0,25,25,25,,,,,,,,,,,,,,,,,,,,,,,,,,,,,,,,,,,,,,,,,,,,,,,,,,,,,,,,,,,,,,,,,,,,,,,,,,,,,,,,,,,,,,,,,,,,,,,,,,,,,,,,,464.5144232189996,470.76062028199976,,,,,,,032822,0,3,1,2,1,1,2,0,32,2022_Mar_28_1029,listening_fmri,3.2.4,59.88652437853629,
2,parcelated_audio/23/23_27.ogg,,,,,,,,,0,0,0,0,0,2,2,2,0,0,0,0,,,,,,,,,,,,,0,0,0,0,0,26,26,26,,,,,,,,,,,,,,,,,,,,,,,,,,,,,,,,,,,,,,,,,,,,,,,,,,,,,,,,,,,,,,,,,,,,,,,,,,,,,,,,,,,,,,,,,,,,,,,,,,,,,,,,,470.76097339199987,476.02992556699974,,,,,,,032822,0,3,1,2,1,1,2,0,32,2022_Mar_28_1029,listening_fmri,3.2.4,59.88652437853629,
2,parcelated_audio/23/23_28.ogg,,,,,,,,,0,0,0,0,0,2,2,2,0,0,0,0,,,,,,,,,,,,,0,0,0,0,0,27,27,27,,,,,,,,,,,,,,,,,,,,,,,,,,,,,,,,,,,,,,,,,,,,,,,,,,,,,,,,,,,,,,,,,,,,,,,,,,,,,,,,,,,,,,,,,,,,,,,,,,,,,,,,,476.03029507799965,483.98169837299974,,,,,,,032822,0,3,1,2,1,1,2,0,32,2022_Mar_28_1029,listening_fmri,3.2.4,59.88652437853629,
2,parcelated_audio/23/23_29.ogg,,,,,,,,,0,0,0,0,0,2,2,2,0,0,0,0,,,,,,,,,,,,,0,0,0,0,0,28,28,28,,,,,,,,,,,,,,,,,,,,,,,,,,,,,,,,,,,,,,,,,,,,,,,,,,,,,,,,,,,,,,,,,,,,,,,,,,,,,,,,,,,,,,,,,,,,,,,,,,,,,,,,,483.9820579309999,487.73063600600017,,,,,,,032822,0,3,1,2,1,1,2,0,32,2022_Mar_28_1029,listening_fmri,3.2.4,59.88652437853629,
2,parcelated_audio/23/23_30.ogg,,,,,,,,,0,0,0,0,0,2,2,2,0,0,0,0,,,,,,,,,,,,,0,0,0,0,0,29,29,29,,,,,,,,,,,,,,,,,,,,,,,,,,,,,,,,,,,,,,,,,,,,,,,,,,,,,,,,,,,,,,,,,,,,,,,,,,,,,,,,,,,,,,,,,,,,,,,,,,,,,,,,,487.7310833020001,493.63788988799934,,,,,,,032822,0,3,1,2,1,1,2,0,32,2022_Mar_28_1029,listening_fmri,3.2.4,59.88652437853629,
2,parcelated_audio/23/23_31.ogg,,,,,,,,,0,0,0,0,0,2,2,2,0,0,0,0,,,,,,,,,,,,,0,0,0,0,0,30,30,30,,,,,,,,,,,,,,,,,,,,,,,,,,,,,,,,,,,,,,,,,,,,,,,,,,,,,,,,,,,,,,,,,,,,,,,,,,,,,,,,,,,,,,,,,,,,,,,,,,,,,,,,,493.63835062,495.6557601149998,,,,,,,032822,0,3,1,2,1,1,2,0,32,2022_Mar_28_1029,listening_fmri,3.2.4,59.88652437853629,
2,parcelated_audio/23/23_32.ogg,,,,,,,,,0,0,0,0,0,2,2,2,0,0,0,0,,,,,,,,,,,,,0,0,0,0,0,31,31,31,,,,,,,,,,,,,,,,,,,,,,,,,,,,,,,,,,,,,,,,,,,,,,,,,,,,,,,,,,,,,,,,,,,,,,,,,,,,,,,,,,,,,,,,,,,,,,,,,,,,,,,,,495.6562307939994,499.2646578690001,,,,,,,032822,0,3,1,2,1,1,2,0,32,2022_Mar_28_1029,listening_fmri,3.2.4,59.88652437853629,
2,parcelated_audio/23/23_33.ogg,,,,,,,,,0,0,0,0,0,2,2,2,0,0,0,0,,,,,,,,,,,,,0,0,0,0,0,32,32,32,,,,,,,,,,,,,,,,,,,,,,,,,,,,,,,,,,,,,,,,,,,,,,,,,,,,,,,,,,,,,,,,,,,,,,,,,,,,,,,,,,,,,,,,,,,,,,,,,,,,,,,,,499.2650127699999,505.4112846469998,,,,,,,032822,0,3,1,2,1,1,2,0,32,2022_Mar_28_1029,listening_fmri,3.2.4,59.88652437853629,
2,parcelated_audio/23/23_34.ogg,,,,,,,,,0,0,0,0,0,2,2,2,0,0,0,0,,,,,,,,,,,,,0,0,0,0,0,33,33,33,,,,,,,,,,,,,,,,,,,,,,,,,,,,,,,,,,,,,,,,,,,,,,,,,,,,,,,,,,,,,,,,,,,,,,,,,,,,,,,,,,,,,,,,,,,,,,,,,,,,,,,,,505.4116830719995,508.98351879599977,,,,,,,032822,0,3,1,2,1,1,2,0,32,2022_Mar_28_1029,listening_fmri,3.2.4,59.88652437853629,
2,parcelated_audio/23/23_35.ogg,,,,,,,,,0,0,0,0,0,2,2,2,0,0,0,0,,,,,,,,,,,,,0,0,0,0,0,34,34,34,,,,,,,,,,,,,,,,,,,,,,,,,,,,,,,,,,,,,,,,,,,,,,,,,,,,,,,,,,,,,,,,,,,,,,,,,,,,,,,,,,,,,,,,,,,,,,,,,,,,,,,,,508.9838907209996,513.2697501699995,,,,,,,032822,0,3,1,2,1,1,2,0,32,2022_Mar_28_1029,listening_fmri,3.2.4,59.88652437853629,
2,parcelated_audio/23/23_36.ogg,,,,,,,,,0,0,0,0,0,2,2,2,0,0,0,0,,,,,,,,,,,,,0,0,0,0,0,35,35,35,,,,,,,,,,,,,,,,,,,,,,,,,,,,,,,,,,,,,,,,,,,,,,,,,,,,,,,,,,,,,,,,,,,,,,,,,,,,,,,,,,,,,,,,,,,,,,,,,,,,,,,,,513.2701036499993,517.8965569799993,,,,,,,032822,0,3,1,2,1,1,2,0,32,2022_Mar_28_1029,listening_fmri,3.2.4,59.88652437853629,
2,parcelated_audio/23/23_37.ogg,,,,,,,,,0,0,0,0,0,2,2,2,0,0,0,0,,,,,,,,,,,,,0,0,0,0,0,36,36,36,,,,,,,,,,,,,,,,,,,,,,,,,,,,,,,,,,,,,,,,,,,,,,,,,,,,,,,,,,,,,,,,,,,,,,,,,,,,,,,,,,,,,,,,,,,,,,,,,,,,,,,,,517.8969145259998,522.6835168769994,,,,,,,032822,0,3,1,2,1,1,2,0,32,2022_Mar_28_1029,listening_fmri,3.2.4,59.88652437853629,
2,parcelated_audio/23/23_38.ogg,,,,,,,,,0,0,0,0,0,2,2,2,0,0,0,0,,,,,,,,,,,,,0,0,0,0,0,37,37,37,,,,,,,,,,,,,,,,,,,,,,,,,,,,,,,,,,,,,,,,,,,,,,,,,,,,,,,,,,,,,,,,,,,,,,,,,,,,,,,,,,,,,,,,,,,,,,,,,,,,,,,,,522.6838109209993,530.172656367,,,,,,,032822,0,3,1,2,1,1,2,0,32,2022_Mar_28_1029,listening_fmri,3.2.4,59.88652437853629,
2,parcelated_audio/23/23_39.ogg,,,,,,,,,0,0,0,0,0,2,2,2,0,0,0,0,,,,,,,,,,,,,0,0,0,0,0,38,38,38,,,,,,,,,,,,,,,,,,,,,,,,,,,,,,,,,,,,,,,,,,,,,,,,,,,,,,,,,,,,,,,,,,,,,,,,,,,,,,,,,,,,,,,,,,,,,,,,,,,,,,,,,530.1730113399999,536.4430767369995,,,,,,,032822,0,3,1,2,1,1,2,0,32,2022_Mar_28_1029,listening_fmri,3.2.4,59.88652437853629,
2,,,,,,,,,,0,0,0,0,0,2,2,2,0,0,0,0,,,,,,,,,,,,,0,0,0,0,,,,,,,,,,,,,,,,,,,,,,,,,,,,,,,,,,,,,,,,,,,,,,,,,,,,,,,,,,,,,,,,,,,,,,,,,,,,,,,,,,,,,,,,,,,,,,,,,,,,,,,,,,,,,,,,,,,,,032822,0,3,1,2,1,1,2,0,32,2022_Mar_28_1029,listening_fmri,3.2.4,59.88652437853629,
2,,,,,,,,,,0,0,0,0,0,2,2,2,0,0,0,0,,,,,,,,,,,,,,,,,,,,,,,,,,,,,,,,,,,,,,,,,,536.4435856250002,542.433167653,582.8866867200004,None,,,,,,,,,,,,,,,,,,,,,,,,,,,,,,,,,,,,,,,,,,,,,,,,,,,,,,,,,,,,,,,,,,,,,,,,,,,,,,,,,,588.8958171949998,None,588.8958171949998,None,,,032822,0,3,1,2,1,1,2,0,32,2022_Mar_28_1029,listening_fmri,3.2.4,59.88652437853629,
2,,,,,,,,,,0,0,0,0,0,2,2,2,,,,,,,,,,,,,,,,,,,,,,,,,,,,,,,,,,,,,,,,,,,,,,,,,,,,,,,,,,,,,,,,,,,,,,,,,,,,,,,,,,,,,,,,,,,,,,,,,,,,,,,,,,,,,,,,,,,,,,,,,,,,,,,,,,,,,,,,,032822,0,3,1,2,1,1,2,0,32,2022_Mar_28_1029,listening_fmri,3.2.4,59.88652437853629,
3,,,,,,,,,,0,0,0,0,0,3,3,3,0,0,0,0,0,0,0,0,0,0,0,0,,,,,,,,,,,,,,,,,,,,,,,,,,,,,,,,,,,,,,589.928550304,None,589.928550304,None,1,0.3764899859997968,589.928550304,None,589.928550304,None,590.346030144,None,1,1.3801167780002288,590.346030144,None,590.346030144,None,591.7695754269998,None,591.7695754269998,None,591.7695754269998,None,1,1.4485170830002971,591.7695754269998,None,593.2367276579998,None,1,1.3854697330007184,593.2367276579998,None,593.2367276579998,None,594.7355457620006,None,594.7355457620006,None,594.7355457620006,None,594.7355457620006,None,594.7355457620006,None,594.7355457620006,None,594.7355457620006,None,None,594.7355457620006,None,,,,,,,,,,,,,,,,,,,,,,,,,,,,,,,,,,,032822,0,3,1,2,1,1,2,0,32,2022_Mar_28_1029,listening_fmri,3.2.4,59.88652437853629,
3,,,,,,,,,,0,0,0,0,0,3,3,3,0,0,0,0,0,0,0,0,,,,,,,,,,,,,,,,,,,,,,,,,,,,,,,,,,,,,,,,,,,,,,,,,,,,,,,,,,,,,,,,,,,,,,,,,,,,,,,,,,,,,,,,,,,,,,,611.4197143320007,None,1,1.0043579610000961,611.4197143320007,None,611.4197143320007,None,612.4703570299998,None,612.4703570299998,None,612.4703570299998,None,1,1.8368261889991118,612.4703570299998,None,,,,,,,,,,,,,,,,,032822,0,3,1,2,1,1,2,0,32,2022_Mar_28_1029,listening_fmri,3.2.4,59.88652437853629,
3,parcelated_audio/14/14_1.ogg,,,,,,,,,0,0,0,0,0,3,3,3,0,0,0,0,,,,,,,,,,,,,0,0,0,0,0,0,0,0,,,,,,,,,,,,,,,,,,,,,,,,,,,,,,,,,,,,,,,,,,,,,,,,,,,,,,,,,,,,,,,,,,,,,,,,,,,,,,,,,,,,,,,,,,,,,,,,,614.3364750930004,None,1,2.0676272059999974,614.3364750930004,None,570.014849051,573.0167371509997,573.0229858879993,579.883145279,,,,,,,032822,0,3,1,2,1,1,2,0,32,2022_Mar_28_1029,listening_fmri,3.2.4,59.88652437853629,
3,parcelated_audio/14/14_2.ogg,,,,,,,,,0,0,0,0,0,3,3,3,0,0,0,0,,,,,,,,,,,,,0,0,0,0,0,1,1,1,,,,,,,,,,,,,,,,,,,,,,,,,,,,,,,,,,,,,,,,,,,,,,,,,,,,,,,,,,,,,,,,,,,,,,,,,,,,,,,,,,,,,,,,,,,,,,,,,,,,,,,,,579.8834825089998,586.4356916309998,,,,,,,032822,0,3,1,2,1,1,2,0,32,2022_Mar_28_1029,listening_fmri,3.2.4,59.88652437853629,
3,parcelated_audio/14/14_3.ogg,,,,,,,,,0,0,0,0,0,3,3,3,0,0,0,0,,,,,,,,,,,,,0,0,0,0,0,2,2,2,,,,,,,,,,,,,,,,,,,,,,,,,,,,,,,,,,,,,,,,,,,,,,,,,,,,,,,,,,,,,,,,,,,,,,,,,,,,,,,,,,,,,,,,,,,,,,,,,,,,,,,,,586.4360367179997,590.1376143480002,,,,,,,032822,0,3,1,2,1,1,2,0,32,2022_Mar_28_1029,listening_fmri,3.2.4,59.88652437853629,
3,parcelated_audio/14/14_4.ogg,,,,,,,,,0,0,0,0,0,3,3,3,0,0,0,0,,,,,,,,,,,,,0,0,0,0,0,3,3,3,,,,,,,,,,,,,,,,,,,,,,,,,,,,,,,,,,,,,,,,,,,,,,,,,,,,,,,,,,,,,,,,,,,,,,,,,,,,,,,,,,,,,,,,,,,,,,,,,,,,,,,,,590.137972261,598.094734501,,,,,,,032822,0,3,1,2,1,1,2,0,32,2022_Mar_28_1029,listening_fmri,3.2.4,59.88652437853629,
3,parcelated_audio/14/14_5.ogg,,,,,,,,,0,0,0,0,0,3,3,3,0,0,0,0,,,,,,,,,,,,,0,0,0,0,0,4,4,4,,,,,,,,,,,,,,,,,,,,,,,,,,,,,,,,,,,,,,,,,,,,,,,,,,,,,,,,,,,,,,,,,,,,,,,,,,,,,,,,,,,,,,,,,,,,,,,,,,,,,,,,,598.0950895119995,602.9555636629993,,,,,,,032822,0,3,1,2,1,1,2,0,32,2022_Mar_28_1029,listening_fmri,3.2.4,59.88652437853629,
3,parcelated_audio/14/14_6.ogg,,,,,,,,,0,0,0,0,0,3,3,3,0,0,0,0,,,,,,,,,,,,,0,0,0,0,0,5,5,5,,,,,,,,,,,,,,,,,,,,,,,,,,,,,,,,,,,,,,,,,,,,,,,,,,,,,,,,,,,,,,,,,,,,,,,,,,,,,,,,,,,,,,,,,,,,,,,,,,,,,,,,,602.9565283219999,608.8225851389998,,,,,,,032822,0,3,1,2,1,1,2,0,32,2022_Mar_28_1029,listening_fmri,3.2.4,59.88652437853629,
3,parcelated_audio/14/14_7.ogg,,,,,,,,,0,0,0,0,0,3,3,3,0,0,0,0,,,,,,,,,,,,,0,0,0,0,0,6,6,6,,,,,,,,,,,,,,,,,,,,,,,,,,,,,,,,,,,,,,,,,,,,,,,,,,,,,,,,,,,,,,,,,,,,,,,,,,,,,,,,,,,,,,,,,,,,,,,,,,,,,,,,,608.8230212669996,618.4697914769995,,,,,,,032822,0,3,1,2,1,1,2,0,32,2022_Mar_28_1029,listening_fmri,3.2.4,59.88652437853629,
3,parcelated_audio/14/14_8.ogg,,,,,,,,,0,0,0,0,0,3,3,3,0,0,0,0,,,,,,,,,,,,,0,0,0,0,0,7,7,7,,,,,,,,,,,,,,,,,,,,,,,,,,,,,,,,,,,,,,,,,,,,,,,,,,,,,,,,,,,,,,,,,,,,,,,,,,,,,,,,,,,,,,,,,,,,,,,,,,,,,,,,,618.4701486849999,623.6805780169998,,,,,,,032822,0,3,1,2,1,1,2,0,32,2022_Mar_28_1029,listening_fmri,3.2.4,59.88652437853629,
3,parcelated_audio/14/14_9.ogg,,,,,,,,,0,0,0,0,0,3,3,3,0,0,0,0,,,,,,,,,,,,,0,0,0,0,0,8,8,8,,,,,,,,,,,,,,,,,,,,,,,,,,,,,,,,,,,,,,,,,,,,,,,,,,,,,,,,,,,,,,,,,,,,,,,,,,,,,,,,,,,,,,,,,,,,,,,,,,,,,,,,,623.6810428210001,627.424464404,,,,,,,032822,0,3,1,2,1,1,2,0,32,2022_Mar_28_1029,listening_fmri,3.2.4,59.88652437853629,
3,parcelated_audio/14/14_10.ogg,,,,,,,,,0,0,0,0,0,3,3,3,0,0,0,0,,,,,,,,,,,,,0,0,0,0,0,9,9,9,,,,,,,,,,,,,,,,,,,,,,,,,,,,,,,,,,,,,,,,,,,,,,,,,,,,,,,,,,,,,,,,,,,,,,,,,,,,,,,,,,,,,,,,,,,,,,,,,,,,,,,,,627.4248195159998,638.694443331,,,,,,,032822,0,3,1,2,1,1,2,0,32,2022_Mar_28_1029,listening_fmri,3.2.4,59.88652437853629,
3,parcelated_audio/14/14_11.ogg,,,,,,,,,0,0,0,0,0,3,3,3,0,0,0,0,,,,,,,,,,,,,0,0,0,0,0,10,10,10,,,,,,,,,,,,,,,,,,,,,,,,,,,,,,,,,,,,,,,,,,,,,,,,,,,,,,,,,,,,,,,,,,,,,,,,,,,,,,,,,,,,,,,,,,,,,,,,,,,,,,,,,638.694803716,645.9132421029999,,,,,,,032822,0,3,1,2,1,1,2,0,32,2022_Mar_28_1029,listening_fmri,3.2.4,59.88652437853629,
3,parcelated_audio/14/14_12.ogg,,,,,,,,,0,0,0,0,0,3,3,3,0,0,0,0,,,,,,,,,,,,,0,0,0,0,0,11,11,11,,,,,,,,,,,,,,,,,,,,,,,,,,,,,,,,,,,,,,,,,,,,,,,,,,,,,,,,,,,,,,,,,,,,,,,,,,,,,,,,,,,,,,,,,,,,,,,,,,,,,,,,,645.9135720220002,653.9233322029995,,,,,,,032822,0,3,1,2,1,1,2,0,32,2022_Mar_28_1029,listening_fmri,3.2.4,59.88652437853629,
3,parcelated_audio/14/14_13.ogg,,,,,,,,,0,0,0,0,0,3,3,3,0,0,0,0,,,,,,,,,,,,,0,0,0,0,0,12,12,12,,,,,,,,,,,,,,,,,,,,,,,,,,,,,,,,,,,,,,,,,,,,,,,,,,,,,,,,,,,,,,,,,,,,,,,,,,,,,,,,,,,,,,,,,,,,,,,,,,,,,,,,,653.923764356,660.0420481109995,,,,,,,032822,0,3,1,2,1,1,2,0,32,2022_Mar_28_1029,listening_fmri,3.2.4,59.88652437853629,
3,parcelated_audio/14/14_14.ogg,,,,,,,,,0,0,0,0,0,3,3,3,0,0,0,0,,,,,,,,,,,,,0,0,0,0,0,13,13,13,,,,,,,,,,,,,,,,,,,,,,,,,,,,,,,,,,,,,,,,,,,,,,,,,,,,,,,,,,,,,,,,,,,,,,,,,,,,,,,,,,,,,,,,,,,,,,,,,,,,,,,,,660.0424006630001,666.5987955780001,,,,,,,032822,0,3,1,2,1,1,2,0,32,2022_Mar_28_1029,listening_fmri,3.2.4,59.88652437853629,
3,parcelated_audio/14/14_15.ogg,,,,,,,,,0,0,0,0,0,3,3,3,0,0,0,0,,,,,,,,,,,,,0,0,0,0,0,14,14,14,,,,,,,,,,,,,,,,,,,,,,,,,,,,,,,,,,,,,,,,,,,,,,,,,,,,,,,,,,,,,,,,,,,,,,,,,,,,,,,,,,,,,,,,,,,,,,,,,,,,,,,,,666.5990513939996,673.712591683,,,,,,,032822,0,3,1,2,1,1,2,0,32,2022_Mar_28_1029,listening_fmri,3.2.4,59.88652437853629,
3,parcelated_audio/14/14_16.ogg,,,,,,,,,0,0,0,0,0,3,3,3,0,0,0,0,,,,,,,,,,,,,0,0,0,0,0,15,15,15,,,,,,,,,,,,,,,,,,,,,,,,,,,,,,,,,,,,,,,,,,,,,,,,,,,,,,,,,,,,,,,,,,,,,,,,,,,,,,,,,,,,,,,,,,,,,,,,,,,,,,,,,673.7129474859994,679.1310322210002,,,,,,,032822,0,3,1,2,1,1,2,0,32,2022_Mar_28_1029,listening_fmri,3.2.4,59.88652437853629,
3,parcelated_audio/14/14_17.ogg,,,,,,,,,0,0,0,0,0,3,3,3,0,0,0,0,,,,,,,,,,,,,0,0,0,0,0,16,16,16,,,,,,,,,,,,,,,,,,,,,,,,,,,,,,,,,,,,,,,,,,,,,,,,,,,,,,,,,,,,,,,,,,,,,,,,,,,,,,,,,,,,,,,,,,,,,,,,,,,,,,,,,679.1313893659999,688.8447530610001,,,,,,,032822,0,3,1,2,1,1,2,0,32,2022_Mar_28_1029,listening_fmri,3.2.4,59.88652437853629,
3,parcelated_audio/14/14_18.ogg,,,,,,,,,0,0,0,0,0,3,3,3,0,0,0,0,,,,,,,,,,,,,0,0,0,0,0,17,17,17,,,,,,,,,,,,,,,,,,,,,,,,,,,,,,,,,,,,,,,,,,,,,,,,,,,,,,,,,,,,,,,,,,,,,,,,,,,,,,,,,,,,,,,,,,,,,,,,,,,,,,,,,688.8456096319997,696.4371040830001,,,,,,,032822,0,3,1,2,1,1,2,0,32,2022_Mar_28_1029,listening_fmri,3.2.4,59.88652437853629,
3,parcelated_audio/14/14_19.ogg,,,,,,,,,0,0,0,0,0,3,3,3,0,0,0,0,,,,,,,,,,,,,0,0,0,0,0,18,18,18,,,,,,,,,,,,,,,,,,,,,,,,,,,,,,,,,,,,,,,,,,,,,,,,,,,,,,,,,,,,,,,,,,,,,,,,,,,,,,,,,,,,,,,,,,,,,,,,,,,,,,,,,696.4374590849993,699.295429971,,,,,,,032822,0,3,1,2,1,1,2,0,32,2022_Mar_28_1029,listening_fmri,3.2.4,59.88652437853629,
3,parcelated_audio/14/14_20.ogg,,,,,,,,,0,0,0,0,0,3,3,3,0,0,0,0,,,,,,,,,,,,,0,0,0,0,0,19,19,19,,,,,,,,,,,,,,,,,,,,,,,,,,,,,,,,,,,,,,,,,,,,,,,,,,,,,,,,,,,,,,,,,,,,,,,,,,,,,,,,,,,,,,,,,,,,,,,,,,,,,,,,,699.2957826709999,701.4448259029996,,,,,,,032822,0,3,1,2,1,1,2,0,32,2022_Mar_28_1029,listening_fmri,3.2.4,59.88652437853629,
3,parcelated_audio/14/14_21.ogg,,,,,,,,,0,0,0,0,0,3,3,3,0,0,0,0,,,,,,,,,,,,,0,0,0,0,0,20,20,20,,,,,,,,,,,,,,,,,,,,,,,,,,,,,,,,,,,,,,,,,,,,,,,,,,,,,,,,,,,,,,,,,,,,,,,,,,,,,,,,,,,,,,,,,,,,,,,,,,,,,,,,,701.4451856659998,711.0186260330001,,,,,,,032822,0,3,1,2,1,1,2,0,32,2022_Mar_28_1029,listening_fmri,3.2.4,59.88652437853629,
3,parcelated_audio/14/14_22.ogg,,,,,,,,,0,0,0,0,0,3,3,3,0,0,0,0,,,,,,,,,,,,,0,0,0,0,0,21,21,21,,,,,,,,,,,,,,,,,,,,,,,,,,,,,,,,,,,,,,,,,,,,,,,,,,,,,,,,,,,,,,,,,,,,,,,,,,,,,,,,,,,,,,,,,,,,,,,,,,,,,,,,,711.0189747099994,717.3567737100002,,,,,,,032822,0,3,1,2,1,1,2,0,32,2022_Mar_28_1029,listening_fmri,3.2.4,59.88652437853629,
3,parcelated_audio/14/14_23.ogg,,,,,,,,,0,0,0,0,0,3,3,3,0,0,0,0,,,,,,,,,,,,,0,0,0,0,0,22,22,22,,,,,,,,,,,,,,,,,,,,,,,,,,,,,,,,,,,,,,,,,,,,,,,,,,,,,,,,,,,,,,,,,,,,,,,,,,,,,,,,,,,,,,,,,,,,,,,,,,,,,,,,,717.3572418539998,722.4237095239996,,,,,,,032822,0,3,1,2,1,1,2,0,32,2022_Mar_28_1029,listening_fmri,3.2.4,59.88652437853629,
3,parcelated_audio/14/14_24.ogg,,,,,,,,,0,0,0,0,0,3,3,3,0,0,0,0,,,,,,,,,,,,,0,0,0,0,0,23,23,23,,,,,,,,,,,,,,,,,,,,,,,,,,,,,,,,,,,,,,,,,,,,,,,,,,,,,,,,,,,,,,,,,,,,,,,,,,,,,,,,,,,,,,,,,,,,,,,,,,,,,,,,,722.4240614749997,733.3366687279995,,,,,,,032822,0,3,1,2,1,1,2,0,32,2022_Mar_28_1029,listening_fmri,3.2.4,59.88652437853629,
3,parcelated_audio/14/14_25.ogg,,,,,,,,,0,0,0,0,0,3,3,3,0,0,0,0,,,,,,,,,,,,,0,0,0,0,0,24,24,24,,,,,,,,,,,,,,,,,,,,,,,,,,,,,,,,,,,,,,,,,,,,,,,,,,,,,,,,,,,,,,,,,,,,,,,,,,,,,,,,,,,,,,,,,,,,,,,,,,,,,,,,,733.3370266189995,740.0032065289997,,,,,,,032822,0,3,1,2,1,1,2,0,32,2022_Mar_28_1029,listening_fmri,3.2.4,59.88652437853629,
3,parcelated_audio/14/14_26.ogg,,,,,,,,,0,0,0,0,0,3,3,3,0,0,0,0,,,,,,,,,,,,,0,0,0,0,0,25,25,25,,,,,,,,,,,,,,,,,,,,,,,,,,,,,,,,,,,,,,,,,,,,,,,,,,,,,,,,,,,,,,,,,,,,,,,,,,,,,,,,,,,,,,,,,,,,,,,,,,,,,,,,,740.003673749,742.1796313049999,,,,,,,032822,0,3,1,2,1,1,2,0,32,2022_Mar_28_1029,listening_fmri,3.2.4,59.88652437853629,
3,parcelated_audio/14/14_27.ogg,,,,,,,,,0,0,0,0,0,3,3,3,0,0,0,0,,,,,,,,,,,,,0,0,0,0,0,26,26,26,,,,,,,,,,,,,,,,,,,,,,,,,,,,,,,,,,,,,,,,,,,,,,,,,,,,,,,,,,,,,,,,,,,,,,,,,,,,,,,,,,,,,,,,,,,,,,,,,,,,,,,,,742.1799279689994,748.2006983169995,,,,,,,032822,0,3,1,2,1,1,2,0,32,2022_Mar_28_1029,listening_fmri,3.2.4,59.88652437853629,
3,parcelated_audio/14/14_28.ogg,,,,,,,,,0,0,0,0,0,3,3,3,0,0,0,0,,,,,,,,,,,,,0,0,0,0,0,27,27,27,,,,,,,,,,,,,,,,,,,,,,,,,,,,,,,,,,,,,,,,,,,,,,,,,,,,,,,,,,,,,,,,,,,,,,,,,,,,,,,,,,,,,,,,,,,,,,,,,,,,,,,,,748.2010634809994,751.1764491549993,,,,,,,032822,0,3,1,2,1,1,2,0,32,2022_Mar_28_1029,listening_fmri,3.2.4,59.88652437853629,
3,parcelated_audio/14/14_29.ogg,,,,,,,,,0,0,0,0,0,3,3,3,0,0,0,0,,,,,,,,,,,,,0,0,0,0,0,28,28,28,,,,,,,,,,,,,,,,,,,,,,,,,,,,,,,,,,,,,,,,,,,,,,,,,,,,,,,,,,,,,,,,,,,,,,,,,,,,,,,,,,,,,,,,,,,,,,,,,,,,,,,,,751.1770241009999,753.5793833339994,,,,,,,032822,0,3,1,2,1,1,2,0,32,2022_Mar_28_1029,listening_fmri,3.2.4,59.88652437853629,
3,parcelated_audio/14/14_30.ogg,,,,,,,,,0,0,0,0,0,3,3,3,0,0,0,0,,,,,,,,,,,,,0,0,0,0,0,29,29,29,,,,,,,,,,,,,,,,,,,,,,,,,,,,,,,,,,,,,,,,,,,,,,,,,,,,,,,,,,,,,,,,,,,,,,,,,,,,,,,,,,,,,,,,,,,,,,,,,,,,,,,,,753.5797037100001,757.8282981259999,,,,,,,032822,0,3,1,2,1,1,2,0,32,2022_Mar_28_1029,listening_fmri,3.2.4,59.88652437853629,
3,parcelated_audio/14/14_31.ogg,,,,,,,,,0,0,0,0,0,3,3,3,0,0,0,0,,,,,,,,,,,,,0,0,0,0,0,30,30,30,,,,,,,,,,,,,,,,,,,,,,,,,,,,,,,,,,,,,,,,,,,,,,,,,,,,,,,,,,,,,,,,,,,,,,,,,,,,,,,,,,,,,,,,,,,,,,,,,,,,,,,,,757.8287862130001,765.0937285949994,,,,,,,032822,0,3,1,2,1,1,2,0,32,2022_Mar_28_1029,listening_fmri,3.2.4,59.88652437853629,
3,parcelated_audio/14/14_32.ogg,,,,,,,,,0,0,0,0,0,3,3,3,0,0,0,0,,,,,,,,,,,,,0,0,0,0,0,31,31,31,,,,,,,,,,,,,,,,,,,,,,,,,,,,,,,,,,,,,,,,,,,,,,,,,,,,,,,,,,,,,,,,,,,,,,,,,,,,,,,,,,,,,,,,,,,,,,,,,,,,,,,,,765.094079427,772.2404860739998,,,,,,,032822,0,3,1,2,1,1,2,0,32,2022_Mar_28_1029,listening_fmri,3.2.4,59.88652437853629,
3,parcelated_audio/14/14_33.ogg,,,,,,,,,0,0,0,0,0,3,3,3,0,0,0,0,,,,,,,,,,,,,0,0,0,0,0,32,32,32,,,,,,,,,,,,,,,,,,,,,,,,,,,,,,,,,,,,,,,,,,,,,,,,,,,,,,,,,,,,,,,,,,,,,,,,,,,,,,,,,,,,,,,,,,,,,,,,,,,,,,,,,772.2409389549994,778.8032883830001,,,,,,,032822,0,3,1,2,1,1,2,0,32,2022_Mar_28_1029,listening_fmri,3.2.4,59.88652437853629,
3,,,,,,,,,,0,0,0,0,0,3,3,3,0,0,0,0,,,,,,,,,,,,,0,0,0,0,,,,,,,,,,,,,,,,,,,,,,,,,,,,,,,,,,,,,,,,,,,,,,,,,,,,,,,,,,,,,,,,,,,,,,,,,,,,,,,,,,,,,,,,,,,,,,,,,,,,,,,,,,,,,,,,,,,,,032822,0,3,1,2,1,1,2,0,32,2022_Mar_28_1029,listening_fmri,3.2.4,59.88652437853629,
3,,,,,,,,,,0,0,0,0,0,3,3,3,0,0,0,0,,,,,,,,,,,,,,,,,,,,,,,,,,,,,,,,,,,,,,,,,,778.8037899339997,784.8006944099998,825.2538965470003,None,,,,,,,,,,,,,,,,,,,,,,,,,,,,,,,,,,,,,,,,,,,,,,,,,,,,,,,,,,,,,,,,,,,,,,,,,,,,,,,,,,831.2539166500001,None,831.2539166500001,None,,,032822,0,3,1,2,1,1,2,0,32,2022_Mar_28_1029,listening_fmri,3.2.4,59.88652437853629,
3,,,,,,,,,,0,0,0,0,0,3,3,3,,,,,,,,,,,,,,,,,,,,,,,,,,,,,,,,,,,,,,,,,,,,,,,,,,,,,,,,,,,,,,,,,,,,,,,,,,,,,,,,,,,,,,,,,,,,,,,,,,,,,,,,,,,,,,,,,,,,,,,,,,,,,,,,,,,,,,,,,032822,0,3,1,2,1,1,2,0,32,2022_Mar_28_1029,listening_fmri,3.2.4,59.88652437853629,
4,parcelated_audio/34/34_1.ogg,,,,,,,,,0,0,0,0,0,4,4,4,0,0,0,0,,,,,,,,,,,,,0,0,0,0,0,0,0,0,,,,,,,,,,,,,,,,,,,,,,,,,,832.2696960620005,None,832.2696960620005,None,1,0.3395072960001926,832.2696960620005,None,832.2696960620005,None,,,,,,,,,,,,,,,,,,,,,,,,,,,,,,,,,,,,,,,,,,,,,,,,,,,,,,,,,,,,,,832.6366259860006,None,1,1.7344214849999844,832.6366259860006,None,787.9576293639993,790.9666321260001,790.9720430159996,799.6712854899997,,,,,,,032822,0,3,1,2,1,1,2,0,32,2022_Mar_28_1029,listening_fmri,3.2.4,59.88652437853629,
4,parcelated_audio/34/34_2.ogg,,,,,,,,,0,0,0,0,0,4,4,4,0,0,0,0,,,,,,,,,,,,,0,0,0,0,0,1,1,1,,,,,,,,,,,,,,,,,,,,,,,,,,,,,,,,,,,,,,,,,,,,,,,,,,,,,,,,,,,,,,,,,,,,,,,,,,,,,,,,,,,,,,,,,,,,,,,,,,,,,,,,,799.6716419989998,804.228575739,,,,,,,032822,0,3,1,2,1,1,2,0,32,2022_Mar_28_1029,listening_fmri,3.2.4,59.88652437853629,
4,parcelated_audio/34/34_3.ogg,,,,,,,,,0,0,0,0,0,4,4,4,0,0,0,0,,,,,,,,,,,,,0,0,0,0,0,2,2,2,,,,,,,,,,,,,,,,,,,,,,,,,,,,,,,,,,,,,,,,,,,,,,,,,,,,,,,,,,,,,,,,,,,,,,,,,,,,,,,,,,,,,,,,,,,,,,,,,,,,,,,,,804.2290565639996,808.8698366789995,,,,,,,032822,0,3,1,2,1,1,2,0,32,2022_Mar_28_1029,listening_fmri,3.2.4,59.88652437853629,
4,parcelated_audio/34/34_4.ogg,,,,,,,,,0,0,0,0,0,4,4,4,0,0,0,0,,,,,,,,,,,,,0,0,0,0,0,3,3,3,,,,,,,,,,,,,,,,,,,,,,,,,,,,,,,,,,,,,,,,,,,,,,,,,,,,,,,,,,,,,,,,,,,,,,,,,,,,,,,,,,,,,,,,,,,,,,,,,,,,,,,,,808.8707030039996,818.4859494339998,,,,,,,032822,0,3,1,2,1,1,2,0,32,2022_Mar_28_1029,listening_fmri,3.2.4,59.88652437853629,
4,parcelated_audio/34/34_5.ogg,,,,,,,,,0,0,0,0,0,4,4,4,0,0,0,0,,,,,,,,,,,,,0,0,0,0,0,4,4,4,,,,,,,,,,,,,,,,,,,,,,,,,,,,,,,,,,,,,,,,,,,,,,,,,,,,,,,,,,,,,,,,,,,,,,,,,,,,,,,,,,,,,,,,,,,,,,,,,,,,,,,,,818.486827752,829.005304884,,,,,,,032822,0,3,1,2,1,1,2,0,32,2022_Mar_28_1029,listening_fmri,3.2.4,59.88652437853629,
4,parcelated_audio/34/34_6.ogg,,,,,,,,,0,0,0,0,0,4,4,4,0,0,0,0,,,,,,,,,,,,,0,0,0,0,0,5,5,5,,,,,,,,,,,,,,,,,,,,,,,,,,,,,,,,,,,,,,,,,,,,,,,,,,,,,,,,,,,,,,,,,,,,,,,,,,,,,,,,,,,,,,,,,,,,,,,,,,,,,,,,,829.0056541899994,837.7440164769996,,,,,,,032822,0,3,1,2,1,1,2,0,32,2022_Mar_28_1029,listening_fmri,3.2.4,59.88652437853629,
4,parcelated_audio/34/34_7.ogg,,,,,,,,,0,0,0,0,0,4,4,4,0,0,0,0,,,,,,,,,,,,,0,0,0,0,0,6,6,6,,,,,,,,,,,,,,,,,,,,,,,,,,,,,,,,,,,,,,,,,,,,,,,,,,,,,,,,,,,,,,,,,,,,,,,,,,,,,,,,,,,,,,,,,,,,,,,,,,,,,,,,,837.7448471709995,843.7367946549994,,,,,,,032822,0,3,1,2,1,1,2,0,32,2022_Mar_28_1029,listening_fmri,3.2.4,59.88652437853629,
4,parcelated_audio/34/34_8.ogg,,,,,,,,,0,0,0,0,0,4,4,4,0,0,0,0,,,,,,,,,,,,,0,0,0,0,0,7,7,7,,,,,,,,,,,,,,,,,,,,,,,,,,,,,,,,,,,,,,,,,,,,,,,,,,,,,,,,,,,,,,,,,,,,,,,,,,,,,,,,,,,,,,,,,,,,,,,,,,,,,,,,,843.7371875640001,851.7072366539996,,,,,,,032822,0,3,1,2,1,1,2,0,32,2022_Mar_28_1029,listening_fmri,3.2.4,59.88652437853629,
4,parcelated_audio/34/34_9.ogg,,,,,,,,,0,0,0,0,0,4,4,4,0,0,0,0,,,,,,,,,,,,,0,0,0,0,0,8,8,8,,,,,,,,,,,,,,,,,,,,,,,,,,,,,,,,,,,,,,,,,,,,,,,,,,,,,,,,,,,,,,,,,,,,,,,,,,,,,,,,,,,,,,,,,,,,,,,,,,,,,,,,,851.7077805600002,856.485699932,,,,,,,032822,0,3,1,2,1,1,2,0,32,2022_Mar_28_1029,listening_fmri,3.2.4,59.88652437853629,
4,parcelated_audio/34/34_10.ogg,,,,,,,,,0,0,0,0,0,4,4,4,0,0,0,0,,,,,,,,,,,,,0,0,0,0,0,9,9,9,,,,,,,,,,,,,,,,,,,,,,,,,,,,,,,,,,,,,,,,,,,,,,,,,,,,,,,,,,,,,,,,,,,,,,,,,,,,,,,,,,,,,,,,,,,,,,,,,,,,,,,,,856.4860488489994,863.5886594509993,,,,,,,032822,0,3,1,2,1,1,2,0,32,2022_Mar_28_1029,listening_fmri,3.2.4,59.88652437853629,
4,parcelated_audio/34/34_11.ogg,,,,,,,,,0,0,0,0,0,4,4,4,0,0,0,0,,,,,,,,,,,,,0,0,0,0,0,10,10,10,,,,,,,,,,,,,,,,,,,,,,,,,,,,,,,,,,,,,,,,,,,,,,,,,,,,,,,,,,,,,,,,,,,,,,,,,,,,,,,,,,,,,,,,,,,,,,,,,,,,,,,,,863.5890056529997,867.0296298989997,,,,,,,032822,0,3,1,2,1,1,2,0,32,2022_Mar_28_1029,listening_fmri,3.2.4,59.88652437853629,
4,parcelated_audio/34/34_12.ogg,,,,,,,,,0,0,0,0,0,4,4,4,0,0,0,0,,,,,,,,,,,,,0,0,0,0,0,11,11,11,,,,,,,,,,,,,,,,,,,,,,,,,,,,,,,,,,,,,,,,,,,,,,,,,,,,,,,,,,,,,,,,,,,,,,,,,,,,,,,,,,,,,,,,,,,,,,,,,,,,,,,,,867.0301590379995,875.2828093439994,,,,,,,032822,0,3,1,2,1,1,2,0,32,2022_Mar_28_1029,listening_fmri,3.2.4,59.88652437853629,
4,parcelated_audio/34/34_13.ogg,,,,,,,,,0,0,0,0,0,4,4,4,0,0,0,0,,,,,,,,,,,,,0,0,0,0,0,12,12,12,,,,,,,,,,,,,,,,,,,,,,,,,,,,,,,,,,,,,,,,,,,,,,,,,,,,,,,,,,,,,,,,,,,,,,,,,,,,,,,,,,,,,,,,,,,,,,,,,,,,,,,,,875.2832678599998,879.1684238489997,,,,,,,032822,0,3,1,2,1,1,2,0,32,2022_Mar_28_1029,listening_fmri,3.2.4,59.88652437853629,
4,parcelated_audio/34/34_14.ogg,,,,,,,,,0,0,0,0,0,4,4,4,0,0,0,0,,,,,,,,,,,,,0,0,0,0,0,13,13,13,,,,,,,,,,,,,,,,,,,,,,,,,,,,,,,,,,,,,,,,,,,,,,,,,,,,,,,,,,,,,,,,,,,,,,,,,,,,,,,,,,,,,,,,,,,,,,,,,,,,,,,,,879.1691316369997,883.8127148459998,,,,,,,032822,0,3,1,2,1,1,2,0,32,2022_Mar_28_1029,listening_fmri,3.2.4,59.88652437853629,
4,parcelated_audio/34/34_15.ogg,,,,,,,,,0,0,0,0,0,4,4,4,0,0,0,0,,,,,,,,,,,,,0,0,0,0,0,14,14,14,,,,,,,,,,,,,,,,,,,,,,,,,,,,,,,,,,,,,,,,,,,,,,,,,,,,,,,,,,,,,,,,,,,,,,,,,,,,,,,,,,,,,,,,,,,,,,,,,,,,,,,,,883.8130244509994,888.0071787269999,,,,,,,032822,0,3,1,2,1,1,2,0,32,2022_Mar_28_1029,listening_fmri,3.2.4,59.88652437853629,
4,parcelated_audio/34/34_16.ogg,,,,,,,,,0,0,0,0,0,4,4,4,0,0,0,0,,,,,,,,,,,,,0,0,0,0,0,15,15,15,,,,,,,,,,,,,,,,,,,,,,,,,,,,,,,,,,,,,,,,,,,,,,,,,,,,,,,,,,,,,,,,,,,,,,,,,,,,,,,,,,,,,,,,,,,,,,,,,,,,,,,,,888.0075443229998,901.008201007,,,,,,,032822,0,3,1,2,1,1,2,0,32,2022_Mar_28_1029,listening_fmri,3.2.4,59.88652437853629,
4,parcelated_audio/34/34_17.ogg,,,,,,,,,0,0,0,0,0,4,4,4,0,0,0,0,,,,,,,,,,,,,0,0,0,0,0,16,16,16,,,,,,,,,,,,,,,,,,,,,,,,,,,,,,,,,,,,,,,,,,,,,,,,,,,,,,,,,,,,,,,,,,,,,,,,,,,,,,,,,,,,,,,,,,,,,,,,,,,,,,,,,901.008599285,909.9366566879999,,,,,,,032822,0,3,1,2,1,1,2,0,32,2022_Mar_28_1029,listening_fmri,3.2.4,59.88652437853629,
4,parcelated_audio/34/34_18.ogg,,,,,,,,,0,0,0,0,0,4,4,4,0,0,0,0,,,,,,,,,,,,,0,0,0,0,0,17,17,17,,,,,,,,,,,,,,,,,,,,,,,,,,,,,,,,,,,,,,,,,,,,,,,,,,,,,,,,,,,,,,,,,,,,,,,,,,,,,,,,,,,,,,,,,,,,,,,,,,,,,,,,,909.9371357129994,915.8176897220001,,,,,,,032822,0,3,1,2,1,1,2,0,32,2022_Mar_28_1029,listening_fmri,3.2.4,59.88652437853629,
4,parcelated_audio/34/34_19.ogg,,,,,,,,,0,0,0,0,0,4,4,4,0,0,0,0,,,,,,,,,,,,,0,0,0,0,0,18,18,18,,,,,,,,,,,,,,,,,,,,,,,,,,,,,,,,,,,,,,,,,,,,,,,,,,,,,,,,,,,,,,,,,,,,,,,,,,,,,,,,,,,,,,,,,,,,,,,,,,,,,,,,,915.8182617839993,922.0352493539995,,,,,,,032822,0,3,1,2,1,1,2,0,32,2022_Mar_28_1029,listening_fmri,3.2.4,59.88652437853629,
4,parcelated_audio/34/34_20.ogg,,,,,,,,,0,0,0,0,0,4,4,4,0,0,0,0,,,,,,,,,,,,,0,0,0,0,0,19,19,19,,,,,,,,,,,,,,,,,,,,,,,,,,,,,,,,,,,,,,,,,,,,,,,,,,,,,,,,,,,,,,,,,,,,,,,,,,,,,,,,,,,,,,,,,,,,,,,,,,,,,,,,,922.0356018759994,930.4924355089997,,,,,,,032822,0,3,1,2,1,1,2,0,32,2022_Mar_28_1029,listening_fmri,3.2.4,59.88652437853629,
4,parcelated_audio/34/34_21.ogg,,,,,,,,,0,0,0,0,0,4,4,4,0,0,0,0,,,,,,,,,,,,,0,0,0,0,0,20,20,20,,,,,,,,,,,,,,,,,,,,,,,,,,,,,,,,,,,,,,,,,,,,,,,,,,,,,,,,,,,,,,,,,,,,,,,,,,,,,,,,,,,,,,,,,,,,,,,,,,,,,,,,,930.4928904509998,936.8592925859994,,,,,,,032822,0,3,1,2,1,1,2,0,32,2022_Mar_28_1029,listening_fmri,3.2.4,59.88652437853629,
4,parcelated_audio/34/34_22.ogg,,,,,,,,,0,0,0,0,0,4,4,4,0,0,0,0,,,,,,,,,,,,,0,0,0,0,0,21,21,21,,,,,,,,,,,,,,,,,,,,,,,,,,,,,,,,,,,,,,,,,,,,,,,,,,,,,,,,,,,,,,,,,,,,,,,,,,,,,,,,,,,,,,,,,,,,,,,,,,,,,,,,,936.8597605089999,941.9924925159994,,,,,,,032822,0,3,1,2,1,1,2,0,32,2022_Mar_28_1029,listening_fmri,3.2.4,59.88652437853629,
4,parcelated_audio/34/34_23.ogg,,,,,,,,,0,0,0,0,0,4,4,4,0,0,0,0,,,,,,,,,,,,,0,0,0,0,0,22,22,22,,,,,,,,,,,,,,,,,,,,,,,,,,,,,,,,,,,,,,,,,,,,,,,,,,,,,,,,,,,,,,,,,,,,,,,,,,,,,,,,,,,,,,,,,,,,,,,,,,,,,,,,,941.9929569159995,949.7786860830001,,,,,,,032822,0,3,1,2,1,1,2,0,32,2022_Mar_28_1029,listening_fmri,3.2.4,59.88652437853629,
4,parcelated_audio/34/34_24.ogg,,,,,,,,,0,0,0,0,0,4,4,4,0,0,0,0,,,,,,,,,,,,,0,0,0,0,0,23,23,23,,,,,,,,,,,,,,,,,,,,,,,,,,,,,,,,,,,,,,,,,,,,,,,,,,,,,,,,,,,,,,,,,,,,,,,,,,,,,,,,,,,,,,,,,,,,,,,,,,,,,,,,,949.7790261179998,955.5766276300001,,,,,,,032822,0,3,1,2,1,1,2,0,32,2022_Mar_28_1029,listening_fmri,3.2.4,59.88652437853629,
4,parcelated_audio/34/34_25.ogg,,,,,,,,,0,0,0,0,0,4,4,4,0,0,0,0,,,,,,,,,,,,,0,0,0,0,0,24,24,24,,,,,,,,,,,,,,,,,,,,,,,,,,,,,,,,,,,,,,,,,,,,,,,,,,,,,,,,,,,,,,,,,,,,,,,,,,,,,,,,,,,,,,,,,,,,,,,,,,,,,,,,,955.5772052419998,962.1383493789999,,,,,,,032822,0,3,1,2,1,1,2,0,32,2022_Mar_28_1029,listening_fmri,3.2.4,59.88652437853629,
4,parcelated_audio/34/34_26.ogg,,,,,,,,,0,0,0,0,0,4,4,4,0,0,0,0,,,,,,,,,,,,,0,0,0,0,0,25,25,25,,,,,,,,,,,,,,,,,,,,,,,,,,,,,,,,,,,,,,,,,,,,,,,,,,,,,,,,,,,,,,,,,,,,,,,,,,,,,,,,,,,,,,,,,,,,,,,,,,,,,,,,,962.1387134500001,971.7978356759995,,,,,,,032822,0,3,1,2,1,1,2,0,32,2022_Mar_28_1029,listening_fmri,3.2.4,59.88652437853629,
4,parcelated_audio/34/34_27.ogg,,,,,,,,,0,0,0,0,0,4,4,4,0,0,0,0,,,,,,,,,,,,,0,0,0,0,0,26,26,26,,,,,,,,,,,,,,,,,,,,,,,,,,,,,,,,,,,,,,,,,,,,,,,,,,,,,,,,,,,,,,,,,,,,,,,,,,,,,,,,,,,,,,,,,,,,,,,,,,,,,,,,,971.7984892619997,979.3010299839998,,,,,,,032822,0,3,1,2,1,1,2,0,32,2022_Mar_28_1029,listening_fmri,3.2.4,59.88652437853629,
4,,,,,,,,,,0,0,0,0,0,4,4,4,0,0,0,0,,,,,,,,,,,,,0,0,0,0,,,,,,,,,,,,,,,,,,,,,,,,,,,,,,,,,,,,,,,,,,,,,,,,,,,,,,,,,,,,,,,,,,,,,,,,,,,,,,,,,,,,,,,,,,,,,,,,,,,,,,,,,,,,,,,,,,,,,032822,0,3,1,2,1,1,2,0,32,2022_Mar_28_1029,listening_fmri,3.2.4,59.88652437853629,
4,,,,,,,,,,0,0,0,0,0,4,4,4,0,0,0,0,,,,,,,,,,,,,,,,,,,,,,,,,,,,,,,,,,,,,,,,,,979.3015591599997,985.300713566,1025.7539550810006,None,,,,,,,,,,,,,,,,,,,,,,,,,,,,,,,,,,,,,,,,,,,,,,,,,,,,,,,,,,,,,,,,,,,,,,,,,,,,,,,,,,1031.7573001010005,None,1031.7573001010005,None,,,032822,0,3,1,2,1,1,2,0,32,2022_Mar_28_1029,listening_fmri,3.2.4,59.88652437853629,
4,,,,,,,,,,0,0,0,0,0,4,4,4,,,,,,,,,,,,,,,,,,,,,,,,,,,,,,,,,,,,,,,,,,,,,,,,,,,,,,,,,,,,,,,,,,,,,,,,,,,,,,,,,,,,,,,,,,,,,,,,,,,,,,,,,,,,,,,,,,,,,,,,,,,,,,,,,,,,,,,,,032822,0,3,1,2,1,1,2,0,32,2022_Mar_28_1029,listening_fmri,3.2.4,59.88652437853629,
5,parcelated_audio/21/21_1.ogg,,,,,,,,,0,0,0,0,0,5,5,5,0,0,0,0,,,,,,,,,,,,,0,0,0,0,0,0,0,0,,,,,,,,,,,,,,,,,,,,,,,,,,1032.8041385510005,None,1032.8041385510005,None,1,0.809056165999209,1032.8041385510005,None,1032.8041385510005,None,,,,,,,,,,,,,,,,,,,,,,,,,,,,,,,,,,,,,,,,,,,,,,,,,,,,,,,,,,,,,,1033.6372232620006,None,1,1.1179635200005578,1033.6372232620006,None,988.344123807,991.3508411369994,991.3590358399997,1005.6137270299996,,,,,,,032822,0,3,1,2,1,1,2,0,32,2022_Mar_28_1029,listening_fmri,3.2.4,59.88652437853629,
5,parcelated_audio/21/21_2.ogg,,,,,,,,,0,0,0,0,0,5,5,5,0,0,0,0,,,,,,,,,,,,,0,0,0,0,0,1,1,1,,,,,,,,,,,,,,,,,,,,,,,,,,,,,,,,,,,,,,,,,,,,,,,,,,,,,,,,,,,,,,,,,,,,,,,,,,,,,,,,,,,,,,,,,,,,,,,,,,,,,,,,,1005.6140879039995,1013.0586178839994,,,,,,,032822,0,3,1,2,1,1,2,0,32,2022_Mar_28_1029,listening_fmri,3.2.4,59.88652437853629,
5,parcelated_audio/21/21_3.ogg,,,,,,,,,0,0,0,0,0,5,5,5,0,0,0,0,,,,,,,,,,,,,0,0,0,0,0,2,2,2,,,,,,,,,,,,,,,,,,,,,,,,,,,,,,,,,,,,,,,,,,,,,,,,,,,,,,,,,,,,,,,,,,,,,,,,,,,,,,,,,,,,,,,,,,,,,,,,,,,,,,,,,1013.0596328080001,1020.7354659389994,,,,,,,032822,0,3,1,2,1,1,2,0,32,2022_Mar_28_1029,listening_fmri,3.2.4,59.88652437853629,
5,parcelated_audio/21/21_4.ogg,,,,,,,,,0,0,0,0,0,5,5,5,0,0,0,0,,,,,,,,,,,,,0,0,0,0,0,3,3,3,,,,,,,,,,,,,,,,,,,,,,,,,,,,,,,,,,,,,,,,,,,,,,,,,,,,,,,,,,,,,,,,,,,,,,,,,,,,,,,,,,,,,,,,,,,,,,,,,,,,,,,,,1020.7364569109996,1031.7736960450002,,,,,,,032822,0,3,1,2,1,1,2,0,32,2022_Mar_28_1029,listening_fmri,3.2.4,59.88652437853629,
5,parcelated_audio/21/21_5.ogg,,,,,,,,,0,0,0,0,0,5,5,5,0,0,0,0,,,,,,,,,,,,,0,0,0,0,0,4,4,4,,,,,,,,,,,,,,,,,,,,,,,,,,,,,,,,,,,,,,,,,,,,,,,,,,,,,,,,,,,,,,,,,,,,,,,,,,,,,,,,,,,,,,,,,,,,,,,,,,,,,,,,,1031.774126116,1036.8286281619994,,,,,,,032822,0,3,1,2,1,1,2,0,32,2022_Mar_28_1029,listening_fmri,3.2.4,59.88652437853629,
5,parcelated_audio/21/21_6.ogg,,,,,,,,,0,0,0,0,0,5,5,5,0,0,0,0,,,,,,,,,,,,,0,0,0,0,0,5,5,5,,,,,,,,,,,,,,,,,,,,,,,,,,,,,,,,,,,,,,,,,,,,,,,,,,,,,,,,,,,,,,,,,,,,,,,,,,,,,,,,,,,,,,,,,,,,,,,,,,,,,,,,,1036.8290438719996,1044.9974325519997,,,,,,,032822,0,3,1,2,1,1,2,0,32,2022_Mar_28_1029,listening_fmri,3.2.4,59.88652437853629,
5,parcelated_audio/21/21_7.ogg,,,,,,,,,0,0,0,0,0,5,5,5,0,0,0,0,,,,,,,,,,,,,0,0,0,0,0,6,6,6,,,,,,,,,,,,,,,,,,,,,,,,,,,,,,,,,,,,,,,,,,,,,,,,,,,,,,,,,,,,,,,,,,,,,,,,,,,,,,,,,,,,,,,,,,,,,,,,,,,,,,,,,1044.9977853009996,1049.5149650009998,,,,,,,032822,0,3,1,2,1,1,2,0,32,2022_Mar_28_1029,listening_fmri,3.2.4,59.88652437853629,
5,parcelated_audio/21/21_8.ogg,,,,,,,,,0,0,0,0,0,5,5,5,0,0,0,0,,,,,,,,,,,,,0,0,0,0,0,7,7,7,,,,,,,,,,,,,,,,,,,,,,,,,,,,,,,,,,,,,,,,,,,,,,,,,,,,,,,,,,,,,,,,,,,,,,,,,,,,,,,,,,,,,,,,,,,,,,,,,,,,,,,,,1049.5154867909996,1060.4212024589997,,,,,,,032822,0,3,1,2,1,1,2,0,32,2022_Mar_28_1029,listening_fmri,3.2.4,59.88652437853629,
5,parcelated_audio/21/21_9.ogg,,,,,,,,,0,0,0,0,0,5,5,5,0,0,0,0,,,,,,,,,,,,,0,0,0,0,0,8,8,8,,,,,,,,,,,,,,,,,,,,,,,,,,,,,,,,,,,,,,,,,,,,,,,,,,,,,,,,,,,,,,,,,,,,,,,,,,,,,,,,,,,,,,,,,,,,,,,,,,,,,,,,,1060.421735109,1067.7944209879997,,,,,,,032822,0,3,1,2,1,1,2,0,32,2022_Mar_28_1029,listening_fmri,3.2.4,59.88652437853629,
5,parcelated_audio/21/21_10.ogg,,,,,,,,,0,0,0,0,0,5,5,5,0,0,0,0,,,,,,,,,,,,,0,0,0,0,0,9,9,9,,,,,,,,,,,,,,,,,,,,,,,,,,,,,,,,,,,,,,,,,,,,,,,,,,,,,,,,,,,,,,,,,,,,,,,,,,,,,,,,,,,,,,,,,,,,,,,,,,,,,,,,,1067.794767712,1074.6306314989997,,,,,,,032822,0,3,1,2,1,1,2,0,32,2022_Mar_28_1029,listening_fmri,3.2.4,59.88652437853629,
5,parcelated_audio/21/21_11.ogg,,,,,,,,,0,0,0,0,0,5,5,5,0,0,0,0,,,,,,,,,,,,,0,0,0,0,0,10,10,10,,,,,,,,,,,,,,,,,,,,,,,,,,,,,,,,,,,,,,,,,,,,,,,,,,,,,,,,,,,,,,,,,,,,,,,,,,,,,,,,,,,,,,,,,,,,,,,,,,,,,,,,,1074.6309840200001,1081.7236995510002,,,,,,,032822,0,3,1,2,1,1,2,0,32,2022_Mar_28_1029,listening_fmri,3.2.4,59.88652437853629,
5,parcelated_audio/21/21_12.ogg,,,,,,,,,0,0,0,0,0,5,5,5,0,0,0,0,,,,,,,,,,,,,0,0,0,0,0,11,11,11,,,,,,,,,,,,,,,,,,,,,,,,,,,,,,,,,,,,,,,,,,,,,,,,,,,,,,,,,,,,,,,,,,,,,,,,,,,,,,,,,,,,,,,,,,,,,,,,,,,,,,,,,1081.7240321629997,1090.0592459439995,,,,,,,032822,0,3,1,2,1,1,2,0,32,2022_Mar_28_1029,listening_fmri,3.2.4,59.88652437853629,
5,parcelated_audio/21/21_13.ogg,,,,,,,,,0,0,0,0,0,5,5,5,0,0,0,0,,,,,,,,,,,,,0,0,0,0,0,12,12,12,,,,,,,,,,,,,,,,,,,,,,,,,,,,,,,,,,,,,,,,,,,,,,,,,,,,,,,,,,,,,,,,,,,,,,,,,,,,,,,,,,,,,,,,,,,,,,,,,,,,,,,,,1090.0595804079994,1093.3985623600001,,,,,,,032822,0,3,1,2,1,1,2,0,32,2022_Mar_28_1029,listening_fmri,3.2.4,59.88652437853629,
5,parcelated_audio/21/21_14.ogg,,,,,,,,,0,0,0,0,0,5,5,5,0,0,0,0,,,,,,,,,,,,,0,0,0,0,0,13,13,13,,,,,,,,,,,,,,,,,,,,,,,,,,,,,,,,,,,,,,,,,,,,,,,,,,,,,,,,,,,,,,,,,,,,,,,,,,,,,,,,,,,,,,,,,,,,,,,,,,,,,,,,,1093.3989263180001,1098.8030628729994,,,,,,,032822,0,3,1,2,1,1,2,0,32,2022_Mar_28_1029,listening_fmri,3.2.4,59.88652437853629,
5,parcelated_audio/21/21_15.ogg,,,,,,,,,0,0,0,0,0,5,5,5,0,0,0,0,,,,,,,,,,,,,0,0,0,0,0,14,14,14,,,,,,,,,,,,,,,,,,,,,,,,,,,,,,,,,,,,,,,,,,,,,,,,,,,,,,,,,,,,,,,,,,,,,,,,,,,,,,,,,,,,,,,,,,,,,,,,,,,,,,,,,1098.80348994,1105.6116382659993,,,,,,,032822,0,3,1,2,1,1,2,0,32,2022_Mar_28_1029,listening_fmri,3.2.4,59.88652437853629,
5,parcelated_audio/21/21_16.ogg,,,,,,,,,0,0,0,0,0,5,5,5,0,0,0,0,,,,,,,,,,,,,0,0,0,0,0,15,15,15,,,,,,,,,,,,,,,,,,,,,,,,,,,,,,,,,,,,,,,,,,,,,,,,,,,,,,,,,,,,,,,,,,,,,,,,,,,,,,,,,,,,,,,,,,,,,,,,,,,,,,,,,1105.6119999739994,1111.685732248,,,,,,,032822,0,3,1,2,1,1,2,0,32,2022_Mar_28_1029,listening_fmri,3.2.4,59.88652437853629,
5,parcelated_audio/21/21_17.ogg,,,,,,,,,0,0,0,0,0,5,5,5,0,0,0,0,,,,,,,,,,,,,0,0,0,0,0,16,16,16,,,,,,,,,,,,,,,,,,,,,,,,,,,,,,,,,,,,,,,,,,,,,,,,,,,,,,,,,,,,,,,,,,,,,,,,,,,,,,,,,,,,,,,,,,,,,,,,,,,,,,,,,1111.6862043009996,1113.8456118610002,,,,,,,032822,0,3,1,2,1,1,2,0,32,2022_Mar_28_1029,listening_fmri,3.2.4,59.88652437853629,
5,parcelated_audio/21/21_18.ogg,,,,,,,,,0,0,0,0,0,5,5,5,0,0,0,0,,,,,,,,,,,,,0,0,0,0,0,17,17,17,,,,,,,,,,,,,,,,,,,,,,,,,,,,,,,,,,,,,,,,,,,,,,,,,,,,,,,,,,,,,,,,,,,,,,,,,,,,,,,,,,,,,,,,,,,,,,,,,,,,,,,,,1113.846508644,1127.00537566,,,,,,,032822,0,3,1,2,1,1,2,0,32,2022_Mar_28_1029,listening_fmri,3.2.4,59.88652437853629,
5,parcelated_audio/21/21_19.ogg,,,,,,,,,0,0,0,0,0,5,5,5,0,0,0,0,,,,,,,,,,,,,0,0,0,0,0,18,18,18,,,,,,,,,,,,,,,,,,,,,,,,,,,,,,,,,,,,,,,,,,,,,,,,,,,,,,,,,,,,,,,,,,,,,,,,,,,,,,,,,,,,,,,,,,,,,,,,,,,,,,,,,1127.0057403370001,1129.8806008719994,,,,,,,032822,0,3,1,2,1,1,2,0,32,2022_Mar_28_1029,listening_fmri,3.2.4,59.88652437853629,
5,parcelated_audio/21/21_20.ogg,,,,,,,,,0,0,0,0,0,5,5,5,0,0,0,0,,,,,,,,,,,,,0,0,0,0,0,19,19,19,,,,,,,,,,,,,,,,,,,,,,,,,,,,,,,,,,,,,,,,,,,,,,,,,,,,,,,,,,,,,,,,,,,,,,,,,,,,,,,,,,,,,,,,,,,,,,,,,,,,,,,,,1129.880959051,1138.7071432419998,,,,,,,032822,0,3,1,2,1,1,2,0,32,2022_Mar_28_1029,listening_fmri,3.2.4,59.88652437853629,
5,parcelated_audio/21/21_21.ogg,,,,,,,,,0,0,0,0,0,5,5,5,0,0,0,0,,,,,,,,,,,,,0,0,0,0,0,20,20,20,,,,,,,,,,,,,,,,,,,,,,,,,,,,,,,,,,,,,,,,,,,,,,,,,,,,,,,,,,,,,,,,,,,,,,,,,,,,,,,,,,,,,,,,,,,,,,,,,,,,,,,,,1138.7074905989994,1149.7407670559996,,,,,,,032822,0,3,1,2,1,1,2,0,32,2022_Mar_28_1029,listening_fmri,3.2.4,59.88652437853629,
5,parcelated_audio/21/21_22.ogg,,,,,,,,,0,0,0,0,0,5,5,5,0,0,0,0,,,,,,,,,,,,,0,0,0,0,0,21,21,21,,,,,,,,,,,,,,,,,,,,,,,,,,,,,,,,,,,,,,,,,,,,,,,,,,,,,,,,,,,,,,,,,,,,,,,,,,,,,,,,,,,,,,,,,,,,,,,,,,,,,,,,,1149.741130497,1160.6432026040002,,,,,,,032822,0,3,1,2,1,1,2,0,32,2022_Mar_28_1029,listening_fmri,3.2.4,59.88652437853629,
5,parcelated_audio/21/21_23.ogg,,,,,,,,,0,0,0,0,0,5,5,5,0,0,0,0,,,,,,,,,,,,,0,0,0,0,0,22,22,22,,,,,,,,,,,,,,,,,,,,,,,,,,,,,,,,,,,,,,,,,,,,,,,,,,,,,,,,,,,,,,,,,,,,,,,,,,,,,,,,,,,,,,,,,,,,,,,,,,,,,,,,,1160.6435724909998,1165.605879371,,,,,,,032822,0,3,1,2,1,1,2,0,32,2022_Mar_28_1029,listening_fmri,3.2.4,59.88652437853629,
5,parcelated_audio/21/21_24.ogg,,,,,,,,,0,0,0,0,0,5,5,5,0,0,0,0,,,,,,,,,,,,,0,0,0,0,0,23,23,23,,,,,,,,,,,,,,,,,,,,,,,,,,,,,,,,,,,,,,,,,,,,,,,,,,,,,,,,,,,,,,,,,,,,,,,,,,,,,,,,,,,,,,,,,,,,,,,,,,,,,,,,,1165.6062349759995,1170.1899851899998,,,,,,,032822,0,3,1,2,1,1,2,0,32,2022_Mar_28_1029,listening_fmri,3.2.4,59.88652437853629,
5,parcelated_audio/21/21_25.ogg,,,,,,,,,0,0,0,0,0,5,5,5,0,0,0,0,,,,,,,,,,,,,0,0,0,0,0,24,24,24,,,,,,,,,,,,,,,,,,,,,,,,,,,,,,,,,,,,,,,,,,,,,,,,,,,,,,,,,,,,,,,,,,,,,,,,,,,,,,,,,,,,,,,,,,,,,,,,,,,,,,,,,1170.1903421890001,1179.624599273,,,,,,,032822,0,3,1,2,1,1,2,0,32,2022_Mar_28_1029,listening_fmri,3.2.4,59.88652437853629,
5,parcelated_audio/21/21_26.ogg,,,,,,,,,0,0,0,0,0,5,5,5,0,0,0,0,,,,,,,,,,,,,0,0,0,0,0,25,25,25,,,,,,,,,,,,,,,,,,,,,,,,,,,,,,,,,,,,,,,,,,,,,,,,,,,,,,,,,,,,,,,,,,,,,,,,,,,,,,,,,,,,,,,,,,,,,,,,,,,,,,,,,1179.6249117329999,1183.6147506329999,,,,,,,032822,0,3,1,2,1,1,2,0,32,2022_Mar_28_1029,listening_fmri,3.2.4,59.88652437853629,
5,parcelated_audio/21/21_27.ogg,,,,,,,,,0,0,0,0,0,5,5,5,0,0,0,0,,,,,,,,,,,,,0,0,0,0,0,26,26,26,,,,,,,,,,,,,,,,,,,,,,,,,,,,,,,,,,,,,,,,,,,,,,,,,,,,,,,,,,,,,,,,,,,,,,,,,,,,,,,,,,,,,,,,,,,,,,,,,,,,,,,,,1183.615236873,1190.7988498189998,,,,,,,032822,0,3,1,2,1,1,2,0,32,2022_Mar_28_1029,listening_fmri,3.2.4,59.88652437853629,
5,parcelated_audio/21/21_28.ogg,,,,,,,,,0,0,0,0,0,5,5,5,0,0,0,0,,,,,,,,,,,,,0,0,0,0,0,27,27,27,,,,,,,,,,,,,,,,,,,,,,,,,,,,,,,,,,,,,,,,,,,,,,,,,,,,,,,,,,,,,,,,,,,,,,,,,,,,,,,,,,,,,,,,,,,,,,,,,,,,,,,,,1190.7992136849998,1196.9116669300001,,,,,,,032822,0,3,1,2,1,1,2,0,32,2022_Mar_28_1029,listening_fmri,3.2.4,59.88652437853629,
5,parcelated_audio/21/21_29.ogg,,,,,,,,,0,0,0,0,0,5,5,5,0,0,0,0,,,,,,,,,,,,,0,0,0,0,0,28,28,28,,,,,,,,,,,,,,,,,,,,,,,,,,,,,,,,,,,,,,,,,,,,,,,,,,,,,,,,,,,,,,,,,,,,,,,,,,,,,,,,,,,,,,,,,,,,,,,,,,,,,,,,,1196.9120203109997,1201.1806592739995,,,,,,,032822,0,3,1,2,1,1,2,0,32,2022_Mar_28_1029,listening_fmri,3.2.4,59.88652437853629,
5,parcelated_audio/21/21_30.ogg,,,,,,,,,0,0,0,0,0,5,5,5,0,0,0,0,,,,,,,,,,,,,0,0,0,0,0,29,29,29,,,,,,,,,,,,,,,,,,,,,,,,,,,,,,,,,,,,,,,,,,,,,,,,,,,,,,,,,,,,,,,,,,,,,,,,,,,,,,,,,,,,,,,,,,,,,,,,,,,,,,,,,1201.1810140090001,1206.4416394709997,,,,,,,032822,0,3,1,2,1,1,2,0,32,2022_Mar_28_1029,listening_fmri,3.2.4,59.88652437853629,
5,,,,,,,,,,0,0,0,0,0,5,5,5,0,0,0,0,,,,,,,,,,,,,0,0,0,0,,,,,,,,,,,,,,,,,,,,,,,,,,,,,,,,,,,,,,,,,,,,,,,,,,,,,,,,,,,,,,,,,,,,,,,,,,,,,,,,,,,,,,,,,,,,,,,,,,,,,,,,,,,,,,,,,,,,,032822,0,3,1,2,1,1,2,0,32,2022_Mar_28_1029,listening_fmri,3.2.4,59.88652437853629,
5,,,,,,,,,,0,0,0,0,0,5,5,5,0,0,0,0,,,,,,,,,,,,,,,,,,,,,,,,,,,,,,,,,,,,,,,,,,1206.442133095,1212.4343747699995,1252.8870596420002,None,,,,,,,,,,,,,,,,,,,,,,,,,,,,,,,,,,,,,,,,,,,,,,,,,,,,,,,,,,,,,,,,,,,,,,,,,,,,,,,,,,1258.8878658990006,None,1258.8878658990006,None,,,032822,0,3,1,2,1,1,2,0,32,2022_Mar_28_1029,listening_fmri,3.2.4,59.88652437853629,
5,,,,,,,,,,0,0,0,0,0,5,5,5,,,,,,,,,,,,,,,,,,,,,,,,,,,,,,,,,,,,,,,,,,,,,,,,,,,,,,,,,,,,,,,,,,,,,,,,,,,,,,,,,,,,,,,,,,,,,,,,,,,,,,,,,,,,,,,,,,,,,,,,,,,,,,,,,,,,,,,,,032822,0,3,1,2,1,1,2,0,32,2022_Mar_28_1029,listening_fmri,3.2.4,59.88652437853629,
6,,,,,,,,,,0,0,0,0,0,6,6,6,,,,,,,,,,,,,,,,,,,,,,,,,,,,,,,,,,,,,,,,,,,,,,,,,,,,,,,,,,,,,,,,,,,,,,,,,,,,,,,,,,,,,,,,,,,,,,,,,,,,,,,,,,,,,,,,,,,,,,,,,,,,,,,,,,,,,,,,,032822,0,3,1,2,1,1,2,0,32,2022_Mar_28_1029,listening_fmri,3.2.4,59.88652437853629,
7,,,,,,,,,,0,0,0,0,0,7,7,7,0,0,0,0,0,0,0,0,0,0,0,0,,,,,,,,,,,,,,,,,,,,,,,,,,,,,,,,,,,,,,1259.9210739050004,None,1259.9210739050004,None,1,0.5981152659996951,1259.9210739050004,None,1259.9210739050004,None,1260.5375164940006,None,1,1.4005502670006535,1260.5375164940006,None,1260.5375164940006,None,1261.9878117830003,None,1261.9878117830003,None,1261.9878117830003,None,1,1.6453914650001025,1261.9878117830003,None,1263.6542400160006,None,1,0.6668149010001798,1263.6542400160006,None,1263.6542400160006,None,1264.4375308580002,None,1264.4375308580002,None,1264.4375308580002,None,1264.4375308580002,None,1264.4375308580002,None,1264.4375308580002,None,1264.4375308580002,None,None,1264.4375308580002,None,,,,,,,,,,,,,,,,,,,,,,,,,,,,,,,,,,,032822,0,3,1,2,1,1,2,0,32,2022_Mar_28_1029,listening_fmri,3.2.4,59.88652437853629,
7,,,,,,,,,,0,0,0,0,0,7,7,7,0,0,0,0,0,0,0,0,,,,,,,,,,,,,,,,,,,,,,,,,,,,,,,,,,,,,,,,,,,,,,,,,,,,,,,,,,,,,,,,,,,,,,,,,,,,,,,,,,,,,,,,,,,,,,,1276.9203680030005,None,1,1.53781386799983,1276.9203680030005,None,1276.9203680030005,None,1278.504586483,None,1278.504586483,None,1278.504586483,None,1,0.8314486850003959,1278.504586483,None,,,,,,,,,,,,,,,,,032822,0,3,1,2,1,1,2,0,32,2022_Mar_28_1029,listening_fmri,3.2.4,59.88652437853629,
7,parcelated_audio/32/32_1.ogg,,,,,,,,,0,0,0,0,0,7,7,7,0,0,0,0,,,,,,,,,,,,,0,0,0,0,0,0,0,0,,,,,,,,,,,,,,,,,,,,,,,,,,,,,,,,,,,,,,,,,,,,,,,,,,,,,,,,,,,,,,,,,,,,,,,,,,,,,,,,,,,,,,,,,,,,,,,,,1279.403816465,None,1,4.111302273000547,1279.403816465,None,1237.1002335849998,1240.1006055199996,1240.106511006,1251.4527159319996,,,,,,,032822,0,3,1,2,1,1,2,0,32,2022_Mar_28_1029,listening_fmri,3.2.4,59.88652437853629,
7,parcelated_audio/32/32_2.ogg,,,,,,,,,0,0,0,0,0,7,7,7,0,0,0,0,,,,,,,,,,,,,0,0,0,0,0,1,1,1,,,,,,,,,,,,,,,,,,,,,,,,,,,,,,,,,,,,,,,,,,,,,,,,,,,,,,,,,,,,,,,,,,,,,,,,,,,,,,,,,,,,,,,,,,,,,,,,,,,,,,,,,1251.4530575560002,1259.769659988,,,,,,,032822,0,3,1,2,1,1,2,0,32,2022_Mar_28_1029,listening_fmri,3.2.4,59.88652437853629,
7,parcelated_audio/32/32_3.ogg,,,,,,,,,0,0,0,0,0,7,7,7,0,0,0,0,,,,,,,,,,,,,0,0,0,0,0,2,2,2,,,,,,,,,,,,,,,,,,,,,,,,,,,,,,,,,,,,,,,,,,,,,,,,,,,,,,,,,,,,,,,,,,,,,,,,,,,,,,,,,,,,,,,,,,,,,,,,,,,,,,,,,1259.770217204,1265.3467203479995,,,,,,,032822,0,3,1,2,1,1,2,0,32,2022_Mar_28_1029,listening_fmri,3.2.4,59.88652437853629,
7,parcelated_audio/32/32_4.ogg,,,,,,,,,0,0,0,0,0,7,7,7,0,0,0,0,,,,,,,,,,,,,0,0,0,0,0,3,3,3,,,,,,,,,,,,,,,,,,,,,,,,,,,,,,,,,,,,,,,,,,,,,,,,,,,,,,,,,,,,,,,,,,,,,,,,,,,,,,,,,,,,,,,,,,,,,,,,,,,,,,,,,1265.347084037,1272.0345027129997,,,,,,,032822,0,3,1,2,1,1,2,0,32,2022_Mar_28_1029,listening_fmri,3.2.4,59.88652437853629,
7,parcelated_audio/32/32_5.ogg,,,,,,,,,0,0,0,0,0,7,7,7,0,0,0,0,,,,,,,,,,,,,0,0,0,0,0,4,4,4,,,,,,,,,,,,,,,,,,,,,,,,,,,,,,,,,,,,,,,,,,,,,,,,,,,,,,,,,,,,,,,,,,,,,,,,,,,,,,,,,,,,,,,,,,,,,,,,,,,,,,,,,1272.034827593,1283.7175385109995,,,,,,,032822,0,3,1,2,1,1,2,0,32,2022_Mar_28_1029,listening_fmri,3.2.4,59.88652437853629,
7,parcelated_audio/32/32_6.ogg,,,,,,,,,0,0,0,0,0,7,7,7,0,0,0,0,,,,,,,,,,,,,0,0,0,0,0,5,5,5,,,,,,,,,,,,,,,,,,,,,,,,,,,,,,,,,,,,,,,,,,,,,,,,,,,,,,,,,,,,,,,,,,,,,,,,,,,,,,,,,,,,,,,,,,,,,,,,,,,,,,,,,1283.7184232649997,1292.1979908859994,,,,,,,032822,0,3,1,2,1,1,2,0,32,2022_Mar_28_1029,listening_fmri,3.2.4,59.88652437853629,
7,parcelated_audio/32/32_7.ogg,,,,,,,,,0,0,0,0,0,7,7,7,0,0,0,0,,,,,,,,,,,,,0,0,0,0,0,6,6,6,,,,,,,,,,,,,,,,,,,,,,,,,,,,,,,,,,,,,,,,,,,,,,,,,,,,,,,,,,,,,,,,,,,,,,,,,,,,,,,,,,,,,,,,,,,,,,,,,,,,,,,,,1292.1983452719996,1295.587324661,,,,,,,032822,0,3,1,2,1,1,2,0,32,2022_Mar_28_1029,listening_fmri,3.2.4,59.88652437853629,
7,parcelated_audio/32/32_8.ogg,,,,,,,,,0,0,0,0,0,7,7,7,0,0,0,0,,,,,,,,,,,,,0,0,0,0,0,7,7,7,,,,,,,,,,,,,,,,,,,,,,,,,,,,,,,,,,,,,,,,,,,,,,,,,,,,,,,,,,,,,,,,,,,,,,,,,,,,,,,,,,,,,,,,,,,,,,,,,,,,,,,,,1295.5877233889996,1300.0506287889993,,,,,,,032822,0,3,1,2,1,1,2,0,32,2022_Mar_28_1029,listening_fmri,3.2.4,59.88652437853629,
7,parcelated_audio/32/32_9.ogg,,,,,,,,,0,0,0,0,0,7,7,7,0,0,0,0,,,,,,,,,,,,,0,0,0,0,0,8,8,8,,,,,,,,,,,,,,,,,,,,,,,,,,,,,,,,,,,,,,,,,,,,,,,,,,,,,,,,,,,,,,,,,,,,,,,,,,,,,,,,,,,,,,,,,,,,,,,,,,,,,,,,,1300.05121642,1308.722708448,,,,,,,032822,0,3,1,2,1,1,2,0,32,2022_Mar_28_1029,listening_fmri,3.2.4,59.88652437853629,
7,parcelated_audio/32/32_10.ogg,,,,,,,,,0,0,0,0,0,7,7,7,0,0,0,0,,,,,,,,,,,,,0,0,0,0,0,9,9,9,,,,,,,,,,,,,,,,,,,,,,,,,,,,,,,,,,,,,,,,,,,,,,,,,,,,,,,,,,,,,,,,,,,,,,,,,,,,,,,,,,,,,,,,,,,,,,,,,,,,,,,,,1308.7230647629995,1313.3951804669996,,,,,,,032822,0,3,1,2,1,1,2,0,32,2022_Mar_28_1029,listening_fmri,3.2.4,59.88652437853629,
7,parcelated_audio/32/32_11.ogg,,,,,,,,,0,0,0,0,0,7,7,7,0,0,0,0,,,,,,,,,,,,,0,0,0,0,0,10,10,10,,,,,,,,,,,,,,,,,,,,,,,,,,,,,,,,,,,,,,,,,,,,,,,,,,,,,,,,,,,,,,,,,,,,,,,,,,,,,,,,,,,,,,,,,,,,,,,,,,,,,,,,,1313.395534321,1319.468538356,,,,,,,032822,0,3,1,2,1,1,2,0,32,2022_Mar_28_1029,listening_fmri,3.2.4,59.88652437853629,
7,parcelated_audio/32/32_12.ogg,,,,,,,,,0,0,0,0,0,7,7,7,0,0,0,0,,,,,,,,,,,,,0,0,0,0,0,11,11,11,,,,,,,,,,,,,,,,,,,,,,,,,,,,,,,,,,,,,,,,,,,,,,,,,,,,,,,,,,,,,,,,,,,,,,,,,,,,,,,,,,,,,,,,,,,,,,,,,,,,,,,,,1319.4699609,1328.9085907039998,,,,,,,032822,0,3,1,2,1,1,2,0,32,2022_Mar_28_1029,listening_fmri,3.2.4,59.88652437853629,
7,parcelated_audio/32/32_13.ogg,,,,,,,,,0,0,0,0,0,7,7,7,0,0,0,0,,,,,,,,,,,,,0,0,0,0,0,12,12,12,,,,,,,,,,,,,,,,,,,,,,,,,,,,,,,,,,,,,,,,,,,,,,,,,,,,,,,,,,,,,,,,,,,,,,,,,,,,,,,,,,,,,,,,,,,,,,,,,,,,,,,,,1328.9091367399997,1338.5218540249998,,,,,,,032822,0,3,1,2,1,1,2,0,32,2022_Mar_28_1029,listening_fmri,3.2.4,59.88652437853629,
7,parcelated_audio/32/32_14.ogg,,,,,,,,,0,0,0,0,0,7,7,7,0,0,0,0,,,,,,,,,,,,,0,0,0,0,0,13,13,13,,,,,,,,,,,,,,,,,,,,,,,,,,,,,,,,,,,,,,,,,,,,,,,,,,,,,,,,,,,,,,,,,,,,,,,,,,,,,,,,,,,,,,,,,,,,,,,,,,,,,,,,,1338.5222168579994,1346.6324768089999,,,,,,,032822,0,3,1,2,1,1,2,0,32,2022_Mar_28_1029,listening_fmri,3.2.4,59.88652437853629,
7,parcelated_audio/32/32_15.ogg,,,,,,,,,0,0,0,0,0,7,7,7,0,0,0,0,,,,,,,,,,,,,0,0,0,0,0,14,14,14,,,,,,,,,,,,,,,,,,,,,,,,,,,,,,,,,,,,,,,,,,,,,,,,,,,,,,,,,,,,,,,,,,,,,,,,,,,,,,,,,,,,,,,,,,,,,,,,,,,,,,,,,1346.632754456,1353.5156673109996,,,,,,,032822,0,3,1,2,1,1,2,0,32,2022_Mar_28_1029,listening_fmri,3.2.4,59.88652437853629,
7,parcelated_audio/32/32_16.ogg,,,,,,,,,0,0,0,0,0,7,7,7,0,0,0,0,,,,,,,,,,,,,0,0,0,0,0,15,15,15,,,,,,,,,,,,,,,,,,,,,,,,,,,,,,,,,,,,,,,,,,,,,,,,,,,,,,,,,,,,,,,,,,,,,,,,,,,,,,,,,,,,,,,,,,,,,,,,,,,,,,,,,1353.5169994459993,1361.136400855,,,,,,,032822,0,3,1,2,1,1,2,0,32,2022_Mar_28_1029,listening_fmri,3.2.4,59.88652437853629,
7,parcelated_audio/32/32_17.ogg,,,,,,,,,0,0,0,0,0,7,7,7,0,0,0,0,,,,,,,,,,,,,0,0,0,0,0,16,16,16,,,,,,,,,,,,,,,,,,,,,,,,,,,,,,,,,,,,,,,,,,,,,,,,,,,,,,,,,,,,,,,,,,,,,,,,,,,,,,,,,,,,,,,,,,,,,,,,,,,,,,,,,1361.1367521309994,1369.4458707049998,,,,,,,032822,0,3,1,2,1,1,2,0,32,2022_Mar_28_1029,listening_fmri,3.2.4,59.88652437853629,
7,parcelated_audio/32/32_18.ogg,,,,,,,,,0,0,0,0,0,7,7,7,0,0,0,0,,,,,,,,,,,,,0,0,0,0,0,17,17,17,,,,,,,,,,,,,,,,,,,,,,,,,,,,,,,,,,,,,,,,,,,,,,,,,,,,,,,,,,,,,,,,,,,,,,,,,,,,,,,,,,,,,,,,,,,,,,,,,,,,,,,,,1369.4462263199994,1373.8458429089997,,,,,,,032822,0,3,1,2,1,1,2,0,32,2022_Mar_28_1029,listening_fmri,3.2.4,59.88652437853629,
7,parcelated_audio/32/32_19.ogg,,,,,,,,,0,0,0,0,0,7,7,7,0,0,0,0,,,,,,,,,,,,,0,0,0,0,0,18,18,18,,,,,,,,,,,,,,,,,,,,,,,,,,,,,,,,,,,,,,,,,,,,,,,,,,,,,,,,,,,,,,,,,,,,,,,,,,,,,,,,,,,,,,,,,,,,,,,,,,,,,,,,,1373.8462758549995,1381.897426593,,,,,,,032822,0,3,1,2,1,1,2,0,32,2022_Mar_28_1029,listening_fmri,3.2.4,59.88652437853629,
7,parcelated_audio/32/32_20.ogg,,,,,,,,,0,0,0,0,0,7,7,7,0,0,0,0,,,,,,,,,,,,,0,0,0,0,0,19,19,19,,,,,,,,,,,,,,,,,,,,,,,,,,,,,,,,,,,,,,,,,,,,,,,,,,,,,,,,,,,,,,,,,,,,,,,,,,,,,,,,,,,,,,,,,,,,,,,,,,,,,,,,,1381.8977316599994,1392.7868449349999,,,,,,,032822,0,3,1,2,1,1,2,0,32,2022_Mar_28_1029,listening_fmri,3.2.4,59.88652437853629,
7,parcelated_audio/32/32_21.ogg,,,,,,,,,0,0,0,0,0,7,7,7,0,0,0,0,,,,,,,,,,,,,0,0,0,0,0,20,20,20,,,,,,,,,,,,,,,,,,,,,,,,,,,,,,,,,,,,,,,,,,,,,,,,,,,,,,,,,,,,,,,,,,,,,,,,,,,,,,,,,,,,,,,,,,,,,,,,,,,,,,,,,1392.78731316,1401.6527917739995,,,,,,,032822,0,3,1,2,1,1,2,0,32,2022_Mar_28_1029,listening_fmri,3.2.4,59.88652437853629,
7,parcelated_audio/32/32_22.ogg,,,,,,,,,0,0,0,0,0,7,7,7,0,0,0,0,,,,,,,,,,,,,0,0,0,0,0,21,21,21,,,,,,,,,,,,,,,,,,,,,,,,,,,,,,,,,,,,,,,,,,,,,,,,,,,,,,,,,,,,,,,,,,,,,,,,,,,,,,,,,,,,,,,,,,,,,,,,,,,,,,,,,1401.6531559179994,1415.6991529039997,,,,,,,032822,0,3,1,2,1,1,2,0,32,2022_Mar_28_1029,listening_fmri,3.2.4,59.88652437853629,
7,parcelated_audio/32/32_23.ogg,,,,,,,,,0,0,0,0,0,7,7,7,0,0,0,0,,,,,,,,,,,,,0,0,0,0,0,22,22,22,,,,,,,,,,,,,,,,,,,,,,,,,,,,,,,,,,,,,,,,,,,,,,,,,,,,,,,,,,,,,,,,,,,,,,,,,,,,,,,,,,,,,,,,,,,,,,,,,,,,,,,,,1415.6996322629993,1424.743766654,,,,,,,032822,0,3,1,2,1,1,2,0,32,2022_Mar_28_1029,listening_fmri,3.2.4,59.88652437853629,
7,parcelated_audio/32/32_24.ogg,,,,,,,,,0,0,0,0,0,7,7,7,0,0,0,0,,,,,,,,,,,,,0,0,0,0,0,23,23,23,,,,,,,,,,,,,,,,,,,,,,,,,,,,,,,,,,,,,,,,,,,,,,,,,,,,,,,,,,,,,,,,,,,,,,,,,,,,,,,,,,,,,,,,,,,,,,,,,,,,,,,,,1424.7446521229995,1436.0431948509995,,,,,,,032822,0,3,1,2,1,1,2,0,32,2022_Mar_28_1029,listening_fmri,3.2.4,59.88652437853629,
7,parcelated_audio/32/32_25.ogg,,,,,,,,,0,0,0,0,0,7,7,7,0,0,0,0,,,,,,,,,,,,,0,0,0,0,0,24,24,24,,,,,,,,,,,,,,,,,,,,,,,,,,,,,,,,,,,,,,,,,,,,,,,,,,,,,,,,,,,,,,,,,,,,,,,,,,,,,,,,,,,,,,,,,,,,,,,,,,,,,,,,,1436.0436204869993,1442.1044851709994,,,,,,,032822,0,3,1,2,1,1,2,0,32,2022_Mar_28_1029,listening_fmri,3.2.4,59.88652437853629,
7,parcelated_audio/32/32_26.ogg,,,,,,,,,0,0,0,0,0,7,7,7,0,0,0,0,,,,,,,,,,,,,0,0,0,0,0,25,25,25,,,,,,,,,,,,,,,,,,,,,,,,,,,,,,,,,,,,,,,,,,,,,,,,,,,,,,,,,,,,,,,,,,,,,,,,,,,,,,,,,,,,,,,,,,,,,,,,,,,,,,,,,1442.1049476179996,1455.4519625809999,,,,,,,032822,0,3,1,2,1,1,2,0,32,2022_Mar_28_1029,listening_fmri,3.2.4,59.88652437853629,
7,parcelated_audio/32/32_27.ogg,,,,,,,,,0,0,0,0,0,7,7,7,0,0,0,0,,,,,,,,,,,,,0,0,0,0,0,26,26,26,,,,,,,,,,,,,,,,,,,,,,,,,,,,,,,,,,,,,,,,,,,,,,,,,,,,,,,,,,,,,,,,,,,,,,,,,,,,,,,,,,,,,,,,,,,,,,,,,,,,,,,,,1455.4522428459995,1462.4139853299994,,,,,,,032822,0,3,1,2,1,1,2,0,32,2022_Mar_28_1029,listening_fmri,3.2.4,59.88652437853629,
7,parcelated_audio/32/32_28.ogg,,,,,,,,,0,0,0,0,0,7,7,7,0,0,0,0,,,,,,,,,,,,,0,0,0,0,0,27,27,27,,,,,,,,,,,,,,,,,,,,,,,,,,,,,,,,,,,,,,,,,,,,,,,,,,,,,,,,,,,,,,,,,,,,,,,,,,,,,,,,,,,,,,,,,,,,,,,,,,,,,,,,,1462.4142631609993,1469.1071744499995,,,,,,,032822,0,3,1,2,1,1,2,0,32,2022_Mar_28_1029,listening_fmri,3.2.4,59.88652437853629,
7,parcelated_audio/32/32_29.ogg,,,,,,,,,0,0,0,0,0,7,7,7,0,0,0,0,,,,,,,,,,,,,0,0,0,0,0,28,28,28,,,,,,,,,,,,,,,,,,,,,,,,,,,,,,,,,,,,,,,,,,,,,,,,,,,,,,,,,,,,,,,,,,,,,,,,,,,,,,,,,,,,,,,,,,,,,,,,,,,,,,,,,1469.1074725299995,1471.763735161,,,,,,,032822,0,3,1,2,1,1,2,0,32,2022_Mar_28_1029,listening_fmri,3.2.4,59.88652437853629,
7,parcelated_audio/32/32_30.ogg,,,,,,,,,0,0,0,0,0,7,7,7,0,0,0,0,,,,,,,,,,,,,0,0,0,0,0,29,29,29,,,,,,,,,,,,,,,,,,,,,,,,,,,,,,,,,,,,,,,,,,,,,,,,,,,,,,,,,,,,,,,,,,,,,,,,,,,,,,,,,,,,,,,,,,,,,,,,,,,,,,,,,1471.7640177189996,1478.800570427,,,,,,,032822,0,3,1,2,1,1,2,0,32,2022_Mar_28_1029,listening_fmri,3.2.4,59.88652437853629,
7,parcelated_audio/32/32_31.ogg,,,,,,,,,0,0,0,0,0,7,7,7,0,0,0,0,,,,,,,,,,,,,0,0,0,0,0,30,30,30,,,,,,,,,,,,,,,,,,,,,,,,,,,,,,,,,,,,,,,,,,,,,,,,,,,,,,,,,,,,,,,,,,,,,,,,,,,,,,,,,,,,,,,,,,,,,,,,,,,,,,,,,1478.8011050139994,1485.1335653629994,,,,,,,032822,0,3,1,2,1,1,2,0,32,2022_Mar_28_1029,listening_fmri,3.2.4,59.88652437853629,
7,parcelated_audio/32/32_32.ogg,,,,,,,,,0,0,0,0,0,7,7,7,0,0,0,0,,,,,,,,,,,,,0,0,0,0,0,31,31,31,,,,,,,,,,,,,,,,,,,,,,,,,,,,,,,,,,,,,,,,,,,,,,,,,,,,,,,,,,,,,,,,,,,,,,,,,,,,,,,,,,,,,,,,,,,,,,,,,,,,,,,,,1485.1349673939994,1494.8547309919995,,,,,,,032822,0,3,1,2,1,1,2,0,32,2022_Mar_28_1029,listening_fmri,3.2.4,59.88652437853629,
7,parcelated_audio/32/32_33.ogg,,,,,,,,,0,0,0,0,0,7,7,7,0,0,0,0,,,,,,,,,,,,,0,0,0,0,0,32,32,32,,,,,,,,,,,,,,,,,,,,,,,,,,,,,,,,,,,,,,,,,,,,,,,,,,,,,,,,,,,,,,,,,,,,,,,,,,,,,,,,,,,,,,,,,,,,,,,,,,,,,,,,,1494.8551887519998,1500.603736817,,,,,,,032822,0,3,1,2,1,1,2,0,32,2022_Mar_28_1029,listening_fmri,3.2.4,59.88652437853629,
7,,,,,,,,,,0,0,0,0,0,7,7,7,0,0,0,0,,,,,,,,,,,,,0,0,0,0,,,,,,,,,,,,,,,,,,,,,,,,,,,,,,,,,,,,,,,,,,,,,,,,,,,,,,,,,,,,,,,,,,,,,,,,,,,,,,,,,,,,,,,,,,,,,,,,,,,,,,,,,,,,,,,,,,,,,032822,0,3,1,2,1,1,2,0,32,2022_Mar_28_1029,listening_fmri,3.2.4,59.88652437853629,
7,,,,,,,,,,0,0,0,0,0,7,7,7,0,0,0,0,,,,,,,,,,,,,,,,,,,,,,,,,,,,,,,,,,,,,,,,,,1500.6041204530002,1506.5971948349998,1547.0507803250002,None,,,,,,,,,,,,,,,,,,,,,,,,,,,,,,,,,,,,,,,,,,,,,,,,,,,,,,,,,,,,,,,,,,,,,,,,,,,,,,,,,,1553.0508879509998,None,1553.0508879509998,None,,,032822,0,3,1,2,1,1,2,0,32,2022_Mar_28_1029,listening_fmri,3.2.4,59.88652437853629,
7,,,,,,,,,,0,0,0,0,0,7,7,7,,,,,,,,,,,,,,,,,,,,,,,,,,,,,,,,,,,,,,,,,,,,,,,,,,,,,,,,,,,,,,,,,,,,,,,,,,,,,,,,,,,,,,,,,,,,,,,,,,,,,,,,,,,,,,,,,,,,,,,,,,,,,,,,,,,,,,,,,032822,0,3,1,2,1,1,2,0,32,2022_Mar_28_1029,listening_fmri,3.2.4,59.88652437853629,
,,,,,,,,,,0,0,0,0,,,,,,,,,,,,,,,,,,,,,,,,,,,,,,,,,,,,,,,,,,,,,,,,,,,,,,,,,,,,,,,,,,,,,,,,,,,,,,,,,,,,,,,,,,,,,,,,,,,,,,,,,,,,,,,,,,,,,,,,,,,,,,,,,,,,,,,,,,,,,032822,0,3,1,2,1,1,2,0,32,2022_Mar_28_1029,listening_fmri,3.2.4,59.88652437853629,
,,,,,,,,,,,,,,,,,,,,,,,,,,,,,,,,,,,,,,,,,,,,,,0,0,0,0,,,,,,,,,,,,,,,,,,,,,,,,,,,,,,,,,,,,,,,,,,,,,,,,,,,,,,,,,,,,,,,,,,,,,,,,,,,,,,,,,,,,,,,,,,,,,,,,,,,,,,,1554.083992328,None,032822,0,3,1,2,1,1,2,0,32,2022_Mar_28_1029,listening_fmri,3.2.4,59.88652437853629,
,,,,,,,,,,,,,,,,,,,,,,,,,,,,,,,,,,,,,,,,,,,,,,1,0,1,0,,,,,,,,,,,,,,,,,,,,,,,,,,,,,,,,,,,,,,,,,,,,,,,,,,,,,,,,,,,,,,,,,,,,,,,,,,,,,,,,,,,,,,,,,,,,,,,,,,,,,,,1554.5710978460002,None,032822,0,3,1,2,1,1,2,0,32,2022_Mar_28_1029,listening_fmri,3.2.4,59.88652437853629,
,,,,,,,,,,,,,,,,,,,,,,,,,,,,,,,,,,,,,,,,,,,,,,2,0,2,0,,,,,,,,,,,,,,,,,,,,,,,,,,,,,,,,,,,,,,,,,,,,,,,,,,,,,,,,,,,,,,,,,,,,,,,,,,,,,,,,,,,,,,,,,,,,,,,,,,,,,,,1555.0717738390003,None,032822,0,3,1,2,1,1,2,0,32,2022_Mar_28_1029,listening_fmri,3.2.4,59.88652437853629,
,,,,,,,,,,,,,,,,,,,,,,,,,,,,,,,,,,,,,,,,,,,,,,3,0,3,0,,,,,,,,,,,,,,,,,,,,,,,,,,,,,,,,,,,,,,,,,,,,,,,,,,,,,,,,,,,,,,,,,,,,,,,,,,,,,,,,,,,,,,,,,,,,,,,,,,,,,,,1555.5716030520007,None,032822,0,3,1,2,1,1,2,0,32,2022_Mar_28_1029,listening_fmri,3.2.4,59.88652437853629,
,,,,,,,,,,,,,,,,,,,,,,,,,,,,,,,,,,,,,,,,,,,,,,4,0,4,0,,,,,,,,,,,,,,,,,,,,,,,,,,,,,,,,,,,,,,,,,,,,,,,,,,,,,,,,,,,,,,,,,,,,,,,,,,,,,,,,,,,,,,,,,,,,,,,,,,,,,,,1556.0721055880003,None,032822,0,3,1,2,1,1,2,0,32,2022_Mar_28_1029,listening_fmri,3.2.4,59.88652437853629,
