count,audio,trials_14.thisRepN,trials_14.thisTrialN,trials_14.thisN,trials_14.thisIndex,trials_3.thisRepN,trials_3.thisTrialN,trials_3.thisN,trials_3.thisIndex,trials_4.thisRepN,trials_4.thisTrialN,trials_4.thisN,trials_4.thisIndex,trials_6.thisRepN,trials_6.thisTrialN,trials_6.thisN,trials_6.thisIndex,trials_9.thisRepN,trials_9.thisTrialN,trials_9.thisN,trials_9.thisIndex,trials_10.thisRepN,trials_10.thisTrialN,trials_10.thisN,trials_10.thisIndex,trials_12.thisRepN,trials_12.thisTrialN,trials_12.thisN,trials_12.thisIndex,trials_25.thisRepN,trials_25.thisTrialN,trials_25.thisN,trials_25.thisIndex,trials_15.thisRepN,trials_15.thisTrialN,trials_15.thisN,trials_15.thisIndex,trials_26.thisRepN,trials_26.thisTrialN,trials_26.thisN,trials_26.thisIndex,trials_11.thisRepN,trials_11.thisTrialN,trials_11.thisN,trials_11.thisIndex,trials_8.thisRepN,trials_8.thisTrialN,trials_8.thisN,trials_8.thisIndex,story_list_block2,action_list_block2,textTrigger.started,textTrigger.stopped,getTrigger.keys,getTrigger.rt,getTrigger.started,getTrigger.stopped,triggerTime,text_76.started,text_76.stopped,text_77.started,text_77.stopped,startWait,endWait,image_23.started,image_23.stopped,text_55.started,text_55.stopped,text_56.started,text_56.stopped,key_resp_2.keys,key_resp_2.rt,key_resp_2.started,key_resp_2.stopped,text_82.started,text_82.stopped,text_64.started,text_64.stopped,key_resp_20.keys,key_resp_20.rt,key_resp_20.started,key_resp_20.stopped,storyImage_StartTime,storyImage_EndTime,clip_StartTime,clip_EndTime,text_67.started,text_67.stopped,text_68.started,text_68.stopped,text_57.started,text_57.stopped,key_resp_17.keys,key_resp_17.rt,key_resp_17.started,key_resp_17.stopped,text_83.started,text_83.stopped,text_60.started,text_60.stopped,image_2.started,image_2.stopped,text_58.started,text_58.stopped,key_resp_23.keys,key_resp_23.rt,key_resp_23.started,key_resp_23.stopped,text_62.started,text_62.stopped,key_resp_18.keys,key_resp_18.rt,key_resp_18.started,key_resp_18.stopped,text_84.started,text_84.stopped,question1_2.started,question1_2.stopped,question2_2.started,question2_2.stopped,question3_2.started,question3_2.stopped,question4_2.started,question4_2.stopped,question5_2.started,question5_2.stopped,question6_2.started,question6_2.stopped,image_15.started,image_15.stopped,key_resp.keys,key_resp.started,key_resp.stopped,text_59.started,text_59.stopped,key_resp_19.keys,key_resp_19.rt,key_resp_19.started,key_resp_19.stopped,text_85.started,text_85.stopped,text_61.started,text_61.stopped,image_17.started,image_17.stopped,text_63.started,text_63.stopped,key_resp_24.keys,key_resp_24.rt,key_resp_24.started,key_resp_24.stopped,text_36.started,text_36.stopped,participant,sA,sB,lA,lB,block_struct,play_stories,block,behavioral,random_seed,date,expName,psychopyVersion,frameRate,
0,,,,,,,,,,0,0,0,0,0,0,0,0,,,,,,,,,,,,,,,,,,,,,,,,,,,,,,,,,[22 13 31 24 33 11 42 44],[3 4 1 3 1 4 2 2],24.601267240000197,None,equal,26.557003191999684,24.601267240000197,None,26.592836810000335,24.601267240000197,None,24.601267240000197,None,0.00039711199951852905,5.998981477999223,51.18441921400063,None,,,,,,,,,,,,,,,,,,,,,,,,,,,,,,,,,,,,,,,,,,,,,,,,,,,,,,,,,,,,,,,,,,,,,,,,,,,,,,,,,,,,,,,,012122,1,2,1,3,0,1,2,0,46,2022_Jan_21_1115,listening_fmri,3.2.4,59.808474723349114,
1,parcelated_audio/13/13_1.ogg,,,,,,,,,0,0,0,0,0,1,1,1,0,0,0,0,,,,,,,,,0,0,0,0,0,0,0,0,,,,,,,,,,,,,,,,,,,,,,,,,,,,,,57.200455932000295,None,57.200455932000295,None,2,1.0186428619999788,57.200455932000295,None,57.200455932000295,None,58.250802726000074,None,3,1.3404656459997568,58.250802726000074,None,8.439943944999868,11.448937519999163,11.455432623999513,23.145744623999235,,,,,,,,,,,,,,,,,,,,,,,,,,,,,,,,,,,,,,,,,,,,,,,,,,,,,,,,,,,,,,,,,,,,012122,1,2,1,3,0,1,2,0,46,2022_Jan_21_1115,listening_fmri,3.2.4,59.808474723349114,
1,parcelated_audio/13/13_2.ogg,,,,,,,,,0,0,0,0,0,1,1,1,0,0,0,0,,,,,,,,,0,0,0,0,0,1,1,1,,,,,,,,,,,,,,,,,,,,,,,,,,,,,,,,,,,,,,,,,,,,,,,,23.146106272999532,29.251658562999182,,,,,,,,,,,,,,,,,,,,,,,,,,,,,,,,,,,,,,,,,,,,,,,,,,,,,,,,,,,,,,,,,,,,012122,1,2,1,3,0,1,2,0,46,2022_Jan_21_1115,listening_fmri,3.2.4,59.808474723349114,
1,parcelated_audio/13/13_3.ogg,,,,,,,,,0,0,0,0,0,1,1,1,0,0,0,0,,,,,,,,,0,0,0,0,0,2,2,2,,,,,,,,,,,,,,,,,,,,,,,,,,,,,,,,,,,,,,,,,,,,,,,,29.25201519699931,37.71580899899982,,,,,,,,,,,,,,,,,,,,,,,,,,,,,,,,,,,,,,,,,,,,,,,,,,,,,,,,,,,,,,,,,,,,012122,1,2,1,3,0,1,2,0,46,2022_Jan_21_1115,listening_fmri,3.2.4,59.808474723349114,
1,parcelated_audio/13/13_4.ogg,,,,,,,,,0,0,0,0,0,1,1,1,0,0,0,0,,,,,,,,,0,0,0,0,0,3,3,3,,,,,,,,,,,,,,,,,,,,,,,,,,,,,,,,,,,,,,,,,,,,,,,,37.71616793699923,47.94885328700002,,,,,,,,,,,,,,,,,,,,,,,,,,,,,,,,,,,,,,,,,,,,,,,,,,,,,,,,,,,,,,,,,,,,012122,1,2,1,3,0,1,2,0,46,2022_Jan_21_1115,listening_fmri,3.2.4,59.808474723349114,
1,parcelated_audio/13/13_5.ogg,,,,,,,,,0,0,0,0,0,1,1,1,0,0,0,0,,,,,,,,,0,0,0,0,0,4,4,4,,,,,,,,,,,,,,,,,,,,,,,,,,,,,,,,,,,,,,,,,,,,,,,,47.94923008399928,53.98774631199922,,,,,,,,,,,,,,,,,,,,,,,,,,,,,,,,,,,,,,,,,,,,,,,,,,,,,,,,,,,,,,,,,,,,012122,1,2,1,3,0,1,2,0,46,2022_Jan_21_1115,listening_fmri,3.2.4,59.808474723349114,
1,parcelated_audio/13/13_6.ogg,,,,,,,,,0,0,0,0,0,1,1,1,0,0,0,0,,,,,,,,,0,0,0,0,0,5,5,5,,,,,,,,,,,,,,,,,,,,,,,,,,,,,,,,,,,,,,,,,,,,,,,,53.98810715699983,58.686422850999406,,,,,,,,,,,,,,,,,,,,,,,,,,,,,,,,,,,,,,,,,,,,,,,,,,,,,,,,,,,,,,,,,,,,012122,1,2,1,3,0,1,2,0,46,2022_Jan_21_1115,listening_fmri,3.2.4,59.808474723349114,
1,parcelated_audio/13/13_7.ogg,,,,,,,,,0,0,0,0,0,1,1,1,0,0,0,0,,,,,,,,,0,0,0,0,0,6,6,6,,,,,,,,,,,,,,,,,,,,,,,,,,,,,,,,,,,,,,,,,,,,,,,,58.68678445099977,66.33781723099946,,,,,,,,,,,,,,,,,,,,,,,,,,,,,,,,,,,,,,,,,,,,,,,,,,,,,,,,,,,,,,,,,,,,012122,1,2,1,3,0,1,2,0,46,2022_Jan_21_1115,listening_fmri,3.2.4,59.808474723349114,
1,parcelated_audio/13/13_8.ogg,,,,,,,,,0,0,0,0,0,1,1,1,0,0,0,0,,,,,,,,,0,0,0,0,0,7,7,7,,,,,,,,,,,,,,,,,,,,,,,,,,,,,,,,,,,,,,,,,,,,,,,,66.3380976949993,71.64367146199947,,,,,,,,,,,,,,,,,,,,,,,,,,,,,,,,,,,,,,,,,,,,,,,,,,,,,,,,,,,,,,,,,,,,012122,1,2,1,3,0,1,2,0,46,2022_Jan_21_1115,listening_fmri,3.2.4,59.808474723349114,
1,parcelated_audio/13/13_9.ogg,,,,,,,,,0,0,0,0,0,1,1,1,0,0,0,0,,,,,,,,,0,0,0,0,0,8,8,8,,,,,,,,,,,,,,,,,,,,,,,,,,,,,,,,,,,,,,,,,,,,,,,,71.64403326999945,76.24172615099997,,,,,,,,,,,,,,,,,,,,,,,,,,,,,,,,,,,,,,,,,,,,,,,,,,,,,,,,,,,,,,,,,,,,012122,1,2,1,3,0,1,2,0,46,2022_Jan_21_1115,listening_fmri,3.2.4,59.808474723349114,
1,parcelated_audio/13/13_10.ogg,,,,,,,,,0,0,0,0,0,1,1,1,0,0,0,0,,,,,,,,,0,0,0,0,0,9,9,9,,,,,,,,,,,,,,,,,,,,,,,,,,,,,,,,,,,,,,,,,,,,,,,,76.24208331799946,82.06060536799941,,,,,,,,,,,,,,,,,,,,,,,,,,,,,,,,,,,,,,,,,,,,,,,,,,,,,,,,,,,,,,,,,,,,012122,1,2,1,3,0,1,2,0,46,2022_Jan_21_1115,listening_fmri,3.2.4,59.808474723349114,
1,parcelated_audio/13/13_11.ogg,,,,,,,,,0,0,0,0,0,1,1,1,0,0,0,0,,,,,,,,,0,0,0,0,0,10,10,10,,,,,,,,,,,,,,,,,,,,,,,,,,,,,,,,,,,,,,,,,,,,,,,,82.06095185699996,86.6723262609994,,,,,,,,,,,,,,,,,,,,,,,,,,,,,,,,,,,,,,,,,,,,,,,,,,,,,,,,,,,,,,,,,,,,012122,1,2,1,3,0,1,2,0,46,2022_Jan_21_1115,listening_fmri,3.2.4,59.808474723349114,
1,parcelated_audio/13/13_12.ogg,,,,,,,,,0,0,0,0,0,1,1,1,0,0,0,0,,,,,,,,,0,0,0,0,0,11,11,11,,,,,,,,,,,,,,,,,,,,,,,,,,,,,,,,,,,,,,,,,,,,,,,,86.67270069999995,95.1433368149992,,,,,,,,,,,,,,,,,,,,,,,,,,,,,,,,,,,,,,,,,,,,,,,,,,,,,,,,,,,,,,,,,,,,012122,1,2,1,3,0,1,2,0,46,2022_Jan_21_1115,listening_fmri,3.2.4,59.808474723349114,
1,parcelated_audio/13/13_13.ogg,,,,,,,,,0,0,0,0,0,1,1,1,0,0,0,0,,,,,,,,,0,0,0,0,0,12,12,12,,,,,,,,,,,,,,,,,,,,,,,,,,,,,,,,,,,,,,,,,,,,,,,,95.14371156699963,105.04499249899982,,,,,,,,,,,,,,,,,,,,,,,,,,,,,,,,,,,,,,,,,,,,,,,,,,,,,,,,,,,,,,,,,,,,012122,1,2,1,3,0,1,2,0,46,2022_Jan_21_1115,listening_fmri,3.2.4,59.808474723349114,
1,parcelated_audio/13/13_14.ogg,,,,,,,,,0,0,0,0,0,1,1,1,0,0,0,0,,,,,,,,,0,0,0,0,0,13,13,13,,,,,,,,,,,,,,,,,,,,,,,,,,,,,,,,,,,,,,,,,,,,,,,,105.04530312799943,113.21537665699998,,,,,,,,,,,,,,,,,,,,,,,,,,,,,,,,,,,,,,,,,,,,,,,,,,,,,,,,,,,,,,,,,,,,012122,1,2,1,3,0,1,2,0,46,2022_Jan_21_1115,listening_fmri,3.2.4,59.808474723349114,
1,parcelated_audio/13/13_15.ogg,,,,,,,,,0,0,0,0,0,1,1,1,0,0,0,0,,,,,,,,,0,0,0,0,0,14,14,14,,,,,,,,,,,,,,,,,,,,,,,,,,,,,,,,,,,,,,,,,,,,,,,,113.21573678499954,121.889750628,,,,,,,,,,,,,,,,,,,,,,,,,,,,,,,,,,,,,,,,,,,,,,,,,,,,,,,,,,,,,,,,,,,,012122,1,2,1,3,0,1,2,0,46,2022_Jan_21_1115,listening_fmri,3.2.4,59.808474723349114,
1,parcelated_audio/13/13_16.ogg,,,,,,,,,0,0,0,0,0,1,1,1,0,0,0,0,,,,,,,,,0,0,0,0,0,15,15,15,,,,,,,,,,,,,,,,,,,,,,,,,,,,,,,,,,,,,,,,,,,,,,,,121.89032167699952,124.19804111099984,,,,,,,,,,,,,,,,,,,,,,,,,,,,,,,,,,,,,,,,,,,,,,,,,,,,,,,,,,,,,,,,,,,,012122,1,2,1,3,0,1,2,0,46,2022_Jan_21_1115,listening_fmri,3.2.4,59.808474723349114,
1,parcelated_audio/13/13_17.ogg,,,,,,,,,0,0,0,0,0,1,1,1,0,0,0,0,,,,,,,,,0,0,0,0,0,16,16,16,,,,,,,,,,,,,,,,,,,,,,,,,,,,,,,,,,,,,,,,,,,,,,,,124.19932688999961,131.77795584999967,,,,,,,,,,,,,,,,,,,,,,,,,,,,,,,,,,,,,,,,,,,,,,,,,,,,,,,,,,,,,,,,,,,,012122,1,2,1,3,0,1,2,0,46,2022_Jan_21_1115,listening_fmri,3.2.4,59.808474723349114,
1,parcelated_audio/13/13_18.ogg,,,,,,,,,0,0,0,0,0,1,1,1,0,0,0,0,,,,,,,,,0,0,0,0,0,17,17,17,,,,,,,,,,,,,,,,,,,,,,,,,,,,,,,,,,,,,,,,,,,,,,,,131.7785221109998,141.97959588599952,,,,,,,,,,,,,,,,,,,,,,,,,,,,,,,,,,,,,,,,,,,,,,,,,,,,,,,,,,,,,,,,,,,,012122,1,2,1,3,0,1,2,0,46,2022_Jan_21_1115,listening_fmri,3.2.4,59.808474723349114,
1,parcelated_audio/13/13_19.ogg,,,,,,,,,0,0,0,0,0,1,1,1,0,0,0,0,,,,,,,,,0,0,0,0,0,18,18,18,,,,,,,,,,,,,,,,,,,,,,,,,,,,,,,,,,,,,,,,,,,,,,,,141.98014151999996,149.92573096199976,,,,,,,,,,,,,,,,,,,,,,,,,,,,,,,,,,,,,,,,,,,,,,,,,,,,,,,,,,,,,,,,,,,,012122,1,2,1,3,0,1,2,0,46,2022_Jan_21_1115,listening_fmri,3.2.4,59.808474723349114,
1,parcelated_audio/13/13_20.ogg,,,,,,,,,0,0,0,0,0,1,1,1,0,0,0,0,,,,,,,,,0,0,0,0,0,19,19,19,,,,,,,,,,,,,,,,,,,,,,,,,,,,,,,,,,,,,,,,,,,,,,,,149.926097433,155.09860311199918,,,,,,,,,,,,,,,,,,,,,,,,,,,,,,,,,,,,,,,,,,,,,,,,,,,,,,,,,,,,,,,,,,,,012122,1,2,1,3,0,1,2,0,46,2022_Jan_21_1115,listening_fmri,3.2.4,59.808474723349114,
1,parcelated_audio/13/13_21.ogg,,,,,,,,,0,0,0,0,0,1,1,1,0,0,0,0,,,,,,,,,0,0,0,0,0,20,20,20,,,,,,,,,,,,,,,,,,,,,,,,,,,,,,,,,,,,,,,,,,,,,,,,155.098882065,158.41362046099948,,,,,,,,,,,,,,,,,,,,,,,,,,,,,,,,,,,,,,,,,,,,,,,,,,,,,,,,,,,,,,,,,,,,012122,1,2,1,3,0,1,2,0,46,2022_Jan_21_1115,listening_fmri,3.2.4,59.808474723349114,
1,parcelated_audio/13/13_22.ogg,,,,,,,,,0,0,0,0,0,1,1,1,0,0,0,0,,,,,,,,,0,0,0,0,0,21,21,21,,,,,,,,,,,,,,,,,,,,,,,,,,,,,,,,,,,,,,,,,,,,,,,,158.41397595599938,161.82162863599933,,,,,,,,,,,,,,,,,,,,,,,,,,,,,,,,,,,,,,,,,,,,,,,,,,,,,,,,,,,,,,,,,,,,012122,1,2,1,3,0,1,2,0,46,2022_Jan_21_1115,listening_fmri,3.2.4,59.808474723349114,
1,parcelated_audio/13/13_23.ogg,,,,,,,,,0,0,0,0,0,1,1,1,0,0,0,0,,,,,,,,,0,0,0,0,0,22,22,22,,,,,,,,,,,,,,,,,,,,,,,,,,,,,,,,,,,,,,,,,,,,,,,,161.8221727229993,167.07762470799935,,,,,,,,,,,,,,,,,,,,,,,,,,,,,,,,,,,,,,,,,,,,,,,,,,,,,,,,,,,,,,,,,,,,012122,1,2,1,3,0,1,2,0,46,2022_Jan_21_1115,listening_fmri,3.2.4,59.808474723349114,
1,parcelated_audio/13/13_24.ogg,,,,,,,,,0,0,0,0,0,1,1,1,0,0,0,0,,,,,,,,,0,0,0,0,0,23,23,23,,,,,,,,,,,,,,,,,,,,,,,,,,,,,,,,,,,,,,,,,,,,,,,,167.07822828199915,176.80360929199924,,,,,,,,,,,,,,,,,,,,,,,,,,,,,,,,,,,,,,,,,,,,,,,,,,,,,,,,,,,,,,,,,,,,012122,1,2,1,3,0,1,2,0,46,2022_Jan_21_1115,listening_fmri,3.2.4,59.808474723349114,
1,parcelated_audio/13/13_25.ogg,,,,,,,,,0,0,0,0,0,1,1,1,0,0,0,0,,,,,,,,,0,0,0,0,0,24,24,24,,,,,,,,,,,,,,,,,,,,,,,,,,,,,,,,,,,,,,,,,,,,,,,,176.80396935499994,184.0825698939998,,,,,,,,,,,,,,,,,,,,,,,,,,,,,,,,,,,,,,,,,,,,,,,,,,,,,,,,,,,,,,,,,,,,012122,1,2,1,3,0,1,2,0,46,2022_Jan_21_1115,listening_fmri,3.2.4,59.808474723349114,
1,parcelated_audio/13/13_26.ogg,,,,,,,,,0,0,0,0,0,1,1,1,0,0,0,0,,,,,,,,,0,0,0,0,0,25,25,25,,,,,,,,,,,,,,,,,,,,,,,,,,,,,,,,,,,,,,,,,,,,,,,,184.08291214699966,190.2664619569996,,,,,,,,,,,,,,,,,,,,,,,,,,,,,,,,,,,,,,,,,,,,,,,,,,,,,,,,,,,,,,,,,,,,012122,1,2,1,3,0,1,2,0,46,2022_Jan_21_1115,listening_fmri,3.2.4,59.808474723349114,
1,parcelated_audio/13/13_27.ogg,,,,,,,,,0,0,0,0,0,1,1,1,0,0,0,0,,,,,,,,,0,0,0,0,0,26,26,26,,,,,,,,,,,,,,,,,,,,,,,,,,,,,,,,,,,,,,,,,,,,,,,,190.26679398799934,195.51141506299973,,,,,,,,,,,,,,,,,,,,,,,,,,,,,,,,,,,,,,,,,,,,,,,,,,,,,,,,,,,,,,,,,,,,012122,1,2,1,3,0,1,2,0,46,2022_Jan_21_1115,listening_fmri,3.2.4,59.808474723349114,
1,parcelated_audio/13/13_28.ogg,,,,,,,,,0,0,0,0,0,1,1,1,0,0,0,0,,,,,,,,,0,0,0,0,0,27,27,27,,,,,,,,,,,,,,,,,,,,,,,,,,,,,,,,,,,,,,,,,,,,,,,,195.5117733749994,200.9434139189998,,,,,,,,,,,,,,,,,,,,,,,,,,,,,,,,,,,,,,,,,,,,,,,,,,,,,,,,,,,,,,,,,,,,012122,1,2,1,3,0,1,2,0,46,2022_Jan_21_1115,listening_fmri,3.2.4,59.808474723349114,
1,parcelated_audio/13/13_29.ogg,,,,,,,,,0,0,0,0,0,1,1,1,0,0,0,0,,,,,,,,,0,0,0,0,0,28,28,28,,,,,,,,,,,,,,,,,,,,,,,,,,,,,,,,,,,,,,,,,,,,,,,,200.94377205199999,204.2338766849998,,,,,,,,,,,,,,,,,,,,,,,,,,,,,,,,,,,,,,,,,,,,,,,,,,,,,,,,,,,,,,,,,,,,012122,1,2,1,3,0,1,2,0,46,2022_Jan_21_1115,listening_fmri,3.2.4,59.808474723349114,
1,parcelated_audio/13/13_30.ogg,,,,,,,,,0,0,0,0,0,1,1,1,0,0,0,0,,,,,,,,,0,0,0,0,0,29,29,29,,,,,,,,,,,,,,,,,,,,,,,,,,,,,,,,,,,,,,,,,,,,,,,,204.23423104199992,207.70050955699935,,,,,,,,,,,,,,,,,,,,,,,,,,,,,,,,,,,,,,,,,,,,,,,,,,,,,,,,,,,,,,,,,,,,012122,1,2,1,3,0,1,2,0,46,2022_Jan_21_1115,listening_fmri,3.2.4,59.808474723349114,
1,parcelated_audio/13/13_31.ogg,,,,,,,,,0,0,0,0,0,1,1,1,0,0,0,0,,,,,,,,,0,0,0,0,0,30,30,30,,,,,,,,,,,,,,,,,,,,,,,,,,,,,,,,,,,,,,,,,,,,,,,,207.70086974399965,213.65249625999968,,,,,,,,,,,,,,,,,,,,,,,,,,,,,,,,,,,,,,,,,,,,,,,,,,,,,,,,,,,,,,,,,,,,012122,1,2,1,3,0,1,2,0,46,2022_Jan_21_1115,listening_fmri,3.2.4,59.808474723349114,
1,,,,,,,,,,0,0,0,0,0,1,1,1,0,0,0,0,,,,,,,,,0,0,0,0,,,,,,,,,,,,,,,,,,,,,,,,,,,,,,,,,,,,,,,,,,,,,,,,,,,,,,,,,,,,,,,,,,,,,,,,,,,,,,,,,,,,,,,,,,,,,,,,,,,,,,,,,,,,,,,,,,,,,,,,,012122,1,2,1,3,0,1,2,0,46,2022_Jan_21_1115,listening_fmri,3.2.4,59.808474723349114,
1,,,,,,,,,,0,0,0,0,0,1,1,1,0,0,0,0,,,,,,,,,,,,,,,,,,,,,,,,,,,,,,,,,,,,,,,,,,213.65300371099966,219.65015057899927,264.8318575840003,None,,,,,,,,,,,,,,,,,,,,,270.8351664319998,None,270.8351664319998,None,,,,,,,,,,,,,,,,,,,,,,,,,,,,,,,,,,,,,,,,,,,,,,,,,,,,,,,,,,,,,,,,012122,1,2,1,3,0,1,2,0,46,2022_Jan_21_1115,listening_fmri,3.2.4,59.808474723349114,
1,,,,,,,,,,0,0,0,0,0,1,1,1,,,,,,,,,,,,,,,,,,,,,,,,,,,,,,,,,,,,,,,,,,,,,,,,,,,,,,,,,,,,,,,,,,,,,,,,,,,,,,,,,,,,,,,,,,,,,,,,,,,,,,,,,,,,,,,,,,,,,,,,,,,,,,,,,,,,,,,,,012122,1,2,1,3,0,1,2,0,46,2022_Jan_21_1115,listening_fmri,3.2.4,59.808474723349114,
2,,,,,,,,,,0,0,0,0,0,2,2,2,0,0,0,0,0,0,0,0,,,,,,,,,,,,,,,,,0,0,0,0,,,,,,,,,,,,,,,,,,,,,,271.8343548310004,None,271.8343548310004,None,2,0.8078127049993782,271.8343548310004,None,271.8343548310004,None,,,,,,,,,,,,,,,272.66821912400064,None,3,1.0360750609997922,272.66821912400064,None,272.66821912400064,None,273.7649342730001,None,273.7649342730001,None,273.7649342730001,None,2,1.2852565050006888,273.7649342730001,None,275.0679074870004,None,3,1.3462223699998503,275.0679074870004,None,275.0679074870004,None,276.5146183450006,None,276.5146183450006,None,276.5146183450006,None,276.5146183450006,None,276.5146183450006,None,276.5146183450006,None,276.5146183450006,None,None,276.5146183450006,None,,,,,,,,,,,,,,,,,,,,,012122,1,2,1,3,0,1,2,0,46,2022_Jan_21_1115,listening_fmri,3.2.4,59.808474723349114,
2,,,,,,,,,,0,0,0,0,0,2,2,2,0,0,0,0,0,0,0,0,,,,,,,,,,,,,,,,,,,,,,,,,,,,,,,,,,,,,,,,,,,,,,,,,,,,,,,,,,,,,,,,,,,,,,,,,,,,,,,,,,,,,,,,,,,,,,,,,,,,,,,,,,,,,294.70192020600007,None,2,1.4802444289998675,294.70192020600007,None,294.70192020600007,None,296.21429089699996,None,296.21429089699996,None,296.21429089699996,None,7,1.0958617679998497,296.21429089699996,None,,,012122,1,2,1,3,0,1,2,0,46,2022_Jan_21_1115,listening_fmri,3.2.4,59.808474723349114,
2,parcelated_audio/31/31_1.ogg,,,,,,,,,0,0,0,0,0,2,2,2,0,0,0,0,,,,,,,,,0,0,0,0,0,0,0,0,,,,,,,,,,,,,,,,,,,,,,,,,,,,,,,,,,,,,,,,297.3356036519999,None,7,1.3206877410002562,297.3356036519999,None,247.5369701519994,250.54548861199964,250.5507932599994,259.2312758709995,,,,,,,,,,,,,,,,,,,,,,,,,,,,,,,,,,,,,,,,,,,,,,,,,,,,,,,,,,,,,,,,,,,,012122,1,2,1,3,0,1,2,0,46,2022_Jan_21_1115,listening_fmri,3.2.4,59.808474723349114,
2,parcelated_audio/31/31_2.ogg,,,,,,,,,0,0,0,0,0,2,2,2,0,0,0,0,,,,,,,,,0,0,0,0,0,1,1,1,,,,,,,,,,,,,,,,,,,,,,,,,,,,,,,,,,,,,,,,,,,,,,,,259.23199681799997,263.68968876299914,,,,,,,,,,,,,,,,,,,,,,,,,,,,,,,,,,,,,,,,,,,,,,,,,,,,,,,,,,,,,,,,,,,,012122,1,2,1,3,0,1,2,0,46,2022_Jan_21_1115,listening_fmri,3.2.4,59.808474723349114,
2,parcelated_audio/31/31_3.ogg,,,,,,,,,0,0,0,0,0,2,2,2,0,0,0,0,,,,,,,,,0,0,0,0,0,2,2,2,,,,,,,,,,,,,,,,,,,,,,,,,,,,,,,,,,,,,,,,,,,,,,,,263.69029426999987,271.97774221299915,,,,,,,,,,,,,,,,,,,,,,,,,,,,,,,,,,,,,,,,,,,,,,,,,,,,,,,,,,,,,,,,,,,,012122,1,2,1,3,0,1,2,0,46,2022_Jan_21_1115,listening_fmri,3.2.4,59.808474723349114,
2,parcelated_audio/31/31_4.ogg,,,,,,,,,0,0,0,0,0,2,2,2,0,0,0,0,,,,,,,,,0,0,0,0,0,3,3,3,,,,,,,,,,,,,,,,,,,,,,,,,,,,,,,,,,,,,,,,,,,,,,,,271.97861204499986,282.0577447119995,,,,,,,,,,,,,,,,,,,,,,,,,,,,,,,,,,,,,,,,,,,,,,,,,,,,,,,,,,,,,,,,,,,,012122,1,2,1,3,0,1,2,0,46,2022_Jan_21_1115,listening_fmri,3.2.4,59.808474723349114,
2,parcelated_audio/31/31_5.ogg,,,,,,,,,0,0,0,0,0,2,2,2,0,0,0,0,,,,,,,,,0,0,0,0,0,4,4,4,,,,,,,,,,,,,,,,,,,,,,,,,,,,,,,,,,,,,,,,,,,,,,,,282.0581132289999,293.16992446599943,,,,,,,,,,,,,,,,,,,,,,,,,,,,,,,,,,,,,,,,,,,,,,,,,,,,,,,,,,,,,,,,,,,,012122,1,2,1,3,0,1,2,0,46,2022_Jan_21_1115,listening_fmri,3.2.4,59.808474723349114,
2,parcelated_audio/31/31_6.ogg,,,,,,,,,0,0,0,0,0,2,2,2,0,0,0,0,,,,,,,,,0,0,0,0,0,5,5,5,,,,,,,,,,,,,,,,,,,,,,,,,,,,,,,,,,,,,,,,,,,,,,,,293.1707766219997,298.48734742099987,,,,,,,,,,,,,,,,,,,,,,,,,,,,,,,,,,,,,,,,,,,,,,,,,,,,,,,,,,,,,,,,,,,,012122,1,2,1,3,0,1,2,0,46,2022_Jan_21_1115,listening_fmri,3.2.4,59.808474723349114,
2,parcelated_audio/31/31_7.ogg,,,,,,,,,0,0,0,0,0,2,2,2,0,0,0,0,,,,,,,,,0,0,0,0,0,6,6,6,,,,,,,,,,,,,,,,,,,,,,,,,,,,,,,,,,,,,,,,,,,,,,,,298.4877018719999,303.32663183599925,,,,,,,,,,,,,,,,,,,,,,,,,,,,,,,,,,,,,,,,,,,,,,,,,,,,,,,,,,,,,,,,,,,,012122,1,2,1,3,0,1,2,0,46,2022_Jan_21_1115,listening_fmri,3.2.4,59.808474723349114,
2,parcelated_audio/31/31_8.ogg,,,,,,,,,0,0,0,0,0,2,2,2,0,0,0,0,,,,,,,,,0,0,0,0,0,7,7,7,,,,,,,,,,,,,,,,,,,,,,,,,,,,,,,,,,,,,,,,,,,,,,,,303.32706429799964,311.7646931909994,,,,,,,,,,,,,,,,,,,,,,,,,,,,,,,,,,,,,,,,,,,,,,,,,,,,,,,,,,,,,,,,,,,,012122,1,2,1,3,0,1,2,0,46,2022_Jan_21_1115,listening_fmri,3.2.4,59.808474723349114,
2,parcelated_audio/31/31_9.ogg,,,,,,,,,0,0,0,0,0,2,2,2,0,0,0,0,,,,,,,,,0,0,0,0,0,8,8,8,,,,,,,,,,,,,,,,,,,,,,,,,,,,,,,,,,,,,,,,,,,,,,,,311.76512320299935,316.84428026799924,,,,,,,,,,,,,,,,,,,,,,,,,,,,,,,,,,,,,,,,,,,,,,,,,,,,,,,,,,,,,,,,,,,,012122,1,2,1,3,0,1,2,0,46,2022_Jan_21_1115,listening_fmri,3.2.4,59.808474723349114,
2,parcelated_audio/31/31_10.ogg,,,,,,,,,0,0,0,0,0,2,2,2,0,0,0,0,,,,,,,,,0,0,0,0,0,9,9,9,,,,,,,,,,,,,,,,,,,,,,,,,,,,,,,,,,,,,,,,,,,,,,,,316.8446379069992,322.36459743199975,,,,,,,,,,,,,,,,,,,,,,,,,,,,,,,,,,,,,,,,,,,,,,,,,,,,,,,,,,,,,,,,,,,,012122,1,2,1,3,0,1,2,0,46,2022_Jan_21_1115,listening_fmri,3.2.4,59.808474723349114,
2,parcelated_audio/31/31_11.ogg,,,,,,,,,0,0,0,0,0,2,2,2,0,0,0,0,,,,,,,,,0,0,0,0,0,10,10,10,,,,,,,,,,,,,,,,,,,,,,,,,,,,,,,,,,,,,,,,,,,,,,,,322.36776433699924,332.58321056799923,,,,,,,,,,,,,,,,,,,,,,,,,,,,,,,,,,,,,,,,,,,,,,,,,,,,,,,,,,,,,,,,,,,,012122,1,2,1,3,0,1,2,0,46,2022_Jan_21_1115,listening_fmri,3.2.4,59.808474723349114,
2,parcelated_audio/31/31_12.ogg,,,,,,,,,0,0,0,0,0,2,2,2,0,0,0,0,,,,,,,,,0,0,0,0,0,11,11,11,,,,,,,,,,,,,,,,,,,,,,,,,,,,,,,,,,,,,,,,,,,,,,,,332.5835857719994,337.36168165099934,,,,,,,,,,,,,,,,,,,,,,,,,,,,,,,,,,,,,,,,,,,,,,,,,,,,,,,,,,,,,,,,,,,,012122,1,2,1,3,0,1,2,0,46,2022_Jan_21_1115,listening_fmri,3.2.4,59.808474723349114,
2,parcelated_audio/31/31_13.ogg,,,,,,,,,0,0,0,0,0,2,2,2,0,0,0,0,,,,,,,,,0,0,0,0,0,12,12,12,,,,,,,,,,,,,,,,,,,,,,,,,,,,,,,,,,,,,,,,,,,,,,,,337.36203802699947,344.6805083039999,,,,,,,,,,,,,,,,,,,,,,,,,,,,,,,,,,,,,,,,,,,,,,,,,,,,,,,,,,,,,,,,,,,,012122,1,2,1,3,0,1,2,0,46,2022_Jan_21_1115,listening_fmri,3.2.4,59.808474723349114,
2,parcelated_audio/31/31_14.ogg,,,,,,,,,0,0,0,0,0,2,2,2,0,0,0,0,,,,,,,,,0,0,0,0,0,13,13,13,,,,,,,,,,,,,,,,,,,,,,,,,,,,,,,,,,,,,,,,,,,,,,,,344.6808625249996,350.8071968059994,,,,,,,,,,,,,,,,,,,,,,,,,,,,,,,,,,,,,,,,,,,,,,,,,,,,,,,,,,,,,,,,,,,,012122,1,2,1,3,0,1,2,0,46,2022_Jan_21_1115,listening_fmri,3.2.4,59.808474723349114,
2,parcelated_audio/31/31_15.ogg,,,,,,,,,0,0,0,0,0,2,2,2,0,0,0,0,,,,,,,,,0,0,0,0,0,14,14,14,,,,,,,,,,,,,,,,,,,,,,,,,,,,,,,,,,,,,,,,,,,,,,,,350.8076910559994,357.5951879889999,,,,,,,,,,,,,,,,,,,,,,,,,,,,,,,,,,,,,,,,,,,,,,,,,,,,,,,,,,,,,,,,,,,,012122,1,2,1,3,0,1,2,0,46,2022_Jan_21_1115,listening_fmri,3.2.4,59.808474723349114,
2,parcelated_audio/31/31_16.ogg,,,,,,,,,0,0,0,0,0,2,2,2,0,0,0,0,,,,,,,,,0,0,0,0,0,15,15,15,,,,,,,,,,,,,,,,,,,,,,,,,,,,,,,,,,,,,,,,,,,,,,,,357.5955434259995,364.01775193999947,,,,,,,,,,,,,,,,,,,,,,,,,,,,,,,,,,,,,,,,,,,,,,,,,,,,,,,,,,,,,,,,,,,,012122,1,2,1,3,0,1,2,0,46,2022_Jan_21_1115,listening_fmri,3.2.4,59.808474723349114,
2,parcelated_audio/31/31_17.ogg,,,,,,,,,0,0,0,0,0,2,2,2,0,0,0,0,,,,,,,,,0,0,0,0,0,16,16,16,,,,,,,,,,,,,,,,,,,,,,,,,,,,,,,,,,,,,,,,,,,,,,,,364.01804624799934,367.4492180699999,,,,,,,,,,,,,,,,,,,,,,,,,,,,,,,,,,,,,,,,,,,,,,,,,,,,,,,,,,,,,,,,,,,,012122,1,2,1,3,0,1,2,0,46,2022_Jan_21_1115,listening_fmri,3.2.4,59.808474723349114,
2,parcelated_audio/31/31_18.ogg,,,,,,,,,0,0,0,0,0,2,2,2,0,0,0,0,,,,,,,,,0,0,0,0,0,17,17,17,,,,,,,,,,,,,,,,,,,,,,,,,,,,,,,,,,,,,,,,,,,,,,,,367.4495942219992,372.16908512199916,,,,,,,,,,,,,,,,,,,,,,,,,,,,,,,,,,,,,,,,,,,,,,,,,,,,,,,,,,,,,,,,,,,,012122,1,2,1,3,0,1,2,0,46,2022_Jan_21_1115,listening_fmri,3.2.4,59.808474723349114,
2,parcelated_audio/31/31_19.ogg,,,,,,,,,0,0,0,0,0,2,2,2,0,0,0,0,,,,,,,,,0,0,0,0,0,18,18,18,,,,,,,,,,,,,,,,,,,,,,,,,,,,,,,,,,,,,,,,,,,,,,,,372.1694451199992,380.3755397729992,,,,,,,,,,,,,,,,,,,,,,,,,,,,,,,,,,,,,,,,,,,,,,,,,,,,,,,,,,,,,,,,,,,,012122,1,2,1,3,0,1,2,0,46,2022_Jan_21_1115,listening_fmri,3.2.4,59.808474723349114,
2,parcelated_audio/31/31_20.ogg,,,,,,,,,0,0,0,0,0,2,2,2,0,0,0,0,,,,,,,,,0,0,0,0,0,19,19,19,,,,,,,,,,,,,,,,,,,,,,,,,,,,,,,,,,,,,,,,,,,,,,,,380.37596664299963,398.2071767159996,,,,,,,,,,,,,,,,,,,,,,,,,,,,,,,,,,,,,,,,,,,,,,,,,,,,,,,,,,,,,,,,,,,,012122,1,2,1,3,0,1,2,0,46,2022_Jan_21_1115,listening_fmri,3.2.4,59.808474723349114,
2,parcelated_audio/31/31_21.ogg,,,,,,,,,0,0,0,0,0,2,2,2,0,0,0,0,,,,,,,,,0,0,0,0,0,20,20,20,,,,,,,,,,,,,,,,,,,,,,,,,,,,,,,,,,,,,,,,,,,,,,,,398.20755444599945,408.45803929999965,,,,,,,,,,,,,,,,,,,,,,,,,,,,,,,,,,,,,,,,,,,,,,,,,,,,,,,,,,,,,,,,,,,,012122,1,2,1,3,0,1,2,0,46,2022_Jan_21_1115,listening_fmri,3.2.4,59.808474723349114,
2,parcelated_audio/31/31_22.ogg,,,,,,,,,0,0,0,0,0,2,2,2,0,0,0,0,,,,,,,,,0,0,0,0,0,21,21,21,,,,,,,,,,,,,,,,,,,,,,,,,,,,,,,,,,,,,,,,,,,,,,,,408.45841385699987,414.1992418709997,,,,,,,,,,,,,,,,,,,,,,,,,,,,,,,,,,,,,,,,,,,,,,,,,,,,,,,,,,,,,,,,,,,,012122,1,2,1,3,0,1,2,0,46,2022_Jan_21_1115,listening_fmri,3.2.4,59.808474723349114,
2,parcelated_audio/31/31_23.ogg,,,,,,,,,0,0,0,0,0,2,2,2,0,0,0,0,,,,,,,,,0,0,0,0,0,22,22,22,,,,,,,,,,,,,,,,,,,,,,,,,,,,,,,,,,,,,,,,,,,,,,,,414.1995991369995,418.8071888689992,,,,,,,,,,,,,,,,,,,,,,,,,,,,,,,,,,,,,,,,,,,,,,,,,,,,,,,,,,,,,,,,,,,,012122,1,2,1,3,0,1,2,0,46,2022_Jan_21_1115,listening_fmri,3.2.4,59.808474723349114,
2,parcelated_audio/31/31_24.ogg,,,,,,,,,0,0,0,0,0,2,2,2,0,0,0,0,,,,,,,,,0,0,0,0,0,23,23,23,,,,,,,,,,,,,,,,,,,,,,,,,,,,,,,,,,,,,,,,,,,,,,,,418.807579194,425.68151167199994,,,,,,,,,,,,,,,,,,,,,,,,,,,,,,,,,,,,,,,,,,,,,,,,,,,,,,,,,,,,,,,,,,,,012122,1,2,1,3,0,1,2,0,46,2022_Jan_21_1115,listening_fmri,3.2.4,59.808474723349114,
2,parcelated_audio/31/31_25.ogg,,,,,,,,,0,0,0,0,0,2,2,2,0,0,0,0,,,,,,,,,0,0,0,0,0,24,24,24,,,,,,,,,,,,,,,,,,,,,,,,,,,,,,,,,,,,,,,,,,,,,,,,425.6819743249998,437.68492257399976,,,,,,,,,,,,,,,,,,,,,,,,,,,,,,,,,,,,,,,,,,,,,,,,,,,,,,,,,,,,,,,,,,,,012122,1,2,1,3,0,1,2,0,46,2022_Jan_21_1115,listening_fmri,3.2.4,59.808474723349114,
2,parcelated_audio/31/31_26.ogg,,,,,,,,,0,0,0,0,0,2,2,2,0,0,0,0,,,,,,,,,0,0,0,0,0,25,25,25,,,,,,,,,,,,,,,,,,,,,,,,,,,,,,,,,,,,,,,,,,,,,,,,437.68526951399963,445.20737164599996,,,,,,,,,,,,,,,,,,,,,,,,,,,,,,,,,,,,,,,,,,,,,,,,,,,,,,,,,,,,,,,,,,,,012122,1,2,1,3,0,1,2,0,46,2022_Jan_21_1115,listening_fmri,3.2.4,59.808474723349114,
2,parcelated_audio/31/31_27.ogg,,,,,,,,,0,0,0,0,0,2,2,2,0,0,0,0,,,,,,,,,0,0,0,0,0,26,26,26,,,,,,,,,,,,,,,,,,,,,,,,,,,,,,,,,,,,,,,,,,,,,,,,445.2078415039996,449.6073064919992,,,,,,,,,,,,,,,,,,,,,,,,,,,,,,,,,,,,,,,,,,,,,,,,,,,,,,,,,,,,,,,,,,,,012122,1,2,1,3,0,1,2,0,46,2022_Jan_21_1115,listening_fmri,3.2.4,59.808474723349114,
2,parcelated_audio/31/31_28.ogg,,,,,,,,,0,0,0,0,0,2,2,2,0,0,0,0,,,,,,,,,0,0,0,0,0,27,27,27,,,,,,,,,,,,,,,,,,,,,,,,,,,,,,,,,,,,,,,,,,,,,,,,449.60766529399916,454.61218132499926,,,,,,,,,,,,,,,,,,,,,,,,,,,,,,,,,,,,,,,,,,,,,,,,,,,,,,,,,,,,,,,,,,,,012122,1,2,1,3,0,1,2,0,46,2022_Jan_21_1115,listening_fmri,3.2.4,59.808474723349114,
2,parcelated_audio/31/31_29.ogg,,,,,,,,,0,0,0,0,0,2,2,2,0,0,0,0,,,,,,,,,0,0,0,0,0,28,28,28,,,,,,,,,,,,,,,,,,,,,,,,,,,,,,,,,,,,,,,,,,,,,,,,454.6125416749992,458.9618216789995,,,,,,,,,,,,,,,,,,,,,,,,,,,,,,,,,,,,,,,,,,,,,,,,,,,,,,,,,,,,,,,,,,,,012122,1,2,1,3,0,1,2,0,46,2022_Jan_21_1115,listening_fmri,3.2.4,59.808474723349114,
2,parcelated_audio/31/31_30.ogg,,,,,,,,,0,0,0,0,0,2,2,2,0,0,0,0,,,,,,,,,0,0,0,0,0,29,29,29,,,,,,,,,,,,,,,,,,,,,,,,,,,,,,,,,,,,,,,,,,,,,,,,458.96218506199966,462.72968983199917,,,,,,,,,,,,,,,,,,,,,,,,,,,,,,,,,,,,,,,,,,,,,,,,,,,,,,,,,,,,,,,,,,,,012122,1,2,1,3,0,1,2,0,46,2022_Jan_21_1115,listening_fmri,3.2.4,59.808474723349114,
2,parcelated_audio/31/31_31.ogg,,,,,,,,,0,0,0,0,0,2,2,2,0,0,0,0,,,,,,,,,0,0,0,0,0,30,30,30,,,,,,,,,,,,,,,,,,,,,,,,,,,,,,,,,,,,,,,,,,,,,,,,462.7301521019999,468.6897875509994,,,,,,,,,,,,,,,,,,,,,,,,,,,,,,,,,,,,,,,,,,,,,,,,,,,,,,,,,,,,,,,,,,,,012122,1,2,1,3,0,1,2,0,46,2022_Jan_21_1115,listening_fmri,3.2.4,59.808474723349114,
2,parcelated_audio/31/31_32.ogg,,,,,,,,,0,0,0,0,0,2,2,2,0,0,0,0,,,,,,,,,0,0,0,0,0,31,31,31,,,,,,,,,,,,,,,,,,,,,,,,,,,,,,,,,,,,,,,,,,,,,,,,468.69040365399997,478.6616786029999,,,,,,,,,,,,,,,,,,,,,,,,,,,,,,,,,,,,,,,,,,,,,,,,,,,,,,,,,,,,,,,,,,,,012122,1,2,1,3,0,1,2,0,46,2022_Jan_21_1115,listening_fmri,3.2.4,59.808474723349114,
2,parcelated_audio/31/31_33.ogg,,,,,,,,,0,0,0,0,0,2,2,2,0,0,0,0,,,,,,,,,0,0,0,0,0,32,32,32,,,,,,,,,,,,,,,,,,,,,,,,,,,,,,,,,,,,,,,,,,,,,,,,478.66203586199936,487.03074166199985,,,,,,,,,,,,,,,,,,,,,,,,,,,,,,,,,,,,,,,,,,,,,,,,,,,,,,,,,,,,,,,,,,,,012122,1,2,1,3,0,1,2,0,46,2022_Jan_21_1115,listening_fmri,3.2.4,59.808474723349114,
2,parcelated_audio/31/31_34.ogg,,,,,,,,,0,0,0,0,0,2,2,2,0,0,0,0,,,,,,,,,0,0,0,0,0,33,33,33,,,,,,,,,,,,,,,,,,,,,,,,,,,,,,,,,,,,,,,,,,,,,,,,487.0311208789999,491.413610736,,,,,,,,,,,,,,,,,,,,,,,,,,,,,,,,,,,,,,,,,,,,,,,,,,,,,,,,,,,,,,,,,,,,012122,1,2,1,3,0,1,2,0,46,2022_Jan_21_1115,listening_fmri,3.2.4,59.808474723349114,
2,parcelated_audio/31/31_35.ogg,,,,,,,,,0,0,0,0,0,2,2,2,0,0,0,0,,,,,,,,,0,0,0,0,0,34,34,34,,,,,,,,,,,,,,,,,,,,,,,,,,,,,,,,,,,,,,,,,,,,,,,,491.41421064099995,497.17078761799985,,,,,,,,,,,,,,,,,,,,,,,,,,,,,,,,,,,,,,,,,,,,,,,,,,,,,,,,,,,,,,,,,,,,012122,1,2,1,3,0,1,2,0,46,2022_Jan_21_1115,listening_fmri,3.2.4,59.808474723349114,
2,parcelated_audio/31/31_36.ogg,,,,,,,,,0,0,0,0,0,2,2,2,0,0,0,0,,,,,,,,,0,0,0,0,0,35,35,35,,,,,,,,,,,,,,,,,,,,,,,,,,,,,,,,,,,,,,,,,,,,,,,,497.17106950799916,503.4795556699992,,,,,,,,,,,,,,,,,,,,,,,,,,,,,,,,,,,,,,,,,,,,,,,,,,,,,,,,,,,,,,,,,,,,012122,1,2,1,3,0,1,2,0,46,2022_Jan_21_1115,listening_fmri,3.2.4,59.808474723349114,
2,,,,,,,,,,0,0,0,0,0,2,2,2,0,0,0,0,,,,,,,,,0,0,0,0,,,,,,,,,,,,,,,,,,,,,,,,,,,,,,,,,,,,,,,,,,,,,,,,,,,,,,,,,,,,,,,,,,,,,,,,,,,,,,,,,,,,,,,,,,,,,,,,,,,,,,,,,,,,,,,,,,,,,,,,,012122,1,2,1,3,0,1,2,0,46,2022_Jan_21_1115,listening_fmri,3.2.4,59.808474723349114,
2,,,,,,,,,,0,0,0,0,0,2,2,2,0,0,0,0,,,,,,,,,,,,,,,,,,,,,,,,,,,,,,,,,,,,,,,,,,503.48002436499974,509.48399866899945,554.6606536590007,None,,,,,,,,,,,,,,,,,,,,,560.6689407049998,None,560.6689407049998,None,,,,,,,,,,,,,,,,,,,,,,,,,,,,,,,,,,,,,,,,,,,,,,,,,,,,,,,,,,,,,,,,012122,1,2,1,3,0,1,2,0,46,2022_Jan_21_1115,listening_fmri,3.2.4,59.808474723349114,
2,,,,,,,,,,0,0,0,0,0,2,2,2,,,,,,,,,,,,,,,,,,,,,,,,,,,,,,,,,,,,,,,,,,,,,,,,,,,,,,,,,,,,,,,,,,,,,,,,,,,,,,,,,,,,,,,,,,,,,,,,,,,,,,,,,,,,,,,,,,,,,,,,,,,,,,,,,,,,,,,,,012122,1,2,1,3,0,1,2,0,46,2022_Jan_21_1115,listening_fmri,3.2.4,59.808474723349114,
3,,,,,,,,,,0,0,0,0,0,3,3,3,,,,,,,,,,,,,,,,,,,,,,,,,,,,,,,,,,,,,,,,,,,,,,,,,,,,,,,,,,,,,,,,,,,,,,,,,,,,,,,,,,,,,,,,,,,,,,,,,,,,,,,,,,,,,,,,,,,,,,,,,,,,,,,,,,,,,,,,,012122,1,2,1,3,0,1,2,0,46,2022_Jan_21_1115,listening_fmri,3.2.4,59.808474723349114,
4,,,,,,,,,,0,0,0,0,0,4,4,4,0,0,0,0,0,0,0,0,,,,,,,,,,,,,,,,,0,0,0,0,,,,,,,,,,,,,,,,,,,,,,561.6770156250004,None,561.6770156250004,None,7,0.7492831259996819,561.6770156250004,None,561.6770156250004,None,,,,,,,,,,,,,,,562.4527100149999,None,8,0.8775772219996725,562.4527100149999,None,562.4527100149999,None,563.3689681360001,None,563.3689681360001,None,563.3689681360001,None,6,1.0033377150002707,563.3689681360001,None,564.4019041420006,None,7,1.659202928999548,564.4019041420006,None,564.4019041420006,None,566.1445968710004,None,566.1445968710004,None,566.1445968710004,None,566.1445968710004,None,566.1445968710004,None,566.1445968710004,None,566.1445968710004,None,None,566.1445968710004,None,,,,,,,,,,,,,,,,,,,,,012122,1,2,1,3,0,1,2,0,46,2022_Jan_21_1115,listening_fmri,3.2.4,59.808474723349114,
4,,,,,,,,,,0,0,0,0,0,4,4,4,0,0,0,0,0,0,0,0,,,,,,,,,,,,,,,,,,,,,,,,,,,,,,,,,,,,,,,,,,,,,,,,,,,,,,,,,,,,,,,,,,,,,,,,,,,,,,,,,,,,,,,,,,,,,,,,,,,,,,,,,,,,,582.3016007720007,None,2,1.5845721650002815,582.3016007720007,None,582.3016007720007,None,583.9275879430006,None,583.9275879430006,None,583.9275879430006,None,2,1.071680195999761,583.9275879430006,None,,,012122,1,2,1,3,0,1,2,0,46,2022_Jan_21_1115,listening_fmri,3.2.4,59.808474723349114,
4,parcelated_audio/33/33_1.ogg,,,,,,,,,0,0,0,0,0,4,4,4,0,0,0,0,,,,,,,,,0,0,0,0,0,0,0,0,,,,,,,,,,,,,,,,,,,,,,,,,,,,,,,,,,,,,,,,585.0193876769999,None,2,2.818756069000301,585.0193876769999,None,536.6905116579992,539.7006663189995,539.7132849399995,549.6661096979997,,,,,,,,,,,,,,,,,,,,,,,,,,,,,,,,,,,,,,,,,,,,,,,,,,,,,,,,,,,,,,,,,,,,012122,1,2,1,3,0,1,2,0,46,2022_Jan_21_1115,listening_fmri,3.2.4,59.808474723349114,
4,parcelated_audio/33/33_2.ogg,,,,,,,,,0,0,0,0,0,4,4,4,0,0,0,0,,,,,,,,,0,0,0,0,0,1,1,1,,,,,,,,,,,,,,,,,,,,,,,,,,,,,,,,,,,,,,,,,,,,,,,,549.6668631059993,560.0979603459991,,,,,,,,,,,,,,,,,,,,,,,,,,,,,,,,,,,,,,,,,,,,,,,,,,,,,,,,,,,,,,,,,,,,012122,1,2,1,3,0,1,2,0,46,2022_Jan_21_1115,listening_fmri,3.2.4,59.808474723349114,
4,parcelated_audio/33/33_3.ogg,,,,,,,,,0,0,0,0,0,4,4,4,0,0,0,0,,,,,,,,,0,0,0,0,0,2,2,2,,,,,,,,,,,,,,,,,,,,,,,,,,,,,,,,,,,,,,,,,,,,,,,,560.0983840149993,566.6385907649992,,,,,,,,,,,,,,,,,,,,,,,,,,,,,,,,,,,,,,,,,,,,,,,,,,,,,,,,,,,,,,,,,,,,012122,1,2,1,3,0,1,2,0,46,2022_Jan_21_1115,listening_fmri,3.2.4,59.808474723349114,
4,parcelated_audio/33/33_4.ogg,,,,,,,,,0,0,0,0,0,4,4,4,0,0,0,0,,,,,,,,,0,0,0,0,0,3,3,3,,,,,,,,,,,,,,,,,,,,,,,,,,,,,,,,,,,,,,,,,,,,,,,,566.6389501629992,570.2232522369995,,,,,,,,,,,,,,,,,,,,,,,,,,,,,,,,,,,,,,,,,,,,,,,,,,,,,,,,,,,,,,,,,,,,012122,1,2,1,3,0,1,2,0,46,2022_Jan_21_1115,listening_fmri,3.2.4,59.808474723349114,
4,parcelated_audio/33/33_5.ogg,,,,,,,,,0,0,0,0,0,4,4,4,0,0,0,0,,,,,,,,,0,0,0,0,0,4,4,4,,,,,,,,,,,,,,,,,,,,,,,,,,,,,,,,,,,,,,,,,,,,,,,,570.2237065859999,581.4740526119995,,,,,,,,,,,,,,,,,,,,,,,,,,,,,,,,,,,,,,,,,,,,,,,,,,,,,,,,,,,,,,,,,,,,012122,1,2,1,3,0,1,2,0,46,2022_Jan_21_1115,listening_fmri,3.2.4,59.808474723349114,
4,parcelated_audio/33/33_6.ogg,,,,,,,,,0,0,0,0,0,4,4,4,0,0,0,0,,,,,,,,,0,0,0,0,0,5,5,5,,,,,,,,,,,,,,,,,,,,,,,,,,,,,,,,,,,,,,,,,,,,,,,,581.4744189189996,593.1723684949993,,,,,,,,,,,,,,,,,,,,,,,,,,,,,,,,,,,,,,,,,,,,,,,,,,,,,,,,,,,,,,,,,,,,012122,1,2,1,3,0,1,2,0,46,2022_Jan_21_1115,listening_fmri,3.2.4,59.808474723349114,
4,parcelated_audio/33/33_7.ogg,,,,,,,,,0,0,0,0,0,4,4,4,0,0,0,0,,,,,,,,,0,0,0,0,0,6,6,6,,,,,,,,,,,,,,,,,,,,,,,,,,,,,,,,,,,,,,,,,,,,,,,,593.1727444079997,607.7216452229995,,,,,,,,,,,,,,,,,,,,,,,,,,,,,,,,,,,,,,,,,,,,,,,,,,,,,,,,,,,,,,,,,,,,012122,1,2,1,3,0,1,2,0,46,2022_Jan_21_1115,listening_fmri,3.2.4,59.808474723349114,
4,parcelated_audio/33/33_8.ogg,,,,,,,,,0,0,0,0,0,4,4,4,0,0,0,0,,,,,,,,,0,0,0,0,0,7,7,7,,,,,,,,,,,,,,,,,,,,,,,,,,,,,,,,,,,,,,,,,,,,,,,,607.7222189319991,613.8631244539993,,,,,,,,,,,,,,,,,,,,,,,,,,,,,,,,,,,,,,,,,,,,,,,,,,,,,,,,,,,,,,,,,,,,012122,1,2,1,3,0,1,2,0,46,2022_Jan_21_1115,listening_fmri,3.2.4,59.808474723349114,
4,parcelated_audio/33/33_9.ogg,,,,,,,,,0,0,0,0,0,4,4,4,0,0,0,0,,,,,,,,,0,0,0,0,0,8,8,8,,,,,,,,,,,,,,,,,,,,,,,,,,,,,,,,,,,,,,,,,,,,,,,,613.8635381589993,617.5671978909995,,,,,,,,,,,,,,,,,,,,,,,,,,,,,,,,,,,,,,,,,,,,,,,,,,,,,,,,,,,,,,,,,,,,012122,1,2,1,3,0,1,2,0,46,2022_Jan_21_1115,listening_fmri,3.2.4,59.808474723349114,
4,parcelated_audio/33/33_10.ogg,,,,,,,,,0,0,0,0,0,4,4,4,0,0,0,0,,,,,,,,,0,0,0,0,0,9,9,9,,,,,,,,,,,,,,,,,,,,,,,,,,,,,,,,,,,,,,,,,,,,,,,,617.567576122,622.9404226509996,,,,,,,,,,,,,,,,,,,,,,,,,,,,,,,,,,,,,,,,,,,,,,,,,,,,,,,,,,,,,,,,,,,,012122,1,2,1,3,0,1,2,0,46,2022_Jan_21_1115,listening_fmri,3.2.4,59.808474723349114,
4,parcelated_audio/33/33_11.ogg,,,,,,,,,0,0,0,0,0,4,4,4,0,0,0,0,,,,,,,,,0,0,0,0,0,10,10,10,,,,,,,,,,,,,,,,,,,,,,,,,,,,,,,,,,,,,,,,,,,,,,,,622.9407593189999,637.3556745179994,,,,,,,,,,,,,,,,,,,,,,,,,,,,,,,,,,,,,,,,,,,,,,,,,,,,,,,,,,,,,,,,,,,,012122,1,2,1,3,0,1,2,0,46,2022_Jan_21_1115,listening_fmri,3.2.4,59.808474723349114,
4,parcelated_audio/33/33_12.ogg,,,,,,,,,0,0,0,0,0,4,4,4,0,0,0,0,,,,,,,,,0,0,0,0,0,11,11,11,,,,,,,,,,,,,,,,,,,,,,,,,,,,,,,,,,,,,,,,,,,,,,,,637.3560490969994,643.455329464,,,,,,,,,,,,,,,,,,,,,,,,,,,,,,,,,,,,,,,,,,,,,,,,,,,,,,,,,,,,,,,,,,,,012122,1,2,1,3,0,1,2,0,46,2022_Jan_21_1115,listening_fmri,3.2.4,59.808474723349114,
4,parcelated_audio/33/33_13.ogg,,,,,,,,,0,0,0,0,0,4,4,4,0,0,0,0,,,,,,,,,0,0,0,0,0,12,12,12,,,,,,,,,,,,,,,,,,,,,,,,,,,,,,,,,,,,,,,,,,,,,,,,643.4556829139992,650.8554292089993,,,,,,,,,,,,,,,,,,,,,,,,,,,,,,,,,,,,,,,,,,,,,,,,,,,,,,,,,,,,,,,,,,,,012122,1,2,1,3,0,1,2,0,46,2022_Jan_21_1115,listening_fmri,3.2.4,59.808474723349114,
4,parcelated_audio/33/33_14.ogg,,,,,,,,,0,0,0,0,0,4,4,4,0,0,0,0,,,,,,,,,0,0,0,0,0,13,13,13,,,,,,,,,,,,,,,,,,,,,,,,,,,,,,,,,,,,,,,,,,,,,,,,650.8561515089996,663.2953763249998,,,,,,,,,,,,,,,,,,,,,,,,,,,,,,,,,,,,,,,,,,,,,,,,,,,,,,,,,,,,,,,,,,,,012122,1,2,1,3,0,1,2,0,46,2022_Jan_21_1115,listening_fmri,3.2.4,59.808474723349114,
4,parcelated_audio/33/33_15.ogg,,,,,,,,,0,0,0,0,0,4,4,4,0,0,0,0,,,,,,,,,0,0,0,0,0,14,14,14,,,,,,,,,,,,,,,,,,,,,,,,,,,,,,,,,,,,,,,,,,,,,,,,663.2957358609992,681.8400059119995,,,,,,,,,,,,,,,,,,,,,,,,,,,,,,,,,,,,,,,,,,,,,,,,,,,,,,,,,,,,,,,,,,,,012122,1,2,1,3,0,1,2,0,46,2022_Jan_21_1115,listening_fmri,3.2.4,59.808474723349114,
4,parcelated_audio/33/33_16.ogg,,,,,,,,,0,0,0,0,0,4,4,4,0,0,0,0,,,,,,,,,0,0,0,0,0,15,15,15,,,,,,,,,,,,,,,,,,,,,,,,,,,,,,,,,,,,,,,,,,,,,,,,681.8402850089997,694.0675485689999,,,,,,,,,,,,,,,,,,,,,,,,,,,,,,,,,,,,,,,,,,,,,,,,,,,,,,,,,,,,,,,,,,,,012122,1,2,1,3,0,1,2,0,46,2022_Jan_21_1115,listening_fmri,3.2.4,59.808474723349114,
4,parcelated_audio/33/33_17.ogg,,,,,,,,,0,0,0,0,0,4,4,4,0,0,0,0,,,,,,,,,0,0,0,0,0,16,16,16,,,,,,,,,,,,,,,,,,,,,,,,,,,,,,,,,,,,,,,,,,,,,,,,694.0680762249995,705.2874574089992,,,,,,,,,,,,,,,,,,,,,,,,,,,,,,,,,,,,,,,,,,,,,,,,,,,,,,,,,,,,,,,,,,,,012122,1,2,1,3,0,1,2,0,46,2022_Jan_21_1115,listening_fmri,3.2.4,59.808474723349114,
4,parcelated_audio/33/33_18.ogg,,,,,,,,,0,0,0,0,0,4,4,4,0,0,0,0,,,,,,,,,0,0,0,0,0,17,17,17,,,,,,,,,,,,,,,,,,,,,,,,,,,,,,,,,,,,,,,,,,,,,,,,705.2878197349992,713.7586575529995,,,,,,,,,,,,,,,,,,,,,,,,,,,,,,,,,,,,,,,,,,,,,,,,,,,,,,,,,,,,,,,,,,,,012122,1,2,1,3,0,1,2,0,46,2022_Jan_21_1115,listening_fmri,3.2.4,59.808474723349114,
4,parcelated_audio/33/33_19.ogg,,,,,,,,,0,0,0,0,0,4,4,4,0,0,0,0,,,,,,,,,0,0,0,0,0,18,18,18,,,,,,,,,,,,,,,,,,,,,,,,,,,,,,,,,,,,,,,,,,,,,,,,713.7591259819992,717.2034587659991,,,,,,,,,,,,,,,,,,,,,,,,,,,,,,,,,,,,,,,,,,,,,,,,,,,,,,,,,,,,,,,,,,,,012122,1,2,1,3,0,1,2,0,46,2022_Jan_21_1115,listening_fmri,3.2.4,59.808474723349114,
4,parcelated_audio/33/33_20.ogg,,,,,,,,,0,0,0,0,0,4,4,4,0,0,0,0,,,,,,,,,0,0,0,0,0,19,19,19,,,,,,,,,,,,,,,,,,,,,,,,,,,,,,,,,,,,,,,,,,,,,,,,717.2039461089998,724.0737823969994,,,,,,,,,,,,,,,,,,,,,,,,,,,,,,,,,,,,,,,,,,,,,,,,,,,,,,,,,,,,,,,,,,,,012122,1,2,1,3,0,1,2,0,46,2022_Jan_21_1115,listening_fmri,3.2.4,59.808474723349114,
4,parcelated_audio/33/33_21.ogg,,,,,,,,,0,0,0,0,0,4,4,4,0,0,0,0,,,,,,,,,0,0,0,0,0,20,20,20,,,,,,,,,,,,,,,,,,,,,,,,,,,,,,,,,,,,,,,,,,,,,,,,724.0742574839996,728.2096251379999,,,,,,,,,,,,,,,,,,,,,,,,,,,,,,,,,,,,,,,,,,,,,,,,,,,,,,,,,,,,,,,,,,,,012122,1,2,1,3,0,1,2,0,46,2022_Jan_21_1115,listening_fmri,3.2.4,59.808474723349114,
4,parcelated_audio/33/33_22.ogg,,,,,,,,,0,0,0,0,0,4,4,4,0,0,0,0,,,,,,,,,0,0,0,0,0,21,21,21,,,,,,,,,,,,,,,,,,,,,,,,,,,,,,,,,,,,,,,,,,,,,,,,728.2099829659992,740.0468940089995,,,,,,,,,,,,,,,,,,,,,,,,,,,,,,,,,,,,,,,,,,,,,,,,,,,,,,,,,,,,,,,,,,,,012122,1,2,1,3,0,1,2,0,46,2022_Jan_21_1115,listening_fmri,3.2.4,59.808474723349114,
4,parcelated_audio/33/33_23.ogg,,,,,,,,,0,0,0,0,0,4,4,4,0,0,0,0,,,,,,,,,0,0,0,0,0,22,22,22,,,,,,,,,,,,,,,,,,,,,,,,,,,,,,,,,,,,,,,,,,,,,,,,740.0472550999993,750.5401254079998,,,,,,,,,,,,,,,,,,,,,,,,,,,,,,,,,,,,,,,,,,,,,,,,,,,,,,,,,,,,,,,,,,,,012122,1,2,1,3,0,1,2,0,46,2022_Jan_21_1115,listening_fmri,3.2.4,59.808474723349114,
4,parcelated_audio/33/33_24.ogg,,,,,,,,,0,0,0,0,0,4,4,4,0,0,0,0,,,,,,,,,0,0,0,0,0,23,23,23,,,,,,,,,,,,,,,,,,,,,,,,,,,,,,,,,,,,,,,,,,,,,,,,750.5404821089996,756.7996650519999,,,,,,,,,,,,,,,,,,,,,,,,,,,,,,,,,,,,,,,,,,,,,,,,,,,,,,,,,,,,,,,,,,,,012122,1,2,1,3,0,1,2,0,46,2022_Jan_21_1115,listening_fmri,3.2.4,59.808474723349114,
4,parcelated_audio/33/33_25.ogg,,,,,,,,,0,0,0,0,0,4,4,4,0,0,0,0,,,,,,,,,0,0,0,0,0,24,24,24,,,,,,,,,,,,,,,,,,,,,,,,,,,,,,,,,,,,,,,,,,,,,,,,756.799997225,764.9954732739998,,,,,,,,,,,,,,,,,,,,,,,,,,,,,,,,,,,,,,,,,,,,,,,,,,,,,,,,,,,,,,,,,,,,012122,1,2,1,3,0,1,2,0,46,2022_Jan_21_1115,listening_fmri,3.2.4,59.808474723349114,
4,parcelated_audio/33/33_26.ogg,,,,,,,,,0,0,0,0,0,4,4,4,0,0,0,0,,,,,,,,,0,0,0,0,0,25,25,25,,,,,,,,,,,,,,,,,,,,,,,,,,,,,,,,,,,,,,,,,,,,,,,,764.9960192129993,772.0727264849993,,,,,,,,,,,,,,,,,,,,,,,,,,,,,,,,,,,,,,,,,,,,,,,,,,,,,,,,,,,,,,,,,,,,012122,1,2,1,3,0,1,2,0,46,2022_Jan_21_1115,listening_fmri,3.2.4,59.808474723349114,
4,parcelated_audio/33/33_27.ogg,,,,,,,,,0,0,0,0,0,4,4,4,0,0,0,0,,,,,,,,,0,0,0,0,0,26,26,26,,,,,,,,,,,,,,,,,,,,,,,,,,,,,,,,,,,,,,,,,,,,,,,,772.0730810599998,779.6257778169993,,,,,,,,,,,,,,,,,,,,,,,,,,,,,,,,,,,,,,,,,,,,,,,,,,,,,,,,,,,,,,,,,,,,012122,1,2,1,3,0,1,2,0,46,2022_Jan_21_1115,listening_fmri,3.2.4,59.808474723349114,
4,parcelated_audio/33/33_28.ogg,,,,,,,,,0,0,0,0,0,4,4,4,0,0,0,0,,,,,,,,,0,0,0,0,0,27,27,27,,,,,,,,,,,,,,,,,,,,,,,,,,,,,,,,,,,,,,,,,,,,,,,,779.6261381319991,785.2969012919993,,,,,,,,,,,,,,,,,,,,,,,,,,,,,,,,,,,,,,,,,,,,,,,,,,,,,,,,,,,,,,,,,,,,012122,1,2,1,3,0,1,2,0,46,2022_Jan_21_1115,listening_fmri,3.2.4,59.808474723349114,
4,parcelated_audio/33/33_29.ogg,,,,,,,,,0,0,0,0,0,4,4,4,0,0,0,0,,,,,,,,,0,0,0,0,0,28,28,28,,,,,,,,,,,,,,,,,,,,,,,,,,,,,,,,,,,,,,,,,,,,,,,,785.2973179219998,793.2060410049999,,,,,,,,,,,,,,,,,,,,,,,,,,,,,,,,,,,,,,,,,,,,,,,,,,,,,,,,,,,,,,,,,,,,012122,1,2,1,3,0,1,2,0,46,2022_Jan_21_1115,listening_fmri,3.2.4,59.808474723349114,
4,parcelated_audio/33/33_30.ogg,,,,,,,,,0,0,0,0,0,4,4,4,0,0,0,0,,,,,,,,,0,0,0,0,0,29,29,29,,,,,,,,,,,,,,,,,,,,,,,,,,,,,,,,,,,,,,,,,,,,,,,,793.2064031589998,808.1711222599997,,,,,,,,,,,,,,,,,,,,,,,,,,,,,,,,,,,,,,,,,,,,,,,,,,,,,,,,,,,,,,,,,,,,012122,1,2,1,3,0,1,2,0,46,2022_Jan_21_1115,listening_fmri,3.2.4,59.808474723349114,
4,parcelated_audio/33/33_31.ogg,,,,,,,,,0,0,0,0,0,4,4,4,0,0,0,0,,,,,,,,,0,0,0,0,0,30,30,30,,,,,,,,,,,,,,,,,,,,,,,,,,,,,,,,,,,,,,,,,,,,,,,,808.1714814669995,817.9134876369999,,,,,,,,,,,,,,,,,,,,,,,,,,,,,,,,,,,,,,,,,,,,,,,,,,,,,,,,,,,,,,,,,,,,012122,1,2,1,3,0,1,2,0,46,2022_Jan_21_1115,listening_fmri,3.2.4,59.808474723349114,
4,parcelated_audio/33/33_32.ogg,,,,,,,,,0,0,0,0,0,4,4,4,0,0,0,0,,,,,,,,,0,0,0,0,0,31,31,31,,,,,,,,,,,,,,,,,,,,,,,,,,,,,,,,,,,,,,,,,,,,,,,,817.9138465709993,823.5332329159992,,,,,,,,,,,,,,,,,,,,,,,,,,,,,,,,,,,,,,,,,,,,,,,,,,,,,,,,,,,,,,,,,,,,012122,1,2,1,3,0,1,2,0,46,2022_Jan_21_1115,listening_fmri,3.2.4,59.808474723349114,
4,,,,,,,,,,0,0,0,0,0,4,4,4,0,0,0,0,,,,,,,,,0,0,0,0,,,,,,,,,,,,,,,,,,,,,,,,,,,,,,,,,,,,,,,,,,,,,,,,,,,,,,,,,,,,,,,,,,,,,,,,,,,,,,,,,,,,,,,,,,,,,,,,,,,,,,,,,,,,,,,,,,,,,,,,,012122,1,2,1,3,0,1,2,0,46,2022_Jan_21_1115,listening_fmri,3.2.4,59.808474723349114,
4,,,,,,,,,,0,0,0,0,0,4,4,4,0,0,0,0,,,,,,,,,,,,,,,,,,,,,,,,,,,,,,,,,,,,,,,,,,823.5337026779998,829.521802841,874.70628235,None,,,,,,,,,,,,,,,,,,,,,880.7032842210001,None,880.7032842210001,None,,,,,,,,,,,,,,,,,,,,,,,,,,,,,,,,,,,,,,,,,,,,,,,,,,,,,,,,,,,,,,,,012122,1,2,1,3,0,1,2,0,46,2022_Jan_21_1115,listening_fmri,3.2.4,59.808474723349114,
4,,,,,,,,,,0,0,0,0,0,4,4,4,,,,,,,,,,,,,,,,,,,,,,,,,,,,,,,,,,,,,,,,,,,,,,,,,,,,,,,,,,,,,,,,,,,,,,,,,,,,,,,,,,,,,,,,,,,,,,,,,,,,,,,,,,,,,,,,,,,,,,,,,,,,,,,,,,,,,,,,,012122,1,2,1,3,0,1,2,0,46,2022_Jan_21_1115,listening_fmri,3.2.4,59.808474723349114,
5,parcelated_audio/11/11_1.ogg,,,,,,,,,0,0,0,0,0,5,5,5,0,0,0,0,,,,,,,,,0,0,0,0,0,0,0,0,,,,,,,,,,,,,,,,,,,,,,,,,,,,,,881.7192848320001,None,881.7192848320001,None,3,1.1348171719992024,881.7192848320001,None,881.7192848320001,None,882.8869593019999,None,2,0.73433258499972,882.8869593019999,None,832.478260332,835.4839380289995,835.4920640819992,847.5698868679992,,,,,,,,,,,,,,,,,,,,,,,,,,,,,,,,,,,,,,,,,,,,,,,,,,,,,,,,,,,,,,,,,,,,012122,1,2,1,3,0,1,2,0,46,2022_Jan_21_1115,listening_fmri,3.2.4,59.808474723349114,
5,parcelated_audio/11/11_2.ogg,,,,,,,,,0,0,0,0,0,5,5,5,0,0,0,0,,,,,,,,,0,0,0,0,0,1,1,1,,,,,,,,,,,,,,,,,,,,,,,,,,,,,,,,,,,,,,,,,,,,,,,,847.5726700809992,852.0552641719996,,,,,,,,,,,,,,,,,,,,,,,,,,,,,,,,,,,,,,,,,,,,,,,,,,,,,,,,,,,,,,,,,,,,012122,1,2,1,3,0,1,2,0,46,2022_Jan_21_1115,listening_fmri,3.2.4,59.808474723349114,
5,parcelated_audio/11/11_3.ogg,,,,,,,,,0,0,0,0,0,5,5,5,0,0,0,0,,,,,,,,,0,0,0,0,0,2,2,2,,,,,,,,,,,,,,,,,,,,,,,,,,,,,,,,,,,,,,,,,,,,,,,,852.0556185309997,857.0554273049993,,,,,,,,,,,,,,,,,,,,,,,,,,,,,,,,,,,,,,,,,,,,,,,,,,,,,,,,,,,,,,,,,,,,012122,1,2,1,3,0,1,2,0,46,2022_Jan_21_1115,listening_fmri,3.2.4,59.808474723349114,
5,parcelated_audio/11/11_4.ogg,,,,,,,,,0,0,0,0,0,5,5,5,0,0,0,0,,,,,,,,,0,0,0,0,0,3,3,3,,,,,,,,,,,,,,,,,,,,,,,,,,,,,,,,,,,,,,,,,,,,,,,,857.0559223249993,866.1405501179997,,,,,,,,,,,,,,,,,,,,,,,,,,,,,,,,,,,,,,,,,,,,,,,,,,,,,,,,,,,,,,,,,,,,012122,1,2,1,3,0,1,2,0,46,2022_Jan_21_1115,listening_fmri,3.2.4,59.808474723349114,
5,parcelated_audio/11/11_5.ogg,,,,,,,,,0,0,0,0,0,5,5,5,0,0,0,0,,,,,,,,,0,0,0,0,0,4,4,4,,,,,,,,,,,,,,,,,,,,,,,,,,,,,,,,,,,,,,,,,,,,,,,,866.140909238,871.8871833799994,,,,,,,,,,,,,,,,,,,,,,,,,,,,,,,,,,,,,,,,,,,,,,,,,,,,,,,,,,,,,,,,,,,,012122,1,2,1,3,0,1,2,0,46,2022_Jan_21_1115,listening_fmri,3.2.4,59.808474723349114,
5,parcelated_audio/11/11_6.ogg,,,,,,,,,0,0,0,0,0,5,5,5,0,0,0,0,,,,,,,,,0,0,0,0,0,5,5,5,,,,,,,,,,,,,,,,,,,,,,,,,,,,,,,,,,,,,,,,,,,,,,,,871.8875608339995,876.4818578059994,,,,,,,,,,,,,,,,,,,,,,,,,,,,,,,,,,,,,,,,,,,,,,,,,,,,,,,,,,,,,,,,,,,,012122,1,2,1,3,0,1,2,0,46,2022_Jan_21_1115,listening_fmri,3.2.4,59.808474723349114,
5,parcelated_audio/11/11_7.ogg,,,,,,,,,0,0,0,0,0,5,5,5,0,0,0,0,,,,,,,,,0,0,0,0,0,6,6,6,,,,,,,,,,,,,,,,,,,,,,,,,,,,,,,,,,,,,,,,,,,,,,,,876.4824653179994,883.0231639489994,,,,,,,,,,,,,,,,,,,,,,,,,,,,,,,,,,,,,,,,,,,,,,,,,,,,,,,,,,,,,,,,,,,,012122,1,2,1,3,0,1,2,0,46,2022_Jan_21_1115,listening_fmri,3.2.4,59.808474723349114,
5,parcelated_audio/11/11_8.ogg,,,,,,,,,0,0,0,0,0,5,5,5,0,0,0,0,,,,,,,,,0,0,0,0,0,7,7,7,,,,,,,,,,,,,,,,,,,,,,,,,,,,,,,,,,,,,,,,,,,,,,,,883.0235229829996,888.801336345,,,,,,,,,,,,,,,,,,,,,,,,,,,,,,,,,,,,,,,,,,,,,,,,,,,,,,,,,,,,,,,,,,,,012122,1,2,1,3,0,1,2,0,46,2022_Jan_21_1115,listening_fmri,3.2.4,59.808474723349114,
5,parcelated_audio/11/11_9.ogg,,,,,,,,,0,0,0,0,0,5,5,5,0,0,0,0,,,,,,,,,0,0,0,0,0,8,8,8,,,,,,,,,,,,,,,,,,,,,,,,,,,,,,,,,,,,,,,,,,,,,,,,888.8016990269998,893.1005892739995,,,,,,,,,,,,,,,,,,,,,,,,,,,,,,,,,,,,,,,,,,,,,,,,,,,,,,,,,,,,,,,,,,,,012122,1,2,1,3,0,1,2,0,46,2022_Jan_21_1115,listening_fmri,3.2.4,59.808474723349114,
5,parcelated_audio/11/11_10.ogg,,,,,,,,,0,0,0,0,0,5,5,5,0,0,0,0,,,,,,,,,0,0,0,0,0,9,9,9,,,,,,,,,,,,,,,,,,,,,,,,,,,,,,,,,,,,,,,,,,,,,,,,893.101078877,897.6820169939992,,,,,,,,,,,,,,,,,,,,,,,,,,,,,,,,,,,,,,,,,,,,,,,,,,,,,,,,,,,,,,,,,,,,012122,1,2,1,3,0,1,2,0,46,2022_Jan_21_1115,listening_fmri,3.2.4,59.808474723349114,
5,parcelated_audio/11/11_11.ogg,,,,,,,,,0,0,0,0,0,5,5,5,0,0,0,0,,,,,,,,,0,0,0,0,0,10,10,10,,,,,,,,,,,,,,,,,,,,,,,,,,,,,,,,,,,,,,,,,,,,,,,,897.6825312739993,900.8552861229991,,,,,,,,,,,,,,,,,,,,,,,,,,,,,,,,,,,,,,,,,,,,,,,,,,,,,,,,,,,,,,,,,,,,012122,1,2,1,3,0,1,2,0,46,2022_Jan_21_1115,listening_fmri,3.2.4,59.808474723349114,
5,parcelated_audio/11/11_12.ogg,,,,,,,,,0,0,0,0,0,5,5,5,0,0,0,0,,,,,,,,,0,0,0,0,0,11,11,11,,,,,,,,,,,,,,,,,,,,,,,,,,,,,,,,,,,,,,,,,,,,,,,,900.8556460359996,903.6872231519992,,,,,,,,,,,,,,,,,,,,,,,,,,,,,,,,,,,,,,,,,,,,,,,,,,,,,,,,,,,,,,,,,,,,012122,1,2,1,3,0,1,2,0,46,2022_Jan_21_1115,listening_fmri,3.2.4,59.808474723349114,
5,parcelated_audio/11/11_13.ogg,,,,,,,,,0,0,0,0,0,5,5,5,0,0,0,0,,,,,,,,,0,0,0,0,0,12,12,12,,,,,,,,,,,,,,,,,,,,,,,,,,,,,,,,,,,,,,,,,,,,,,,,903.6875803459998,907.0141908539999,,,,,,,,,,,,,,,,,,,,,,,,,,,,,,,,,,,,,,,,,,,,,,,,,,,,,,,,,,,,,,,,,,,,012122,1,2,1,3,0,1,2,0,46,2022_Jan_21_1115,listening_fmri,3.2.4,59.808474723349114,
5,parcelated_audio/11/11_14.ogg,,,,,,,,,0,0,0,0,0,5,5,5,0,0,0,0,,,,,,,,,0,0,0,0,0,13,13,13,,,,,,,,,,,,,,,,,,,,,,,,,,,,,,,,,,,,,,,,,,,,,,,,907.0146746359997,909.7164286999996,,,,,,,,,,,,,,,,,,,,,,,,,,,,,,,,,,,,,,,,,,,,,,,,,,,,,,,,,,,,,,,,,,,,012122,1,2,1,3,0,1,2,0,46,2022_Jan_21_1115,listening_fmri,3.2.4,59.808474723349114,
5,parcelated_audio/11/11_15.ogg,,,,,,,,,0,0,0,0,0,5,5,5,0,0,0,0,,,,,,,,,0,0,0,0,0,14,14,14,,,,,,,,,,,,,,,,,,,,,,,,,,,,,,,,,,,,,,,,,,,,,,,,909.7167889159991,920.9030379789992,,,,,,,,,,,,,,,,,,,,,,,,,,,,,,,,,,,,,,,,,,,,,,,,,,,,,,,,,,,,,,,,,,,,012122,1,2,1,3,0,1,2,0,46,2022_Jan_21_1115,listening_fmri,3.2.4,59.808474723349114,
5,parcelated_audio/11/11_16.ogg,,,,,,,,,0,0,0,0,0,5,5,5,0,0,0,0,,,,,,,,,0,0,0,0,0,15,15,15,,,,,,,,,,,,,,,,,,,,,,,,,,,,,,,,,,,,,,,,,,,,,,,,920.9033994799993,923.8948967349997,,,,,,,,,,,,,,,,,,,,,,,,,,,,,,,,,,,,,,,,,,,,,,,,,,,,,,,,,,,,,,,,,,,,012122,1,2,1,3,0,1,2,0,46,2022_Jan_21_1115,listening_fmri,3.2.4,59.808474723349114,
5,parcelated_audio/11/11_17.ogg,,,,,,,,,0,0,0,0,0,5,5,5,0,0,0,0,,,,,,,,,0,0,0,0,0,16,16,16,,,,,,,,,,,,,,,,,,,,,,,,,,,,,,,,,,,,,,,,,,,,,,,,923.8952558179999,930.8737212049991,,,,,,,,,,,,,,,,,,,,,,,,,,,,,,,,,,,,,,,,,,,,,,,,,,,,,,,,,,,,,,,,,,,,012122,1,2,1,3,0,1,2,0,46,2022_Jan_21_1115,listening_fmri,3.2.4,59.808474723349114,
5,parcelated_audio/11/11_18.ogg,,,,,,,,,0,0,0,0,0,5,5,5,0,0,0,0,,,,,,,,,0,0,0,0,0,17,17,17,,,,,,,,,,,,,,,,,,,,,,,,,,,,,,,,,,,,,,,,,,,,,,,,930.8745542319994,938.3458172749997,,,,,,,,,,,,,,,,,,,,,,,,,,,,,,,,,,,,,,,,,,,,,,,,,,,,,,,,,,,,,,,,,,,,012122,1,2,1,3,0,1,2,0,46,2022_Jan_21_1115,listening_fmri,3.2.4,59.808474723349114,
5,parcelated_audio/11/11_19.ogg,,,,,,,,,0,0,0,0,0,5,5,5,0,0,0,0,,,,,,,,,0,0,0,0,0,18,18,18,,,,,,,,,,,,,,,,,,,,,,,,,,,,,,,,,,,,,,,,,,,,,,,,938.3461735459996,942.9336477259994,,,,,,,,,,,,,,,,,,,,,,,,,,,,,,,,,,,,,,,,,,,,,,,,,,,,,,,,,,,,,,,,,,,,012122,1,2,1,3,0,1,2,0,46,2022_Jan_21_1115,listening_fmri,3.2.4,59.808474723349114,
5,parcelated_audio/11/11_20.ogg,,,,,,,,,0,0,0,0,0,5,5,5,0,0,0,0,,,,,,,,,0,0,0,0,0,19,19,19,,,,,,,,,,,,,,,,,,,,,,,,,,,,,,,,,,,,,,,,,,,,,,,,942.934007977,947.8681223929998,,,,,,,,,,,,,,,,,,,,,,,,,,,,,,,,,,,,,,,,,,,,,,,,,,,,,,,,,,,,,,,,,,,,012122,1,2,1,3,0,1,2,0,46,2022_Jan_21_1115,listening_fmri,3.2.4,59.808474723349114,
5,parcelated_audio/11/11_21.ogg,,,,,,,,,0,0,0,0,0,5,5,5,0,0,0,0,,,,,,,,,0,0,0,0,0,20,20,20,,,,,,,,,,,,,,,,,,,,,,,,,,,,,,,,,,,,,,,,,,,,,,,,947.8685114079999,956.6391834249998,,,,,,,,,,,,,,,,,,,,,,,,,,,,,,,,,,,,,,,,,,,,,,,,,,,,,,,,,,,,,,,,,,,,012122,1,2,1,3,0,1,2,0,46,2022_Jan_21_1115,listening_fmri,3.2.4,59.808474723349114,
5,parcelated_audio/11/11_22.ogg,,,,,,,,,0,0,0,0,0,5,5,5,0,0,0,0,,,,,,,,,0,0,0,0,0,21,21,21,,,,,,,,,,,,,,,,,,,,,,,,,,,,,,,,,,,,,,,,,,,,,,,,956.6398821539997,959.9312158999992,,,,,,,,,,,,,,,,,,,,,,,,,,,,,,,,,,,,,,,,,,,,,,,,,,,,,,,,,,,,,,,,,,,,012122,1,2,1,3,0,1,2,0,46,2022_Jan_21_1115,listening_fmri,3.2.4,59.808474723349114,
5,parcelated_audio/11/11_23.ogg,,,,,,,,,0,0,0,0,0,5,5,5,0,0,0,0,,,,,,,,,0,0,0,0,0,22,22,22,,,,,,,,,,,,,,,,,,,,,,,,,,,,,,,,,,,,,,,,,,,,,,,,959.931738843,964.8045330329996,,,,,,,,,,,,,,,,,,,,,,,,,,,,,,,,,,,,,,,,,,,,,,,,,,,,,,,,,,,,,,,,,,,,012122,1,2,1,3,0,1,2,0,46,2022_Jan_21_1115,listening_fmri,3.2.4,59.808474723349114,
5,parcelated_audio/11/11_24.ogg,,,,,,,,,0,0,0,0,0,5,5,5,0,0,0,0,,,,,,,,,0,0,0,0,0,23,23,23,,,,,,,,,,,,,,,,,,,,,,,,,,,,,,,,,,,,,,,,,,,,,,,,964.8050286769994,968.4233219559992,,,,,,,,,,,,,,,,,,,,,,,,,,,,,,,,,,,,,,,,,,,,,,,,,,,,,,,,,,,,,,,,,,,,012122,1,2,1,3,0,1,2,0,46,2022_Jan_21_1115,listening_fmri,3.2.4,59.808474723349114,
5,parcelated_audio/11/11_25.ogg,,,,,,,,,0,0,0,0,0,5,5,5,0,0,0,0,,,,,,,,,0,0,0,0,0,24,24,24,,,,,,,,,,,,,,,,,,,,,,,,,,,,,,,,,,,,,,,,,,,,,,,,968.4236807159996,973.1705303869994,,,,,,,,,,,,,,,,,,,,,,,,,,,,,,,,,,,,,,,,,,,,,,,,,,,,,,,,,,,,,,,,,,,,012122,1,2,1,3,0,1,2,0,46,2022_Jan_21_1115,listening_fmri,3.2.4,59.808474723349114,
5,parcelated_audio/11/11_26.ogg,,,,,,,,,0,0,0,0,0,5,5,5,0,0,0,0,,,,,,,,,0,0,0,0,0,25,25,25,,,,,,,,,,,,,,,,,,,,,,,,,,,,,,,,,,,,,,,,,,,,,,,,973.170817106,978.1633238459999,,,,,,,,,,,,,,,,,,,,,,,,,,,,,,,,,,,,,,,,,,,,,,,,,,,,,,,,,,,,,,,,,,,,012122,1,2,1,3,0,1,2,0,46,2022_Jan_21_1115,listening_fmri,3.2.4,59.808474723349114,
5,parcelated_audio/11/11_27.ogg,,,,,,,,,0,0,0,0,0,5,5,5,0,0,0,0,,,,,,,,,0,0,0,0,0,26,26,26,,,,,,,,,,,,,,,,,,,,,,,,,,,,,,,,,,,,,,,,,,,,,,,,978.1636686649999,982.1297050269995,,,,,,,,,,,,,,,,,,,,,,,,,,,,,,,,,,,,,,,,,,,,,,,,,,,,,,,,,,,,,,,,,,,,012122,1,2,1,3,0,1,2,0,46,2022_Jan_21_1115,listening_fmri,3.2.4,59.808474723349114,
5,parcelated_audio/11/11_28.ogg,,,,,,,,,0,0,0,0,0,5,5,5,0,0,0,0,,,,,,,,,0,0,0,0,0,27,27,27,,,,,,,,,,,,,,,,,,,,,,,,,,,,,,,,,,,,,,,,,,,,,,,,982.1302149359999,985.6445451289992,,,,,,,,,,,,,,,,,,,,,,,,,,,,,,,,,,,,,,,,,,,,,,,,,,,,,,,,,,,,,,,,,,,,012122,1,2,1,3,0,1,2,0,46,2022_Jan_21_1115,listening_fmri,3.2.4,59.808474723349114,
5,parcelated_audio/11/11_29.ogg,,,,,,,,,0,0,0,0,0,5,5,5,0,0,0,0,,,,,,,,,0,0,0,0,0,28,28,28,,,,,,,,,,,,,,,,,,,,,,,,,,,,,,,,,,,,,,,,,,,,,,,,985.6448917449998,989.8178148589996,,,,,,,,,,,,,,,,,,,,,,,,,,,,,,,,,,,,,,,,,,,,,,,,,,,,,,,,,,,,,,,,,,,,012122,1,2,1,3,0,1,2,0,46,2022_Jan_21_1115,listening_fmri,3.2.4,59.808474723349114,
5,parcelated_audio/11/11_30.ogg,,,,,,,,,0,0,0,0,0,5,5,5,0,0,0,0,,,,,,,,,0,0,0,0,0,29,29,29,,,,,,,,,,,,,,,,,,,,,,,,,,,,,,,,,,,,,,,,,,,,,,,,989.8181868019992,994.327303137,,,,,,,,,,,,,,,,,,,,,,,,,,,,,,,,,,,,,,,,,,,,,,,,,,,,,,,,,,,,,,,,,,,,012122,1,2,1,3,0,1,2,0,46,2022_Jan_21_1115,listening_fmri,3.2.4,59.808474723349114,
5,parcelated_audio/11/11_31.ogg,,,,,,,,,0,0,0,0,0,5,5,5,0,0,0,0,,,,,,,,,0,0,0,0,0,30,30,30,,,,,,,,,,,,,,,,,,,,,,,,,,,,,,,,,,,,,,,,,,,,,,,,994.3281424139996,999.1697320359999,,,,,,,,,,,,,,,,,,,,,,,,,,,,,,,,,,,,,,,,,,,,,,,,,,,,,,,,,,,,,,,,,,,,012122,1,2,1,3,0,1,2,0,46,2022_Jan_21_1115,listening_fmri,3.2.4,59.808474723349114,
5,parcelated_audio/11/11_32.ogg,,,,,,,,,0,0,0,0,0,5,5,5,0,0,0,0,,,,,,,,,0,0,0,0,0,31,31,31,,,,,,,,,,,,,,,,,,,,,,,,,,,,,,,,,,,,,,,,,,,,,,,,999.1700949839997,1003.2338886289999,,,,,,,,,,,,,,,,,,,,,,,,,,,,,,,,,,,,,,,,,,,,,,,,,,,,,,,,,,,,,,,,,,,,012122,1,2,1,3,0,1,2,0,46,2022_Jan_21_1115,listening_fmri,3.2.4,59.808474723349114,
5,parcelated_audio/11/11_33.ogg,,,,,,,,,0,0,0,0,0,5,5,5,0,0,0,0,,,,,,,,,0,0,0,0,0,32,32,32,,,,,,,,,,,,,,,,,,,,,,,,,,,,,,,,,,,,,,,,,,,,,,,,1003.2342482629992,1005.7670089679996,,,,,,,,,,,,,,,,,,,,,,,,,,,,,,,,,,,,,,,,,,,,,,,,,,,,,,,,,,,,,,,,,,,,012122,1,2,1,3,0,1,2,0,46,2022_Jan_21_1115,listening_fmri,3.2.4,59.808474723349114,
5,parcelated_audio/11/11_34.ogg,,,,,,,,,0,0,0,0,0,5,5,5,0,0,0,0,,,,,,,,,0,0,0,0,0,33,33,33,,,,,,,,,,,,,,,,,,,,,,,,,,,,,,,,,,,,,,,,,,,,,,,,1005.7673816619999,1009.0737616439992,,,,,,,,,,,,,,,,,,,,,,,,,,,,,,,,,,,,,,,,,,,,,,,,,,,,,,,,,,,,,,,,,,,,012122,1,2,1,3,0,1,2,0,46,2022_Jan_21_1115,listening_fmri,3.2.4,59.808474723349114,
5,parcelated_audio/11/11_35.ogg,,,,,,,,,0,0,0,0,0,5,5,5,0,0,0,0,,,,,,,,,0,0,0,0,0,34,34,34,,,,,,,,,,,,,,,,,,,,,,,,,,,,,,,,,,,,,,,,,,,,,,,,1009.0741280099992,1013.4337144469991,,,,,,,,,,,,,,,,,,,,,,,,,,,,,,,,,,,,,,,,,,,,,,,,,,,,,,,,,,,,,,,,,,,,012122,1,2,1,3,0,1,2,0,46,2022_Jan_21_1115,listening_fmri,3.2.4,59.808474723349114,
5,parcelated_audio/11/11_36.ogg,,,,,,,,,0,0,0,0,0,5,5,5,0,0,0,0,,,,,,,,,0,0,0,0,0,35,35,35,,,,,,,,,,,,,,,,,,,,,,,,,,,,,,,,,,,,,,,,,,,,,,,,1013.4340862199997,1022.4496994039991,,,,,,,,,,,,,,,,,,,,,,,,,,,,,,,,,,,,,,,,,,,,,,,,,,,,,,,,,,,,,,,,,,,,012122,1,2,1,3,0,1,2,0,46,2022_Jan_21_1115,listening_fmri,3.2.4,59.808474723349114,
5,parcelated_audio/11/11_37.ogg,,,,,,,,,0,0,0,0,0,5,5,5,0,0,0,0,,,,,,,,,0,0,0,0,0,36,36,36,,,,,,,,,,,,,,,,,,,,,,,,,,,,,,,,,,,,,,,,,,,,,,,,1022.4500683589995,1026.6212507189994,,,,,,,,,,,,,,,,,,,,,,,,,,,,,,,,,,,,,,,,,,,,,,,,,,,,,,,,,,,,,,,,,,,,012122,1,2,1,3,0,1,2,0,46,2022_Jan_21_1115,listening_fmri,3.2.4,59.808474723349114,
5,parcelated_audio/11/11_38.ogg,,,,,,,,,0,0,0,0,0,5,5,5,0,0,0,0,,,,,,,,,0,0,0,0,0,37,37,37,,,,,,,,,,,,,,,,,,,,,,,,,,,,,,,,,,,,,,,,,,,,,,,,1026.6217451309994,1032.7854235149998,,,,,,,,,,,,,,,,,,,,,,,,,,,,,,,,,,,,,,,,,,,,,,,,,,,,,,,,,,,,,,,,,,,,012122,1,2,1,3,0,1,2,0,46,2022_Jan_21_1115,listening_fmri,3.2.4,59.808474723349114,
5,parcelated_audio/11/11_39.ogg,,,,,,,,,0,0,0,0,0,5,5,5,0,0,0,0,,,,,,,,,0,0,0,0,0,38,38,38,,,,,,,,,,,,,,,,,,,,,,,,,,,,,,,,,,,,,,,,,,,,,,,,1032.7857754549996,1037.9753037729997,,,,,,,,,,,,,,,,,,,,,,,,,,,,,,,,,,,,,,,,,,,,,,,,,,,,,,,,,,,,,,,,,,,,012122,1,2,1,3,0,1,2,0,46,2022_Jan_21_1115,listening_fmri,3.2.4,59.808474723349114,
5,parcelated_audio/11/11_40.ogg,,,,,,,,,0,0,0,0,0,5,5,5,0,0,0,0,,,,,,,,,0,0,0,0,0,39,39,39,,,,,,,,,,,,,,,,,,,,,,,,,,,,,,,,,,,,,,,,,,,,,,,,1037.9756640419992,1043.6473940469996,,,,,,,,,,,,,,,,,,,,,,,,,,,,,,,,,,,,,,,,,,,,,,,,,,,,,,,,,,,,,,,,,,,,012122,1,2,1,3,0,1,2,0,46,2022_Jan_21_1115,listening_fmri,3.2.4,59.808474723349114,
5,parcelated_audio/11/11_41.ogg,,,,,,,,,0,0,0,0,0,5,5,5,0,0,0,0,,,,,,,,,0,0,0,0,0,40,40,40,,,,,,,,,,,,,,,,,,,,,,,,,,,,,,,,,,,,,,,,,,,,,,,,1043.6477521839997,1049.8017362559995,,,,,,,,,,,,,,,,,,,,,,,,,,,,,,,,,,,,,,,,,,,,,,,,,,,,,,,,,,,,,,,,,,,,012122,1,2,1,3,0,1,2,0,46,2022_Jan_21_1115,listening_fmri,3.2.4,59.808474723349114,
5,,,,,,,,,,0,0,0,0,0,5,5,5,0,0,0,0,,,,,,,,,0,0,0,0,,,,,,,,,,,,,,,,,,,,,,,,,,,,,,,,,,,,,,,,,,,,,,,,,,,,,,,,,,,,,,,,,,,,,,,,,,,,,,,,,,,,,,,,,,,,,,,,,,,,,,,,,,,,,,,,,,,,,,,,,012122,1,2,1,3,0,1,2,0,46,2022_Jan_21_1115,listening_fmri,3.2.4,59.808474723349114,
5,,,,,,,,,,0,0,0,0,0,5,5,5,0,0,0,0,,,,,,,,,,,,,,,,,,,,,,,,,,,,,,,,,,,,,,,,,,1049.8022367539998,1055.8015358439998,1100.9862825290002,None,,,,,,,,,,,,,,,,,,,,,1106.9873338050002,None,1106.9873338050002,None,,,,,,,,,,,,,,,,,,,,,,,,,,,,,,,,,,,,,,,,,,,,,,,,,,,,,,,,,,,,,,,,012122,1,2,1,3,0,1,2,0,46,2022_Jan_21_1115,listening_fmri,3.2.4,59.808474723349114,
5,,,,,,,,,,0,0,0,0,0,5,5,5,,,,,,,,,,,,,,,,,,,,,,,,,,,,,,,,,,,,,,,,,,,,,,,,,,,,,,,,,,,,,,,,,,,,,,,,,,,,,,,,,,,,,,,,,,,,,,,,,,,,,,,,,,,,,,,,,,,,,,,,,,,,,,,,,,,,,,,,,012122,1,2,1,3,0,1,2,0,46,2022_Jan_21_1115,listening_fmri,3.2.4,59.808474723349114,
6,,,,,,,,,,0,0,0,0,0,6,6,6,0,0,0,0,0,0,0,0,,,,,,,,,,,,,,,,,0,0,0,0,,,,,,,,,,,,,,,,,,,,,,1108.020013118,None,1108.020013118,None,7,2.2212674250004056,1108.020013118,None,1108.020013118,None,,,,,,,,,,,,,,,1110.2700237140007,None,6,1.185066289000133,1110.2700237140007,None,1110.2700237140007,None,1111.5030915480002,None,1111.5030915480002,None,1111.5030915480002,None,7,1.6571904339998582,1111.5030915480002,None,1113.1864239710003,None,3,2.3108518910003113,1113.1864239710003,None,1113.1864239710003,None,1115.6026466580006,None,1115.6026466580006,None,1115.6026466580006,None,1115.6026466580006,None,1115.6026466580006,None,1115.6026466580006,None,1115.6026466580006,None,None,1115.6026466580006,None,,,,,,,,,,,,,,,,,,,,,012122,1,2,1,3,0,1,2,0,46,2022_Jan_21_1115,listening_fmri,3.2.4,59.808474723349114,
6,,,,,,,,,,0,0,0,0,0,6,6,6,0,0,0,0,0,0,0,0,,,,,,,,,,,,,,,,,,,,,,,,,,,,,,,,,,,,,,,,,,,,,,,,,,,,,,,,,,,,,,,,,,,,,,,,,,,,,,,,,,,,,,,,,,,,,,,,,,,,,,,,,,,,,1141.2531378270005,None,3,1.031168393000371,1141.2531378270005,None,1141.2531378270005,None,1142.3203526750003,None,1142.3203526750003,None,1142.3203526750003,None,2,0.6308142239995504,1142.3203526750003,None,,,012122,1,2,1,3,0,1,2,0,46,2022_Jan_21_1115,listening_fmri,3.2.4,59.808474723349114,
6,parcelated_audio/42/42_1.ogg,,,,,,,,,0,0,0,0,0,6,6,6,0,0,0,0,,,,,,,,,0,0,0,0,0,0,0,0,,,,,,,,,,,,,,,,,,,,,,,,,,,,,,,,,,,,,,,,1142.9700135430003,None,2,1.1262917249996462,1142.9700135430003,None,1092.9427943429992,1095.951626733,1095.9616344529995,1104.3270772249998,,,,,,,,,,,,,,,,,,,,,,,,,,,,,,,,,,,,,,,,,,,,,,,,,,,,,,,,,,,,,,,,,,,,012122,1,2,1,3,0,1,2,0,46,2022_Jan_21_1115,listening_fmri,3.2.4,59.808474723349114,
6,parcelated_audio/42/42_2.ogg,,,,,,,,,0,0,0,0,0,6,6,6,0,0,0,0,,,,,,,,,0,0,0,0,0,1,1,1,,,,,,,,,,,,,,,,,,,,,,,,,,,,,,,,,,,,,,,,,,,,,,,,1104.3273953649996,1117.05257283,,,,,,,,,,,,,,,,,,,,,,,,,,,,,,,,,,,,,,,,,,,,,,,,,,,,,,,,,,,,,,,,,,,,012122,1,2,1,3,0,1,2,0,46,2022_Jan_21_1115,listening_fmri,3.2.4,59.808474723349114,
6,parcelated_audio/42/42_3.ogg,,,,,,,,,0,0,0,0,0,6,6,6,0,0,0,0,,,,,,,,,0,0,0,0,0,2,2,2,,,,,,,,,,,,,,,,,,,,,,,,,,,,,,,,,,,,,,,,,,,,,,,,1117.052932226,1127.4471206839999,,,,,,,,,,,,,,,,,,,,,,,,,,,,,,,,,,,,,,,,,,,,,,,,,,,,,,,,,,,,,,,,,,,,012122,1,2,1,3,0,1,2,0,46,2022_Jan_21_1115,listening_fmri,3.2.4,59.808474723349114,
6,parcelated_audio/42/42_4.ogg,,,,,,,,,0,0,0,0,0,6,6,6,0,0,0,0,,,,,,,,,0,0,0,0,0,3,3,3,,,,,,,,,,,,,,,,,,,,,,,,,,,,,,,,,,,,,,,,,,,,,,,,1127.448207769,1141.1671913659993,,,,,,,,,,,,,,,,,,,,,,,,,,,,,,,,,,,,,,,,,,,,,,,,,,,,,,,,,,,,,,,,,,,,012122,1,2,1,3,0,1,2,0,46,2022_Jan_21_1115,listening_fmri,3.2.4,59.808474723349114,
6,parcelated_audio/42/42_5.ogg,,,,,,,,,0,0,0,0,0,6,6,6,0,0,0,0,,,,,,,,,0,0,0,0,0,4,4,4,,,,,,,,,,,,,,,,,,,,,,,,,,,,,,,,,,,,,,,,,,,,,,,,1141.1675677219991,1152.6285343529998,,,,,,,,,,,,,,,,,,,,,,,,,,,,,,,,,,,,,,,,,,,,,,,,,,,,,,,,,,,,,,,,,,,,012122,1,2,1,3,0,1,2,0,46,2022_Jan_21_1115,listening_fmri,3.2.4,59.808474723349114,
6,parcelated_audio/42/42_6.ogg,,,,,,,,,0,0,0,0,0,6,6,6,0,0,0,0,,,,,,,,,0,0,0,0,0,5,5,5,,,,,,,,,,,,,,,,,,,,,,,,,,,,,,,,,,,,,,,,,,,,,,,,1152.628883634,1159.1166427949993,,,,,,,,,,,,,,,,,,,,,,,,,,,,,,,,,,,,,,,,,,,,,,,,,,,,,,,,,,,,,,,,,,,,012122,1,2,1,3,0,1,2,0,46,2022_Jan_21_1115,listening_fmri,3.2.4,59.808474723349114,
6,parcelated_audio/42/42_7.ogg,,,,,,,,,0,0,0,0,0,6,6,6,0,0,0,0,,,,,,,,,0,0,0,0,0,6,6,6,,,,,,,,,,,,,,,,,,,,,,,,,,,,,,,,,,,,,,,,,,,,,,,,1159.117155385,1164.300567069,,,,,,,,,,,,,,,,,,,,,,,,,,,,,,,,,,,,,,,,,,,,,,,,,,,,,,,,,,,,,,,,,,,,012122,1,2,1,3,0,1,2,0,46,2022_Jan_21_1115,listening_fmri,3.2.4,59.808474723349114,
6,parcelated_audio/42/42_8.ogg,,,,,,,,,0,0,0,0,0,6,6,6,0,0,0,0,,,,,,,,,0,0,0,0,0,7,7,7,,,,,,,,,,,,,,,,,,,,,,,,,,,,,,,,,,,,,,,,,,,,,,,,1164.3010929319998,1167.4632481939998,,,,,,,,,,,,,,,,,,,,,,,,,,,,,,,,,,,,,,,,,,,,,,,,,,,,,,,,,,,,,,,,,,,,012122,1,2,1,3,0,1,2,0,46,2022_Jan_21_1115,listening_fmri,3.2.4,59.808474723349114,
6,parcelated_audio/42/42_9.ogg,,,,,,,,,0,0,0,0,0,6,6,6,0,0,0,0,,,,,,,,,0,0,0,0,0,8,8,8,,,,,,,,,,,,,,,,,,,,,,,,,,,,,,,,,,,,,,,,,,,,,,,,1167.4636244669991,1176.0092208769993,,,,,,,,,,,,,,,,,,,,,,,,,,,,,,,,,,,,,,,,,,,,,,,,,,,,,,,,,,,,,,,,,,,,012122,1,2,1,3,0,1,2,0,46,2022_Jan_21_1115,listening_fmri,3.2.4,59.808474723349114,
6,parcelated_audio/42/42_10.ogg,,,,,,,,,0,0,0,0,0,6,6,6,0,0,0,0,,,,,,,,,0,0,0,0,0,9,9,9,,,,,,,,,,,,,,,,,,,,,,,,,,,,,,,,,,,,,,,,,,,,,,,,1176.0095883469994,1180.3377568689993,,,,,,,,,,,,,,,,,,,,,,,,,,,,,,,,,,,,,,,,,,,,,,,,,,,,,,,,,,,,,,,,,,,,012122,1,2,1,3,0,1,2,0,46,2022_Jan_21_1115,listening_fmri,3.2.4,59.808474723349114,
6,parcelated_audio/42/42_11.ogg,,,,,,,,,0,0,0,0,0,6,6,6,0,0,0,0,,,,,,,,,0,0,0,0,0,10,10,10,,,,,,,,,,,,,,,,,,,,,,,,,,,,,,,,,,,,,,,,,,,,,,,,1180.3381182819994,1185.318052267,,,,,,,,,,,,,,,,,,,,,,,,,,,,,,,,,,,,,,,,,,,,,,,,,,,,,,,,,,,,,,,,,,,,012122,1,2,1,3,0,1,2,0,46,2022_Jan_21_1115,listening_fmri,3.2.4,59.808474723349114,
6,parcelated_audio/42/42_12.ogg,,,,,,,,,0,0,0,0,0,6,6,6,0,0,0,0,,,,,,,,,0,0,0,0,0,11,11,11,,,,,,,,,,,,,,,,,,,,,,,,,,,,,,,,,,,,,,,,,,,,,,,,1185.3185819719993,1191.2785315689998,,,,,,,,,,,,,,,,,,,,,,,,,,,,,,,,,,,,,,,,,,,,,,,,,,,,,,,,,,,,,,,,,,,,012122,1,2,1,3,0,1,2,0,46,2022_Jan_21_1115,listening_fmri,3.2.4,59.808474723349114,
6,parcelated_audio/42/42_13.ogg,,,,,,,,,0,0,0,0,0,6,6,6,0,0,0,0,,,,,,,,,0,0,0,0,0,12,12,12,,,,,,,,,,,,,,,,,,,,,,,,,,,,,,,,,,,,,,,,,,,,,,,,1191.2788902419998,1198.4334751049992,,,,,,,,,,,,,,,,,,,,,,,,,,,,,,,,,,,,,,,,,,,,,,,,,,,,,,,,,,,,,,,,,,,,012122,1,2,1,3,0,1,2,0,46,2022_Jan_21_1115,listening_fmri,3.2.4,59.808474723349114,
6,parcelated_audio/42/42_14.ogg,,,,,,,,,0,0,0,0,0,6,6,6,0,0,0,0,,,,,,,,,0,0,0,0,0,13,13,13,,,,,,,,,,,,,,,,,,,,,,,,,,,,,,,,,,,,,,,,,,,,,,,,1198.4342426699995,1203.1496068449997,,,,,,,,,,,,,,,,,,,,,,,,,,,,,,,,,,,,,,,,,,,,,,,,,,,,,,,,,,,,,,,,,,,,012122,1,2,1,3,0,1,2,0,46,2022_Jan_21_1115,listening_fmri,3.2.4,59.808474723349114,
6,parcelated_audio/42/42_15.ogg,,,,,,,,,0,0,0,0,0,6,6,6,0,0,0,0,,,,,,,,,0,0,0,0,0,14,14,14,,,,,,,,,,,,,,,,,,,,,,,,,,,,,,,,,,,,,,,,,,,,,,,,1203.1499687629994,1209.0015840399992,,,,,,,,,,,,,,,,,,,,,,,,,,,,,,,,,,,,,,,,,,,,,,,,,,,,,,,,,,,,,,,,,,,,012122,1,2,1,3,0,1,2,0,46,2022_Jan_21_1115,listening_fmri,3.2.4,59.808474723349114,
6,parcelated_audio/42/42_16.ogg,,,,,,,,,0,0,0,0,0,6,6,6,0,0,0,0,,,,,,,,,0,0,0,0,0,15,15,15,,,,,,,,,,,,,,,,,,,,,,,,,,,,,,,,,,,,,,,,,,,,,,,,1209.0019410779996,1214.5678912389994,,,,,,,,,,,,,,,,,,,,,,,,,,,,,,,,,,,,,,,,,,,,,,,,,,,,,,,,,,,,,,,,,,,,012122,1,2,1,3,0,1,2,0,46,2022_Jan_21_1115,listening_fmri,3.2.4,59.808474723349114,
6,parcelated_audio/42/42_17.ogg,,,,,,,,,0,0,0,0,0,6,6,6,0,0,0,0,,,,,,,,,0,0,0,0,0,16,16,16,,,,,,,,,,,,,,,,,,,,,,,,,,,,,,,,,,,,,,,,,,,,,,,,1214.5682032549994,1224.2445703829999,,,,,,,,,,,,,,,,,,,,,,,,,,,,,,,,,,,,,,,,,,,,,,,,,,,,,,,,,,,,,,,,,,,,012122,1,2,1,3,0,1,2,0,46,2022_Jan_21_1115,listening_fmri,3.2.4,59.808474723349114,
6,parcelated_audio/42/42_18.ogg,,,,,,,,,0,0,0,0,0,6,6,6,0,0,0,0,,,,,,,,,0,0,0,0,0,17,17,17,,,,,,,,,,,,,,,,,,,,,,,,,,,,,,,,,,,,,,,,,,,,,,,,1224.2448513699992,1229.6718921039992,,,,,,,,,,,,,,,,,,,,,,,,,,,,,,,,,,,,,,,,,,,,,,,,,,,,,,,,,,,,,,,,,,,,012122,1,2,1,3,0,1,2,0,46,2022_Jan_21_1115,listening_fmri,3.2.4,59.808474723349114,
6,parcelated_audio/42/42_19.ogg,,,,,,,,,0,0,0,0,0,6,6,6,0,0,0,0,,,,,,,,,0,0,0,0,0,18,18,18,,,,,,,,,,,,,,,,,,,,,,,,,,,,,,,,,,,,,,,,,,,,,,,,1229.672206155,1238.81362111,,,,,,,,,,,,,,,,,,,,,,,,,,,,,,,,,,,,,,,,,,,,,,,,,,,,,,,,,,,,,,,,,,,,012122,1,2,1,3,0,1,2,0,46,2022_Jan_21_1115,listening_fmri,3.2.4,59.808474723349114,
6,parcelated_audio/42/42_20.ogg,,,,,,,,,0,0,0,0,0,6,6,6,0,0,0,0,,,,,,,,,0,0,0,0,0,19,19,19,,,,,,,,,,,,,,,,,,,,,,,,,,,,,,,,,,,,,,,,,,,,,,,,1238.8141278119992,1243.4700734809994,,,,,,,,,,,,,,,,,,,,,,,,,,,,,,,,,,,,,,,,,,,,,,,,,,,,,,,,,,,,,,,,,,,,012122,1,2,1,3,0,1,2,0,46,2022_Jan_21_1115,listening_fmri,3.2.4,59.808474723349114,
6,parcelated_audio/42/42_21.ogg,,,,,,,,,0,0,0,0,0,6,6,6,0,0,0,0,,,,,,,,,0,0,0,0,0,20,20,20,,,,,,,,,,,,,,,,,,,,,,,,,,,,,,,,,,,,,,,,,,,,,,,,1243.4707777149997,1253.3753639739998,,,,,,,,,,,,,,,,,,,,,,,,,,,,,,,,,,,,,,,,,,,,,,,,,,,,,,,,,,,,,,,,,,,,012122,1,2,1,3,0,1,2,0,46,2022_Jan_21_1115,listening_fmri,3.2.4,59.808474723349114,
6,parcelated_audio/42/42_22.ogg,,,,,,,,,0,0,0,0,0,6,6,6,0,0,0,0,,,,,,,,,0,0,0,0,0,21,21,21,,,,,,,,,,,,,,,,,,,,,,,,,,,,,,,,,,,,,,,,,,,,,,,,1253.3757195789995,1258.1352262859991,,,,,,,,,,,,,,,,,,,,,,,,,,,,,,,,,,,,,,,,,,,,,,,,,,,,,,,,,,,,,,,,,,,,012122,1,2,1,3,0,1,2,0,46,2022_Jan_21_1115,listening_fmri,3.2.4,59.808474723349114,
6,parcelated_audio/42/42_23.ogg,,,,,,,,,0,0,0,0,0,6,6,6,0,0,0,0,,,,,,,,,0,0,0,0,0,22,22,22,,,,,,,,,,,,,,,,,,,,,,,,,,,,,,,,,,,,,,,,,,,,,,,,1258.1357550589992,1264.3566474639993,,,,,,,,,,,,,,,,,,,,,,,,,,,,,,,,,,,,,,,,,,,,,,,,,,,,,,,,,,,,,,,,,,,,012122,1,2,1,3,0,1,2,0,46,2022_Jan_21_1115,listening_fmri,3.2.4,59.808474723349114,
6,parcelated_audio/42/42_24.ogg,,,,,,,,,0,0,0,0,0,6,6,6,0,0,0,0,,,,,,,,,0,0,0,0,0,23,23,23,,,,,,,,,,,,,,,,,,,,,,,,,,,,,,,,,,,,,,,,,,,,,,,,1264.3571346549998,1272.9070594059995,,,,,,,,,,,,,,,,,,,,,,,,,,,,,,,,,,,,,,,,,,,,,,,,,,,,,,,,,,,,,,,,,,,,012122,1,2,1,3,0,1,2,0,46,2022_Jan_21_1115,listening_fmri,3.2.4,59.808474723349114,
6,parcelated_audio/42/42_25.ogg,,,,,,,,,0,0,0,0,0,6,6,6,0,0,0,0,,,,,,,,,0,0,0,0,0,24,24,24,,,,,,,,,,,,,,,,,,,,,,,,,,,,,,,,,,,,,,,,,,,,,,,,1272.9074774879991,1279.132259602,,,,,,,,,,,,,,,,,,,,,,,,,,,,,,,,,,,,,,,,,,,,,,,,,,,,,,,,,,,,,,,,,,,,012122,1,2,1,3,0,1,2,0,46,2022_Jan_21_1115,listening_fmri,3.2.4,59.808474723349114,
6,parcelated_audio/42/42_26.ogg,,,,,,,,,0,0,0,0,0,6,6,6,0,0,0,0,,,,,,,,,0,0,0,0,0,25,25,25,,,,,,,,,,,,,,,,,,,,,,,,,,,,,,,,,,,,,,,,,,,,,,,,1279.1326144429995,1285.0208031739994,,,,,,,,,,,,,,,,,,,,,,,,,,,,,,,,,,,,,,,,,,,,,,,,,,,,,,,,,,,,,,,,,,,,012122,1,2,1,3,0,1,2,0,46,2022_Jan_21_1115,listening_fmri,3.2.4,59.808474723349114,
6,parcelated_audio/42/42_27.ogg,,,,,,,,,0,0,0,0,0,6,6,6,0,0,0,0,,,,,,,,,0,0,0,0,0,26,26,26,,,,,,,,,,,,,,,,,,,,,,,,,,,,,,,,,,,,,,,,,,,,,,,,1285.0211603069993,1292.6902431149992,,,,,,,,,,,,,,,,,,,,,,,,,,,,,,,,,,,,,,,,,,,,,,,,,,,,,,,,,,,,,,,,,,,,012122,1,2,1,3,0,1,2,0,46,2022_Jan_21_1115,listening_fmri,3.2.4,59.808474723349114,
6,parcelated_audio/42/42_28.ogg,,,,,,,,,0,0,0,0,0,6,6,6,0,0,0,0,,,,,,,,,0,0,0,0,0,27,27,27,,,,,,,,,,,,,,,,,,,,,,,,,,,,,,,,,,,,,,,,,,,,,,,,1292.6912214629992,1298.3475257829996,,,,,,,,,,,,,,,,,,,,,,,,,,,,,,,,,,,,,,,,,,,,,,,,,,,,,,,,,,,,,,,,,,,,012122,1,2,1,3,0,1,2,0,46,2022_Jan_21_1115,listening_fmri,3.2.4,59.808474723349114,
6,parcelated_audio/42/42_29.ogg,,,,,,,,,0,0,0,0,0,6,6,6,0,0,0,0,,,,,,,,,0,0,0,0,0,28,28,28,,,,,,,,,,,,,,,,,,,,,,,,,,,,,,,,,,,,,,,,,,,,,,,,1298.3478894169994,1305.2365740339992,,,,,,,,,,,,,,,,,,,,,,,,,,,,,,,,,,,,,,,,,,,,,,,,,,,,,,,,,,,,,,,,,,,,012122,1,2,1,3,0,1,2,0,46,2022_Jan_21_1115,listening_fmri,3.2.4,59.808474723349114,
6,parcelated_audio/42/42_30.ogg,,,,,,,,,0,0,0,0,0,6,6,6,0,0,0,0,,,,,,,,,0,0,0,0,0,29,29,29,,,,,,,,,,,,,,,,,,,,,,,,,,,,,,,,,,,,,,,,,,,,,,,,1305.2369344919998,1316.1459325589994,,,,,,,,,,,,,,,,,,,,,,,,,,,,,,,,,,,,,,,,,,,,,,,,,,,,,,,,,,,,,,,,,,,,012122,1,2,1,3,0,1,2,0,46,2022_Jan_21_1115,listening_fmri,3.2.4,59.808474723349114,
6,parcelated_audio/42/42_31.ogg,,,,,,,,,0,0,0,0,0,6,6,6,0,0,0,0,,,,,,,,,0,0,0,0,0,30,30,30,,,,,,,,,,,,,,,,,,,,,,,,,,,,,,,,,,,,,,,,,,,,,,,,1316.1463503019995,1322.3325047509998,,,,,,,,,,,,,,,,,,,,,,,,,,,,,,,,,,,,,,,,,,,,,,,,,,,,,,,,,,,,,,,,,,,,012122,1,2,1,3,0,1,2,0,46,2022_Jan_21_1115,listening_fmri,3.2.4,59.808474723349114,
6,parcelated_audio/42/42_32.ogg,,,,,,,,,0,0,0,0,0,6,6,6,0,0,0,0,,,,,,,,,0,0,0,0,0,31,31,31,,,,,,,,,,,,,,,,,,,,,,,,,,,,,,,,,,,,,,,,,,,,,,,,1322.3328773579997,1330.4813991759993,,,,,,,,,,,,,,,,,,,,,,,,,,,,,,,,,,,,,,,,,,,,,,,,,,,,,,,,,,,,,,,,,,,,012122,1,2,1,3,0,1,2,0,46,2022_Jan_21_1115,listening_fmri,3.2.4,59.808474723349114,
6,parcelated_audio/42/42_33.ogg,,,,,,,,,0,0,0,0,0,6,6,6,0,0,0,0,,,,,,,,,0,0,0,0,0,32,32,32,,,,,,,,,,,,,,,,,,,,,,,,,,,,,,,,,,,,,,,,,,,,,,,,1330.4817616439996,1337.5400408829992,,,,,,,,,,,,,,,,,,,,,,,,,,,,,,,,,,,,,,,,,,,,,,,,,,,,,,,,,,,,,,,,,,,,012122,1,2,1,3,0,1,2,0,46,2022_Jan_21_1115,listening_fmri,3.2.4,59.808474723349114,
6,parcelated_audio/42/42_34.ogg,,,,,,,,,0,0,0,0,0,6,6,6,0,0,0,0,,,,,,,,,0,0,0,0,0,33,33,33,,,,,,,,,,,,,,,,,,,,,,,,,,,,,,,,,,,,,,,,,,,,,,,,1337.5403987559994,1348.2487384479991,,,,,,,,,,,,,,,,,,,,,,,,,,,,,,,,,,,,,,,,,,,,,,,,,,,,,,,,,,,,,,,,,,,,012122,1,2,1,3,0,1,2,0,46,2022_Jan_21_1115,listening_fmri,3.2.4,59.808474723349114,
6,parcelated_audio/42/42_35.ogg,,,,,,,,,0,0,0,0,0,6,6,6,0,0,0,0,,,,,,,,,0,0,0,0,0,34,34,34,,,,,,,,,,,,,,,,,,,,,,,,,,,,,,,,,,,,,,,,,,,,,,,,1348.2491035929997,1358.0083117129998,,,,,,,,,,,,,,,,,,,,,,,,,,,,,,,,,,,,,,,,,,,,,,,,,,,,,,,,,,,,,,,,,,,,012122,1,2,1,3,0,1,2,0,46,2022_Jan_21_1115,listening_fmri,3.2.4,59.808474723349114,
6,,,,,,,,,,0,0,0,0,0,6,6,6,0,0,0,0,,,,,,,,,0,0,0,0,,,,,,,,,,,,,,,,,,,,,,,,,,,,,,,,,,,,,,,,,,,,,,,,,,,,,,,,,,,,,,,,,,,,,,,,,,,,,,,,,,,,,,,,,,,,,,,,,,,,,,,,,,,,,,,,,,,,,,,,,012122,1,2,1,3,0,1,2,0,46,2022_Jan_21_1115,listening_fmri,3.2.4,59.808474723349114,
6,,,,,,,,,,0,0,0,0,0,6,6,6,0,0,0,0,,,,,,,,,,,,,,,,,,,,,,,,,,,,,,,,,,,,,,,,,,1358.0087997909995,1364.0023310769993,1409.1838771880002,None,,,,,,,,,,,,,,,,,,,,,1415.18711257,None,1415.18711257,None,,,,,,,,,,,,,,,,,,,,,,,,,,,,,,,,,,,,,,,,,,,,,,,,,,,,,,,,,,,,,,,,012122,1,2,1,3,0,1,2,0,46,2022_Jan_21_1115,listening_fmri,3.2.4,59.808474723349114,
6,,,,,,,,,,0,0,0,0,0,6,6,6,,,,,,,,,,,,,,,,,,,,,,,,,,,,,,,,,,,,,,,,,,,,,,,,,,,,,,,,,,,,,,,,,,,,,,,,,,,,,,,,,,,,,,,,,,,,,,,,,,,,,,,,,,,,,,,,,,,,,,,,,,,,,,,,,,,,,,,,,012122,1,2,1,3,0,1,2,0,46,2022_Jan_21_1115,listening_fmri,3.2.4,59.808474723349114,
7,,,,,,,,,,0,0,0,0,0,7,7,7,0,0,0,0,0,0,0,0,,,,,,,,,,,,,,,,,0,0,0,0,,,,,,,,,,,,,,,,,,,,,,1416.2159590270003,None,1416.2159590270003,None,2,1.1332429300000513,1416.2159590270003,None,1416.2159590270003,None,,,,,,,,,,,,,,,1417.3702811900002,None,7,0.9828764009998849,1417.3702811900002,None,1417.3702811900002,None,1418.3873763990005,None,1418.3873763990005,None,1418.3873763990005,None,8,1.5028988550002396,1418.3873763990005,None,1419.92072164,None,6,1.6265492329994231,1419.92072164,None,1419.92072164,None,1421.6508218120007,None,1421.6508218120007,None,1421.6508218120007,None,1421.6508218120007,None,1421.6508218120007,None,1421.6508218120007,None,1421.6508218120007,None,None,1421.6508218120007,None,,,,,,,,,,,,,,,,,,,,,012122,1,2,1,3,0,1,2,0,46,2022_Jan_21_1115,listening_fmri,3.2.4,59.808474723349114,
7,,,,,,,,,,0,0,0,0,0,7,7,7,0,0,0,0,0,0,0,0,,,,,,,,,,,,,,,,,,,,,,,,,,,,,,,,,,,,,,,,,,,,,,,,,,,,,,,,,,,,,,,,,,,,,,,,,,,,,,,,,,,,,,,,,,,,,,,,,,,,,,,,,,,,,1434.1334229220001,None,7,1.4798494429996936,1434.1334229220001,None,1434.1334229220001,None,1435.6539492319998,None,1435.6539492319998,None,1435.6539492319998,None,3,0.8093591039996682,1435.6539492319998,None,,,012122,1,2,1,3,0,1,2,0,46,2022_Jan_21_1115,listening_fmri,3.2.4,59.808474723349114,
7,parcelated_audio/44/44_1.ogg,,,,,,,,,0,0,0,0,0,7,7,7,0,0,0,0,,,,,,,,,0,0,0,0,0,0,0,0,,,,,,,,,,,,,,,,,,,,,,,,,,,,,,,,,,,,,,,,1436.487738326,None,7,2.446558945999641,1436.487738326,None,1387.785260836,1390.7855287029997,1390.7909781429998,1398.6995131469994,,,,,,,,,,,,,,,,,,,,,,,,,,,,,,,,,,,,,,,,,,,,,,,,,,,,,,,,,,,,,,,,,,,,012122,1,2,1,3,0,1,2,0,46,2022_Jan_21_1115,listening_fmri,3.2.4,59.808474723349114,
7,parcelated_audio/44/44_2.ogg,,,,,,,,,0,0,0,0,0,7,7,7,0,0,0,0,,,,,,,,,0,0,0,0,0,1,1,1,,,,,,,,,,,,,,,,,,,,,,,,,,,,,,,,,,,,,,,,,,,,,,,,1398.6998799949997,1407.8188949159994,,,,,,,,,,,,,,,,,,,,,,,,,,,,,,,,,,,,,,,,,,,,,,,,,,,,,,,,,,,,,,,,,,,,012122,1,2,1,3,0,1,2,0,46,2022_Jan_21_1115,listening_fmri,3.2.4,59.808474723349114,
7,parcelated_audio/44/44_3.ogg,,,,,,,,,0,0,0,0,0,7,7,7,0,0,0,0,,,,,,,,,0,0,0,0,0,2,2,2,,,,,,,,,,,,,,,,,,,,,,,,,,,,,,,,,,,,,,,,,,,,,,,,1407.819281219,1413.266228132,,,,,,,,,,,,,,,,,,,,,,,,,,,,,,,,,,,,,,,,,,,,,,,,,,,,,,,,,,,,,,,,,,,,012122,1,2,1,3,0,1,2,0,46,2022_Jan_21_1115,listening_fmri,3.2.4,59.808474723349114,
7,parcelated_audio/44/44_4.ogg,,,,,,,,,0,0,0,0,0,7,7,7,0,0,0,0,,,,,,,,,0,0,0,0,0,3,3,3,,,,,,,,,,,,,,,,,,,,,,,,,,,,,,,,,,,,,,,,,,,,,,,,1413.2665754179998,1418.3398238339996,,,,,,,,,,,,,,,,,,,,,,,,,,,,,,,,,,,,,,,,,,,,,,,,,,,,,,,,,,,,,,,,,,,,012122,1,2,1,3,0,1,2,0,46,2022_Jan_21_1115,listening_fmri,3.2.4,59.808474723349114,
7,parcelated_audio/44/44_5.ogg,,,,,,,,,0,0,0,0,0,7,7,7,0,0,0,0,,,,,,,,,0,0,0,0,0,4,4,4,,,,,,,,,,,,,,,,,,,,,,,,,,,,,,,,,,,,,,,,,,,,,,,,1418.3401830899993,1424.5726034999998,,,,,,,,,,,,,,,,,,,,,,,,,,,,,,,,,,,,,,,,,,,,,,,,,,,,,,,,,,,,,,,,,,,,012122,1,2,1,3,0,1,2,0,46,2022_Jan_21_1115,listening_fmri,3.2.4,59.808474723349114,
7,parcelated_audio/44/44_6.ogg,,,,,,,,,0,0,0,0,0,7,7,7,0,0,0,0,,,,,,,,,0,0,0,0,0,5,5,5,,,,,,,,,,,,,,,,,,,,,,,,,,,,,,,,,,,,,,,,,,,,,,,,1424.572962489,1431.5254328819992,,,,,,,,,,,,,,,,,,,,,,,,,,,,,,,,,,,,,,,,,,,,,,,,,,,,,,,,,,,,,,,,,,,,012122,1,2,1,3,0,1,2,0,46,2022_Jan_21_1115,listening_fmri,3.2.4,59.808474723349114,
7,parcelated_audio/44/44_7.ogg,,,,,,,,,0,0,0,0,0,7,7,7,0,0,0,0,,,,,,,,,0,0,0,0,0,6,6,6,,,,,,,,,,,,,,,,,,,,,,,,,,,,,,,,,,,,,,,,,,,,,,,,1431.5257764169992,1437.5527543979997,,,,,,,,,,,,,,,,,,,,,,,,,,,,,,,,,,,,,,,,,,,,,,,,,,,,,,,,,,,,,,,,,,,,012122,1,2,1,3,0,1,2,0,46,2022_Jan_21_1115,listening_fmri,3.2.4,59.808474723349114,
7,parcelated_audio/44/44_8.ogg,,,,,,,,,0,0,0,0,0,7,7,7,0,0,0,0,,,,,,,,,0,0,0,0,0,7,7,7,,,,,,,,,,,,,,,,,,,,,,,,,,,,,,,,,,,,,,,,,,,,,,,,1437.553115582,1441.8262559249997,,,,,,,,,,,,,,,,,,,,,,,,,,,,,,,,,,,,,,,,,,,,,,,,,,,,,,,,,,,,,,,,,,,,012122,1,2,1,3,0,1,2,0,46,2022_Jan_21_1115,listening_fmri,3.2.4,59.808474723349114,
7,parcelated_audio/44/44_9.ogg,,,,,,,,,0,0,0,0,0,7,7,7,0,0,0,0,,,,,,,,,0,0,0,0,0,8,8,8,,,,,,,,,,,,,,,,,,,,,,,,,,,,,,,,,,,,,,,,,,,,,,,,1441.826613665,1445.5354381469997,,,,,,,,,,,,,,,,,,,,,,,,,,,,,,,,,,,,,,,,,,,,,,,,,,,,,,,,,,,,,,,,,,,,012122,1,2,1,3,0,1,2,0,46,2022_Jan_21_1115,listening_fmri,3.2.4,59.808474723349114,
7,parcelated_audio/44/44_10.ogg,,,,,,,,,0,0,0,0,0,7,7,7,0,0,0,0,,,,,,,,,0,0,0,0,0,9,9,9,,,,,,,,,,,,,,,,,,,,,,,,,,,,,,,,,,,,,,,,,,,,,,,,1445.5359538469993,1455.6580343739997,,,,,,,,,,,,,,,,,,,,,,,,,,,,,,,,,,,,,,,,,,,,,,,,,,,,,,,,,,,,,,,,,,,,012122,1,2,1,3,0,1,2,0,46,2022_Jan_21_1115,listening_fmri,3.2.4,59.808474723349114,
7,parcelated_audio/44/44_11.ogg,,,,,,,,,0,0,0,0,0,7,7,7,0,0,0,0,,,,,,,,,0,0,0,0,0,10,10,10,,,,,,,,,,,,,,,,,,,,,,,,,,,,,,,,,,,,,,,,,,,,,,,,1455.6588248909993,1459.2112035999999,,,,,,,,,,,,,,,,,,,,,,,,,,,,,,,,,,,,,,,,,,,,,,,,,,,,,,,,,,,,,,,,,,,,012122,1,2,1,3,0,1,2,0,46,2022_Jan_21_1115,listening_fmri,3.2.4,59.808474723349114,
7,parcelated_audio/44/44_12.ogg,,,,,,,,,0,0,0,0,0,7,7,7,0,0,0,0,,,,,,,,,0,0,0,0,0,11,11,11,,,,,,,,,,,,,,,,,,,,,,,,,,,,,,,,,,,,,,,,,,,,,,,,1459.2115636159997,1469.8046323809995,,,,,,,,,,,,,,,,,,,,,,,,,,,,,,,,,,,,,,,,,,,,,,,,,,,,,,,,,,,,,,,,,,,,012122,1,2,1,3,0,1,2,0,46,2022_Jan_21_1115,listening_fmri,3.2.4,59.808474723349114,
7,parcelated_audio/44/44_13.ogg,,,,,,,,,0,0,0,0,0,7,7,7,0,0,0,0,,,,,,,,,0,0,0,0,0,12,12,12,,,,,,,,,,,,,,,,,,,,,,,,,,,,,,,,,,,,,,,,,,,,,,,,1469.8049927229995,1476.9616458659993,,,,,,,,,,,,,,,,,,,,,,,,,,,,,,,,,,,,,,,,,,,,,,,,,,,,,,,,,,,,,,,,,,,,012122,1,2,1,3,0,1,2,0,46,2022_Jan_21_1115,listening_fmri,3.2.4,59.808474723349114,
7,parcelated_audio/44/44_14.ogg,,,,,,,,,0,0,0,0,0,7,7,7,0,0,0,0,,,,,,,,,0,0,0,0,0,13,13,13,,,,,,,,,,,,,,,,,,,,,,,,,,,,,,,,,,,,,,,,,,,,,,,,1476.9620071539994,1483.2676045459993,,,,,,,,,,,,,,,,,,,,,,,,,,,,,,,,,,,,,,,,,,,,,,,,,,,,,,,,,,,,,,,,,,,,012122,1,2,1,3,0,1,2,0,46,2022_Jan_21_1115,listening_fmri,3.2.4,59.808474723349114,
7,parcelated_audio/44/44_15.ogg,,,,,,,,,0,0,0,0,0,7,7,7,0,0,0,0,,,,,,,,,0,0,0,0,0,14,14,14,,,,,,,,,,,,,,,,,,,,,,,,,,,,,,,,,,,,,,,,,,,,,,,,1483.267970041,1487.3751138499993,,,,,,,,,,,,,,,,,,,,,,,,,,,,,,,,,,,,,,,,,,,,,,,,,,,,,,,,,,,,,,,,,,,,012122,1,2,1,3,0,1,2,0,46,2022_Jan_21_1115,listening_fmri,3.2.4,59.808474723349114,
7,parcelated_audio/44/44_16.ogg,,,,,,,,,0,0,0,0,0,7,7,7,0,0,0,0,,,,,,,,,0,0,0,0,0,15,15,15,,,,,,,,,,,,,,,,,,,,,,,,,,,,,,,,,,,,,,,,,,,,,,,,1487.375540999,1491.3990346639994,,,,,,,,,,,,,,,,,,,,,,,,,,,,,,,,,,,,,,,,,,,,,,,,,,,,,,,,,,,,,,,,,,,,012122,1,2,1,3,0,1,2,0,46,2022_Jan_21_1115,listening_fmri,3.2.4,59.808474723349114,
7,parcelated_audio/44/44_17.ogg,,,,,,,,,0,0,0,0,0,7,7,7,0,0,0,0,,,,,,,,,0,0,0,0,0,16,16,16,,,,,,,,,,,,,,,,,,,,,,,,,,,,,,,,,,,,,,,,,,,,,,,,1491.3993919899995,1499.8806399839996,,,,,,,,,,,,,,,,,,,,,,,,,,,,,,,,,,,,,,,,,,,,,,,,,,,,,,,,,,,,,,,,,,,,012122,1,2,1,3,0,1,2,0,46,2022_Jan_21_1115,listening_fmri,3.2.4,59.808474723349114,
7,parcelated_audio/44/44_18.ogg,,,,,,,,,0,0,0,0,0,7,7,7,0,0,0,0,,,,,,,,,0,0,0,0,0,17,17,17,,,,,,,,,,,,,,,,,,,,,,,,,,,,,,,,,,,,,,,,,,,,,,,,1499.880980465,1509.7336534349997,,,,,,,,,,,,,,,,,,,,,,,,,,,,,,,,,,,,,,,,,,,,,,,,,,,,,,,,,,,,,,,,,,,,012122,1,2,1,3,0,1,2,0,46,2022_Jan_21_1115,listening_fmri,3.2.4,59.808474723349114,
7,parcelated_audio/44/44_19.ogg,,,,,,,,,0,0,0,0,0,7,7,7,0,0,0,0,,,,,,,,,0,0,0,0,0,18,18,18,,,,,,,,,,,,,,,,,,,,,,,,,,,,,,,,,,,,,,,,,,,,,,,,1509.734069522,1520.7176843999996,,,,,,,,,,,,,,,,,,,,,,,,,,,,,,,,,,,,,,,,,,,,,,,,,,,,,,,,,,,,,,,,,,,,012122,1,2,1,3,0,1,2,0,46,2022_Jan_21_1115,listening_fmri,3.2.4,59.808474723349114,
7,parcelated_audio/44/44_20.ogg,,,,,,,,,0,0,0,0,0,7,7,7,0,0,0,0,,,,,,,,,0,0,0,0,0,19,19,19,,,,,,,,,,,,,,,,,,,,,,,,,,,,,,,,,,,,,,,,,,,,,,,,1520.7180489699995,1528.9352622179995,,,,,,,,,,,,,,,,,,,,,,,,,,,,,,,,,,,,,,,,,,,,,,,,,,,,,,,,,,,,,,,,,,,,012122,1,2,1,3,0,1,2,0,46,2022_Jan_21_1115,listening_fmri,3.2.4,59.808474723349114,
7,parcelated_audio/44/44_21.ogg,,,,,,,,,0,0,0,0,0,7,7,7,0,0,0,0,,,,,,,,,0,0,0,0,0,20,20,20,,,,,,,,,,,,,,,,,,,,,,,,,,,,,,,,,,,,,,,,,,,,,,,,1528.9360700299994,1537.8419949709996,,,,,,,,,,,,,,,,,,,,,,,,,,,,,,,,,,,,,,,,,,,,,,,,,,,,,,,,,,,,,,,,,,,,012122,1,2,1,3,0,1,2,0,46,2022_Jan_21_1115,listening_fmri,3.2.4,59.808474723349114,
7,parcelated_audio/44/44_22.ogg,,,,,,,,,0,0,0,0,0,7,7,7,0,0,0,0,,,,,,,,,0,0,0,0,0,21,21,21,,,,,,,,,,,,,,,,,,,,,,,,,,,,,,,,,,,,,,,,,,,,,,,,1537.842358551,1542.7726260939999,,,,,,,,,,,,,,,,,,,,,,,,,,,,,,,,,,,,,,,,,,,,,,,,,,,,,,,,,,,,,,,,,,,,012122,1,2,1,3,0,1,2,0,46,2022_Jan_21_1115,listening_fmri,3.2.4,59.808474723349114,
7,parcelated_audio/44/44_23.ogg,,,,,,,,,0,0,0,0,0,7,7,7,0,0,0,0,,,,,,,,,0,0,0,0,0,22,22,22,,,,,,,,,,,,,,,,,,,,,,,,,,,,,,,,,,,,,,,,,,,,,,,,1542.7729900189997,1549.4286729629994,,,,,,,,,,,,,,,,,,,,,,,,,,,,,,,,,,,,,,,,,,,,,,,,,,,,,,,,,,,,,,,,,,,,012122,1,2,1,3,0,1,2,0,46,2022_Jan_21_1115,listening_fmri,3.2.4,59.808474723349114,
7,parcelated_audio/44/44_24.ogg,,,,,,,,,0,0,0,0,0,7,7,7,0,0,0,0,,,,,,,,,0,0,0,0,0,23,23,23,,,,,,,,,,,,,,,,,,,,,,,,,,,,,,,,,,,,,,,,,,,,,,,,1549.4295200609995,1558.1708163189996,,,,,,,,,,,,,,,,,,,,,,,,,,,,,,,,,,,,,,,,,,,,,,,,,,,,,,,,,,,,,,,,,,,,012122,1,2,1,3,0,1,2,0,46,2022_Jan_21_1115,listening_fmri,3.2.4,59.808474723349114,
7,parcelated_audio/44/44_25.ogg,,,,,,,,,0,0,0,0,0,7,7,7,0,0,0,0,,,,,,,,,0,0,0,0,0,24,24,24,,,,,,,,,,,,,,,,,,,,,,,,,,,,,,,,,,,,,,,,,,,,,,,,1558.1711779879997,1564.4786877829993,,,,,,,,,,,,,,,,,,,,,,,,,,,,,,,,,,,,,,,,,,,,,,,,,,,,,,,,,,,,,,,,,,,,012122,1,2,1,3,0,1,2,0,46,2022_Jan_21_1115,listening_fmri,3.2.4,59.808474723349114,
7,parcelated_audio/44/44_26.ogg,,,,,,,,,0,0,0,0,0,7,7,7,0,0,0,0,,,,,,,,,0,0,0,0,0,25,25,25,,,,,,,,,,,,,,,,,,,,,,,,,,,,,,,,,,,,,,,,,,,,,,,,1564.4791558759998,1569.3352862049996,,,,,,,,,,,,,,,,,,,,,,,,,,,,,,,,,,,,,,,,,,,,,,,,,,,,,,,,,,,,,,,,,,,,012122,1,2,1,3,0,1,2,0,46,2022_Jan_21_1115,listening_fmri,3.2.4,59.808474723349114,
7,parcelated_audio/44/44_27.ogg,,,,,,,,,0,0,0,0,0,7,7,7,0,0,0,0,,,,,,,,,0,0,0,0,0,26,26,26,,,,,,,,,,,,,,,,,,,,,,,,,,,,,,,,,,,,,,,,,,,,,,,,1569.3357676999995,1576.3186799839996,,,,,,,,,,,,,,,,,,,,,,,,,,,,,,,,,,,,,,,,,,,,,,,,,,,,,,,,,,,,,,,,,,,,012122,1,2,1,3,0,1,2,0,46,2022_Jan_21_1115,listening_fmri,3.2.4,59.808474723349114,
7,parcelated_audio/44/44_28.ogg,,,,,,,,,0,0,0,0,0,7,7,7,0,0,0,0,,,,,,,,,0,0,0,0,0,27,27,27,,,,,,,,,,,,,,,,,,,,,,,,,,,,,,,,,,,,,,,,,,,,,,,,1576.3190468179992,1587.599441757,,,,,,,,,,,,,,,,,,,,,,,,,,,,,,,,,,,,,,,,,,,,,,,,,,,,,,,,,,,,,,,,,,,,012122,1,2,1,3,0,1,2,0,46,2022_Jan_21_1115,listening_fmri,3.2.4,59.808474723349114,
7,,,,,,,,,,0,0,0,0,0,7,7,7,0,0,0,0,,,,,,,,,0,0,0,0,,,,,,,,,,,,,,,,,,,,,,,,,,,,,,,,,,,,,,,,,,,,,,,,,,,,,,,,,,,,,,,,,,,,,,,,,,,,,,,,,,,,,,,,,,,,,,,,,,,,,,,,,,,,,,,,,,,,,,,,,012122,1,2,1,3,0,1,2,0,46,2022_Jan_21_1115,listening_fmri,3.2.4,59.808474723349114,
7,,,,,,,,,,0,0,0,0,0,7,7,7,0,0,0,0,,,,,,,,,,,,,,,,,,,,,,,,,,,,,,,,,,,,,,,,,,1587.5999627699994,1593.6023942729998,1638.7810123650006,None,,,,,,,,,,,,,,,,,,,,,1644.7874575280002,None,1644.7874575280002,None,,,,,,,,,,,,,,,,,,,,,,,,,,,,,,,,,,,,,,,,,,,,,,,,,,,,,,,,,,,,,,,,012122,1,2,1,3,0,1,2,0,46,2022_Jan_21_1115,listening_fmri,3.2.4,59.808474723349114,
7,,,,,,,,,,0,0,0,0,0,7,7,7,,,,,,,,,,,,,,,,,,,,,,,,,,,,,,,,,,,,,,,,,,,,,,,,,,,,,,,,,,,,,,,,,,,,,,,,,,,,,,,,,,,,,,,,,,,,,,,,,,,,,,,,,,,,,,,,,,,,,,,,,,,,,,,,,,,,,,,,,012122,1,2,1,3,0,1,2,0,46,2022_Jan_21_1115,listening_fmri,3.2.4,59.808474723349114,
,,,,,,,,,,0,0,0,0,,,,,,,,,,,,,,,,,,,,,,,,,,,,,,,,,,,,,,,,,,,,,,,,,,,,,,,,,,,,,,,,,,,,,,,,,,,,,,,,,,,,,,,,,,,,,,,,,,,,,,,,,,,,,,,,,,,,,,,,,,,,,,,,,,,,,,,,,,,,,012122,1,2,1,3,0,1,2,0,46,2022_Jan_21_1115,listening_fmri,3.2.4,59.808474723349114,
,,,,,,,,,,,,,,,,,,,,,,,,,,,,,,,,,,,,,,,,,,,,,,0,0,0,0,,,,,,,,,,,,,,,,,,,,,,,,,,,,,,,,,,,,,,,,,,,,,,,,,,,,,,,,,,,,,,,,,,,,,,,,,,,,,,,,,,,,,,,,,,,,,,,,,,,,,,,1645.8206305960002,None,012122,1,2,1,3,0,1,2,0,46,2022_Jan_21_1115,listening_fmri,3.2.4,59.808474723349114,
,,,,,,,,,,,,,,,,,,,,,,,,,,,,,,,,,,,,,,,,,,,,,,1,0,1,0,,,,,,,,,,,,,,,,,,,,,,,,,,,,,,,,,,,,,,,,,,,,,,,,,,,,,,,,,,,,,,,,,,,,,,,,,,,,,,,,,,,,,,,,,,,,,,,,,,,,,,,1646.288104931,None,012122,1,2,1,3,0,1,2,0,46,2022_Jan_21_1115,listening_fmri,3.2.4,59.808474723349114,
,,,,,,,,,,,,,,,,,,,,,,,,,,,,,,,,,,,,,,,,,,,,,,2,0,2,0,,,,,,,,,,,,,,,,,,,,,,,,,,,,,,,,,,,,,,,,,,,,,,,,,,,,,,,,,,,,,,,,,,,,,,,,,,,,,,,,,,,,,,,,,,,,,,,,,,,,,,,1646.7881899180002,None,012122,1,2,1,3,0,1,2,0,46,2022_Jan_21_1115,listening_fmri,3.2.4,59.808474723349114,
,,,,,,,,,,,,,,,,,,,,,,,,,,,,,,,,,,,,,,,,,,,,,,3,0,3,0,,,,,,,,,,,,,,,,,,,,,,,,,,,,,,,,,,,,,,,,,,,,,,,,,,,,,,,,,,,,,,,,,,,,,,,,,,,,,,,,,,,,,,,,,,,,,,,,,,,,,,,1647.2874486380006,None,012122,1,2,1,3,0,1,2,0,46,2022_Jan_21_1115,listening_fmri,3.2.4,59.808474723349114,
,,,,,,,,,,,,,,,,,,,,,,,,,,,,,,,,,,,,,,,,,,,,,,4,0,4,0,,,,,,,,,,,,,,,,,,,,,,,,,,,,,,,,,,,,,,,,,,,,,,,,,,,,,,,,,,,,,,,,,,,,,,,,,,,,,,,,,,,,,,,,,,,,,,,,,,,,,,,1647.7874350190004,None,012122,1,2,1,3,0,1,2,0,46,2022_Jan_21_1115,listening_fmri,3.2.4,59.808474723349114,
