instructText,count,trials_5.thisRepN,trials_5.thisTrialN,trials_5.thisN,trials_5.thisIndex,trials_6.thisRepN,trials_6.thisTrialN,trials_6.thisN,trials_6.thisIndex,trials.thisRepN,trials.thisTrialN,trials.thisN,trials.thisIndex,trials_8.thisRepN,trials_8.thisTrialN,trials_8.thisN,trials_8.thisIndex,story_list_block1,action_list_block1,story_list_block2,action_list_block2,key_resp_3.keys,key_resp_3.rt,key_resp_3.started,key_resp_3.stopped,text_13.started,text_13.stopped,text_23.started,text_23.stopped,text_43.started,text_43.stopped,key_resp_11.keys,key_resp_11.rt,key_resp_11.started,key_resp_11.stopped,text_44.started,text_44.stopped,text_53.started,text_53.stopped,image_10.started,image_10.stopped,text_22.started,text_22.stopped,recall,question1_answer,order of question,text_14.started,text_14.stopped,text_15.started,text_15.stopped,image_6.started,image_6.stopped,polygon_3.started,polygon_3.stopped,bottom_line_3.started,bottom_line_3.stopped,right_line_3.started,right_line_3.stopped,left_line_3.started,left_line_3.stopped,question2_answer,text_16.started,text_16.stopped,text_17.started,text_17.stopped,image_7.started,image_7.stopped,polygon_4.started,polygon_4.stopped,bottom_line_4.started,bottom_line_4.stopped,right_line_4.started,right_line_4.stopped,left_line_4.started,left_line_4.stopped,question3_answer,text_18.started,text_18.stopped,text_19.started,text_19.stopped,image_8.started,image_8.stopped,polygon_5.started,polygon_5.stopped,bottom_line_5.started,bottom_line_5.stopped,right_line_5.started,right_line_5.stopped,left_line_5.started,left_line_5.stopped,question4_answer,text_20.started,text_20.stopped,text_21.started,text_21.stopped,image_9.started,image_9.stopped,polygon_6.started,polygon_6.stopped,bottom_line_6.started,bottom_line_6.stopped,right_line_6.started,right_line_6.stopped,left_line_6.started,left_line_6.stopped,question5_answer,text_25.started,text_25.stopped,text_26.started,text_26.stopped,image_11.started,image_11.stopped,polygon_7.started,polygon_7.stopped,bottom_line_7.started,bottom_line_7.stopped,right_line_7.started,right_line_7.stopped,left_line_7.started,left_line_7.stopped,question6_answer,text_27.started,text_27.stopped,text_28.started,text_28.stopped,image_12.started,image_12.stopped,polygon_8.started,polygon_8.stopped,bottom_line_8.started,bottom_line_8.stopped,right_line_8.started,right_line_8.stopped,left_line_8.started,left_line_8.stopped,question7_answer,text_29.started,text_29.stopped,text_30.started,text_30.stopped,image_13.started,image_13.stopped,polygon_9.started,polygon_9.stopped,bottom_line_9.started,bottom_line_9.stopped,right_line_9.started,right_line_9.stopped,left_line_9.started,left_line_9.stopped,question8_answer,text_31.started,text_31.stopped,text_32.started,text_32.stopped,image_14.started,image_14.stopped,polygon_10.started,polygon_10.stopped,bottom_line_10.started,bottom_line_10.stopped,right_line_10.started,right_line_10.stopped,left_line_10.started,left_line_10.stopped,text_36.started,text_36.stopped,participant,sA,sB,lA,lB,block_struct,random_seed,date,expName,psychopyVersion,frameRate,
"In the final part of the experiment, please answer 8 questions about each story.",,0,0,0,0,,,,,,,,,,,,,[41 14 23 21 32 12 43 34],[4 2 1 1 3 2 4 3],[22 13 31 24 33 11 42 44],[3 4 1 3 1 4 2 2],space,4.361720457000047,8.730424858000333,None,8.730424858000333,None,8.730424858000333,None,,,,,,,,,,,,,,,,,,,,,,,,,,,,,,,,,,,,,,,,,,,,,,,,,,,,,,,,,,,,,,,,,,,,,,,,,,,,,,,,,,,,,,,,,,,,,,,,,,,,,,,,,,,,,,,,,,,,,,,,,,,,,,,,,,,,,,,,,,,012122,1,2,1,3,0,46,2022_Jan_21_1236,short_answer,3.2.4,60.09775886024556,
"We did not tell you to think of all or some of these questions during the story, but please do your best to answer them.",,0,1,1,1,,,,,,,,,,,,,,,,,space,5.198123329999362,13.129463731000214,None,13.129463731000214,None,13.129463731000214,None,,,,,,,,,,,,,,,,,,,,,,,,,,,,,,,,,,,,,,,,,,,,,,,,,,,,,,,,,,,,,,,,,,,,,,,,,,,,,,,,,,,,,,,,,,,,,,,,,,,,,,,,,,,,,,,,,,,,,,,,,,,,,,,,,,,,,,,,,,,012122,1,2,1,3,0,46,2022_Jan_21_1236,short_answer,3.2.4,60.09775886024556,
"Answer as much as you remember, and be specific and concrete in your answers. It is best to try to be as faithful as possible to what the story actually said.
",,0,2,2,2,,,,,,,,,,,,,,,,,space,7.321118563999335,18.363424969000334,None,18.363424969000334,None,18.363424969000334,None,,,,,,,,,,,,,,,,,,,,,,,,,,,,,,,,,,,,,,,,,,,,,,,,,,,,,,,,,,,,,,,,,,,,,,,,,,,,,,,,,,,,,,,,,,,,,,,,,,,,,,,,,,,,,,,,,,,,,,,,,,,,,,,,,,,,,,,,,,,012122,1,2,1,3,0,46,2022_Jan_21_1236,short_answer,3.2.4,60.09775886024556,
"When you have finished typing your answer, hit ‘return’ to submit your answer and move onto the next question. ",,0,3,3,3,,,,,,,,,,,,,,,,,space,6.781734992999191,25.73050858300121,None,25.73050858300121,None,25.73050858300121,None,,,,,,,,,,,,,,,,,,,,,,,,,,,,,,,,,,,,,,,,,,,,,,,,,,,,,,,,,,,,,,,,,,,,,,,,,,,,,,,,,,,,,,,,,,,,,,,,,,,,,,,,,,,,,,,,,,,,,,,,,,,,,,,,,,,,,,,,,,,012122,1,2,1,3,0,46,2022_Jan_21_1236,short_answer,3.2.4,60.09775886024556,
,0,,,,,0,0,0,0,0,0,0,0,,,,,,,,,,,,,,,,,32.54734699100118,None,space,11.918231786001343,32.54734699100118,None,32.54734699100118,None,32.54734699100118,None,44.6145009740012,None,44.6145009740012,None,Both react positively,"Teresa is holding a phone, while james is holding nothing, or at least does not have the contents of his hands mentioned","[1, 2]",46.41456154300067,None,46.41456154300067,None,46.41456154300067,None,46.41456154300067,None,46.41456154300067,None,46.41456154300067,None,46.41456154300067,None,How is your forehead feelingquestion,102.56410578299983,None,102.56410578299983,None,102.56410578299983,None,102.56410578299983,None,102.56410578299983,None,102.56410578299983,None,102.56410578299983,None,They will meet that evening for a concert of an egyptian artist,111.84670226400158,None,111.84670226400158,None,111.84670226400158,None,111.84670226400158,None,111.84670226400158,None,111.84670226400158,None,111.84670226400158,None,3colon00 pm,140.9797798870004,None,140.9797798870004,None,140.9797798870004,None,140.9797798870004,None,140.9797798870004,None,140.9797798870004,None,140.9797798870004,None,"With tree branches, lots of orange, a long wooden bar at which the couple sits",151.44580172800124,None,151.44580172800124,None,151.44580172800124,None,151.44580172800124,None,151.44580172800124,None,151.44580172800124,None,151.44580172800124,None,"Large, orange, with japanese characters accompanied by smaller english translations",186.96236611400127,None,186.96236611400127,None,186.96236611400127,None,186.96236611400127,None,186.96236611400127,None,186.96236611400127,None,186.96236611400127,None,"James orders two sushi rolls, a tuna and veggie, while teresa orders an alaska roll and a japanese beer",211.56180033200144,None,211.56180033200144,None,211.56180033200144,None,211.56180033200144,None,211.56180033200144,None,211.56180033200144,None,211.56180033200144,None,Both react positively,236.54507804200148,None,236.54507804200148,None,236.54507804200148,None,236.54507804200148,None,236.54507804200148,None,236.54507804200148,None,236.54507804200148,None,,,012122,1,2,1,3,0,46,2022_Jan_21_1236,short_answer,3.2.4,60.09775886024556,
,0,,,,,0,0,0,0,,,,,,,,,,,,,,,,,,,,,,,,,,,,,,,,,,,,,,,,,,,,,,,,,,,,,,,,,,,,,,,,,,,,,,,,,,,,,,,,,,,,,,,,,,,,,,,,,,,,,,,,,,,,,,,,,,,,,,,,,,,,,,,,,,,,,,,,,,,,,,,,,,,,,,,,,,,,,,,012122,1,2,1,3,0,46,2022_Jan_21_1236,short_answer,3.2.4,60.09775886024556,
,1,,,,,0,1,1,1,0,0,0,0,,,,,,,,,,,,,,,,,246.043860744001,None,space,3.8012781760007783,246.043860744001,None,246.043860744001,None,246.043860744001,None,249.89484555800118,None,249.89484555800118,None,The next assessment is a test on the following tuesday,6 months,"[1, 2]",252.81191034600124,None,252.81191034600124,None,252.81191034600124,None,252.81191034600124,None,252.81191034600124,None,252.81191034600124,None,252.81191034600124,None,Maria wants to break up because she does not want to do a long distance relationship and wants to be fully immersed in her study abroad program,258.161549329001,None,258.161549329001,None,258.161549329001,None,258.161549329001,None,258.161549329001,None,258.161549329001,None,258.161549329001,None,"No, henry wants to stay together because he loves her, and can maintain the relationship by visiting her",292.312047499001,None,292.312047499001,None,292.312047499001,None,292.312047499001,None,292.312047499001,None,292.312047499001,None,292.312047499001,None,Maria wants a white alpaca sweater back,320.29427962200134,None,320.29427962200134,None,320.29427962200134,None,320.29427962200134,None,320.29427962200134,None,320.29427962200134,None,320.29427962200134,None,"Large, about 200 seats with many rows",332.97672340200006,None,332.97672340200006,None,332.97672340200006,None,332.97672340200006,None,332.97672340200006,None,332.97672340200006,None,332.97672340200006,None,"The class is intro to ancient philosophy, and the lecture is about aristotle's doublequotethe categoriesdoublequote",345.36073435900107,None,345.36073435900107,None,345.36073435900107,None,345.36073435900107,None,345.36073435900107,None,345.36073435900107,None,345.36073435900107,None,That the english word category derives from aristotle's work,379.8938052250014,None,379.8938052250014,None,379.8938052250014,None,379.8938052250014,None,379.8938052250014,None,379.8938052250014,None,379.8938052250014,None,The next assessment is a test on the following tuesday,404.9931352960011,None,404.9931352960011,None,404.9931352960011,None,404.9931352960011,None,404.9931352960011,None,404.9931352960011,None,404.9931352960011,None,,,012122,1,2,1,3,0,46,2022_Jan_21_1236,short_answer,3.2.4,60.09775886024556,
,1,,,,,0,1,1,1,,,,,,,,,,,,,,,,,,,,,,,,,,,,,,,,,,,,,,,,,,,,,,,,,,,,,,,,,,,,,,,,,,,,,,,,,,,,,,,,,,,,,,,,,,,,,,,,,,,,,,,,,,,,,,,,,,,,,,,,,,,,,,,,,,,,,,,,,,,,,,,,,,,,,,,,,,,,,,,012122,1,2,1,3,0,46,2022_Jan_21_1236,short_answer,3.2.4,60.09775886024556,
,2,,,,,0,2,2,2,0,0,0,0,,,,,,,,,,,,,,,,,417.45850689000144,None,space,1.221518020000076,417.45850689000144,None,417.45850689000144,None,417.45850689000144,None,418.72618282700023,None,418.72618282700023,None,"The groceries are 14 dollars, which alex pays for in cash",23 months,"[1, 2]",419.75958274700133,None,419.75958274700133,None,419.75958274700133,None,419.75958274700133,None,419.75958274700133,None,419.75958274700133,None,419.75958274700133,None,"1 diamond, which is a white, glittery color",423.30981995300135,None,423.30981995300135,None,423.30981995300135,None,423.30981995300135,None,423.30981995300135,None,423.30981995300135,None,423.30981995300135,None,The ring sits in alex's wallet until he pulls it out and presents it to chloe while in line,444.2926116620001,None,444.2926116620001,None,444.2926116620001,None,444.2926116620001,None,444.2926116620001,None,444.2926116620001,None,444.2926116620001,None,Chloe texts her mom a picture of her hand with a ring first,479.4592038580013,None,479.4592038580013,None,479.4592038580013,None,479.4592038580013,None,479.4592038580013,None,479.4592038580013,None,479.4592038580013,None,"It is busy on account of it being thanksgiving eve, with lots of people moving carts piled high with turkeys, canned goods, and other thanksgiving treats. the store windows are highly decorated in a fall manner, with shades of red, orange, and yellow among things like scarecrows and other autumnal decorations.",495.1093683039999,None,495.1093683039999,None,495.1093683039999,None,495.1093683039999,None,495.1093683039999,None,495.1093683039999,None,495.1093683039999,None,A can of pumpkin puree,571.9744205240004,None,571.9744205240004,None,571.9744205240004,None,571.9744205240004,None,571.9744205240004,None,571.9744205240004,None,571.9744205240004,None,"All of them are open, the clients step into lane 5",582.9083405490001,None,582.9083405490001,None,582.9083405490001,None,582.9083405490001,None,582.9083405490001,None,582.9083405490001,None,582.9083405490001,None,"The groceries are 14 dollars, which alex pays for in cash",595.6401019490004,None,595.6401019490004,None,595.6401019490004,None,595.6401019490004,None,595.6401019490004,None,595.6401019490004,None,595.6401019490004,None,,,012122,1,2,1,3,0,46,2022_Jan_21_1236,short_answer,3.2.4,60.09775886024556,
,2,,,,,0,2,2,2,,,,,,,,,,,,,,,,,,,,,,,,,,,,,,,,,,,,,,,,,,,,,,,,,,,,,,,,,,,,,,,,,,,,,,,,,,,,,,,,,,,,,,,,,,,,,,,,,,,,,,,,,,,,,,,,,,,,,,,,,,,,,,,,,,,,,,,,,,,,,,,,,,,,,,,,,,,,,,,012122,1,2,1,3,0,46,2022_Jan_21_1236,short_answer,3.2.4,60.09775886024556,
,3,,,,,0,3,3,3,0,0,0,0,,,,,,,,,,,,,,,,,611.3390847640003,None,space,1.097489398000107,611.3390847640003,None,611.3390847640003,None,611.3390847640003,None,612.4737245000015,None,612.4737245000015,None,They both have positive reactions,5 years,"[1, 2]",617.390372961001,None,617.390372961001,None,617.390372961001,None,617.390372961001,None,617.390372961001,None,617.390372961001,None,617.390372961001,None,"3 diamonds, a canary yellow, from senn",621.4569911020008,None,621.4569911020008,None,621.4569911020008,None,621.4569911020008,None,621.4569911020008,None,621.4569911020008,None,621.4569911020008,None,Alvira's cake at the end of dinner,636.9069708620009,None,636.9069708620009,None,636.9069708620009,None,636.9069708620009,None,636.9069708620009,None,636.9069708620009,None,636.9069708620009,None,Her brother,651.9900547840007,None,651.9900547840007,None,651.9900547840007,None,651.9900547840007,None,651.9900547840007,None,651.9900547840007,None,651.9900547840007,None,"Fancilly, with white table cloths and high-arching windows.",655.9564318030007,None,655.9564318030007,None,655.9564318030007,None,655.9564318030007,None,655.9564318030007,None,655.9564318030007,None,655.9564318030007,None,"Sleek, light, black, without prices on them",689.1893158290004,None,689.1893158290004,None,689.1893158290004,None,689.1893158290004,None,689.1893158290004,None,689.1893158290004,None,689.1893158290004,None,,703.2895197610014,None,703.2895197610014,None,703.2895197610014,None,703.2895197610014,None,703.2895197610014,None,703.2895197610014,None,703.2895197610014,None,They both have positive reactions,709.7729249740005,None,709.7729249740005,None,709.7729249740005,None,709.7729249740005,None,709.7729249740005,None,709.7729249740005,None,709.7729249740005,None,,,012122,1,2,1,3,0,46,2022_Jan_21_1236,short_answer,3.2.4,60.09775886024556,
,3,,,,,0,3,3,3,,,,,,,,,,,,,,,,,,,,,,,,,,,,,,,,,,,,,,,,,,,,,,,,,,,,,,,,,,,,,,,,,,,,,,,,,,,,,,,,,,,,,,,,,,,,,,,,,,,,,,,,,,,,,,,,,,,,,,,,,,,,,,,,,,,,,,,,,,,,,,,,,,,,,,,,,,,,,,,012122,1,2,1,3,0,46,2022_Jan_21_1236,short_answer,3.2.4,60.09775886024556,
,4,,,,,0,4,4,4,,,,,,,,,,,,,,,,,,,,,,,,,,,,,,,,,,,,,,,,,,,,,,,,,,,,,,,,,,,,,,,,,,,,,,,,,,,,,,,,,,,,,,,,,,,,,,,,,,,,,,,,,,,,,,,,,,,,,,,,,,,,,,,,,,,,,,,,,,,,,,,,,,,,,,,,,,,,,,,012122,1,2,1,3,0,46,2022_Jan_21_1236,short_answer,3.2.4,60.09775886024556,
,5,,,,,0,5,5,5,0,0,0,0,,,,,,,,,,,,,,,,,718.839422866,None,space,1.3492043490005017,718.839422866,None,718.839422866,None,718.839422866,None,720.2394843990005,None,720.2394843990005,None,"Jessie sits in 33a, while calvin sits in 36b, both in economy class",Jessie has been thinking about breaking up for 6 months,"[1, 2]",721.7896189420007,None,721.7896189420007,None,721.7896189420007,None,721.7896189420007,None,721.7896189420007,None,721.7896189420007,None,721.7896189420007,None,Jessie states that the vacation has been terrible and that they have incompatible personalities.,744.7564046700008,None,744.7564046700008,None,744.7564046700008,None,744.7564046700008,None,744.7564046700008,None,744.7564046700008,None,744.7564046700008,None,"Calvin does not want to break up initially, but feels very hurt because he feels that his efforts to appease jessie have gone unnoticed. he then agrees with her after a long period of silence, stating that he does not want to bore her and that they might be happier with other people.",770.0060009480003,None,770.0060009480003,None,770.0060009480003,None,770.0060009480003,None,770.0060009480003,None,770.0060009480003,None,770.0060009480003,None,Jessie wants her philosophy books back,837.0381892670011,None,837.0381892670011,None,837.0381892670011,None,837.0381892670011,None,837.0381892670011,None,837.0381892670011,None,837.0381892670011,None,,847.671657066001,None,847.671657066001,None,847.671657066001,None,847.671657066001,None,847.671657066001,None,847.671657066001,None,847.671657066001,None,A shift change for the security guards,851.4045398940016,None,851.4045398940016,None,851.4045398940016,None,851.4045398940016,None,851.4045398940016,None,851.4045398940016,None,851.4045398940016,None,A8,862.6209234940015,None,862.6209234940015,None,862.6209234940015,None,862.6209234940015,None,862.6209234940015,None,862.6209234940015,None,862.6209234940015,None,"Jessie sits in 33a, while calvin sits in 36b, both in economy class",867.7712728580009,None,867.7712728580009,None,867.7712728580009,None,867.7712728580009,None,867.7712728580009,None,867.7712728580009,None,867.7712728580009,None,,,012122,1,2,1,3,0,46,2022_Jan_21_1236,short_answer,3.2.4,60.09775886024556,
,5,,,,,0,5,5,5,,,,,,,,,,,,,,,,,,,,,,,,,,,,,,,,,,,,,,,,,,,,,,,,,,,,,,,,,,,,,,,,,,,,,,,,,,,,,,,,,,,,,,,,,,,,,,,,,,,,,,,,,,,,,,,,,,,,,,,,,,,,,,,,,,,,,,,,,,,,,,,,,,,,,,,,,,,,,,,012122,1,2,1,3,0,46,2022_Jan_21_1236,short_answer,3.2.4,60.09775886024556,
,6,,,,,0,6,6,6,0,0,0,0,,,,,,,,,,,,,,,,,889.8207328540011,None,space,1.0189981650000846,889.8207328540011,None,889.8207328540011,None,889.8207328540011,None,890.8868768020002,None,890.8868768020002,None,"50 dollars, credit card",,"[1, 2]",892.1540367440011,None,892.1540367440011,None,892.1540367440011,None,892.1540367440011,None,892.1540367440011,None,892.1540367440011,None,892.1540367440011,None,,894.4531979580006,None,894.4531979580006,None,894.4531979580006,None,894.4531979580006,None,894.4531979580006,None,894.4531979580006,None,894.4531979580006,None,A barbeque,898.4372776110013,None,898.4372776110013,None,898.4372776110013,None,898.4372776110013,None,898.4372776110013,None,898.4372776110013,None,898.4372776110013,None,3colon38,908.7037554420003,None,908.7037554420003,None,908.7037554420003,None,908.7037554420003,None,908.7037554420003,None,908.7037554420003,None,908.7037554420003,None,Busy,914.9199189690007,None,914.9199189690007,None,914.9199189690007,None,914.9199189690007,None,914.9199189690007,None,914.9199189690007,None,914.9199189690007,None,,918.8040948540001,None,918.8040948540001,None,918.8040948540001,None,918.8040948540001,None,918.8040948540001,None,918.8040948540001,None,918.8040948540001,None,"One, lane 2",921.270315187001,None,921.270315187001,None,921.270315187001,None,921.270315187001,None,921.270315187001,None,921.270315187001,None,921.270315187001,None,"50 dollars, credit card",925.220870348001,None,925.220870348001,None,925.220870348001,None,925.220870348001,None,925.220870348001,None,925.220870348001,None,925.220870348001,None,,,012122,1,2,1,3,0,46,2022_Jan_21_1236,short_answer,3.2.4,60.09775886024556,
,6,,,,,0,6,6,6,,,,,,,,,,,,,,,,,,,,,,,,,,,,,,,,,,,,,,,,,,,,,,,,,,,,,,,,,,,,,,,,,,,,,,,,,,,,,,,,,,,,,,,,,,,,,,,,,,,,,,,,,,,,,,,,,,,,,,,,,,,,,,,,,,,,,,,,,,,,,,,,,,,,,,,,,,,,,,,012122,1,2,1,3,0,46,2022_Jan_21_1236,short_answer,3.2.4,60.09775886024556,
,7,,,,,0,7,7,7,,,,,,,,,,,,,,,,,,,,,,,,,,,,,,,,,,,,,,,,,,,,,,,,,,,,,,,,,,,,,,,,,,,,,,,,,,,,,,,,,,,,,,,,,,,,,,,,,,,,,,,,,,,,,,,,,,,,,,,,,,,,,,,,,,,,,,,,,,,,,,,,,,,,,,,,,,,,,,,012122,1,2,1,3,0,46,2022_Jan_21_1236,short_answer,3.2.4,60.09775886024556,
,8,,,,,0,8,8,8,,,,,,,,,,,,,,,,,,,,,,,,,,,,,,,,,,,,,,,,,,,,,,,,,,,,,,,,,,,,,,,,,,,,,,,,,,,,,,,,,,,,,,,,,,,,,,,,,,,,,,,,,,,,,,,,,,,,,,,,,,,,,,,,,,,,,,,,,,,,,,,,,,,,,,,,,,,,,,,012122,1,2,1,3,0,46,2022_Jan_21_1236,short_answer,3.2.4,60.09775886024556,
,9,,,,,0,9,9,9,0,0,0,0,,,,,,,,,,,,,,,,,931.7530024280004,None,space,1.3917633540004317,931.7530024280004,None,931.7530024280004,None,931.7530024280004,None,933.1863036890009,None,933.1863036890009,None,Emmuanuella and liam both want the cat.,"Somewhat busy, decorated for halloween","[2, 1]",935.0037550460002,None,935.0037550460002,None,935.0037550460002,None,935.0037550460002,None,935.0037550460002,None,935.0037550460002,None,935.0037550460002,None,"Pasta, tomato sauce, and other dinner items",948.6204111759998,None,948.6204111759998,None,948.6204111759998,None,948.6204111759998,None,948.6204111759998,None,948.6204111759998,None,948.6204111759998,None,"Several are open, they step into lane 6",960.9198016950013,None,960.9198016950013,None,960.9198016950013,None,960.9198016950013,None,960.9198016950013,None,960.9198016950013,None,960.9198016950013,None,"The groceries are around 50 dollars, which they pay for with a credit card",972.036563609001,None,972.036563609001,None,972.036563609001,None,972.036563609001,None,972.036563609001,None,972.036563609001,None,972.036563609001,None,Emmanuella has been thinking of breaking up for about 5 months,990.7191651060002,None,990.7191651060002,None,990.7191651060002,None,990.7191651060002,None,990.7191651060002,None,990.7191651060002,None,990.7191651060002,None,Emmanuella states that she is tired of their constant fighting,1009.6349622930011,None,1009.6349622930011,None,1009.6349622930011,None,1009.6349622930011,None,1009.6349622930011,None,1009.6349622930011,None,1009.6349622930011,None,"Liam, after a period of automatic nodding, agrees and states that he is also tired of the fighting and that he believes they will be happier with other people.",1025.218814879001,None,1025.218814879001,None,1025.218814879001,None,1025.218814879001,None,1025.218814879001,None,1025.218814879001,None,1025.218814879001,None,Emmuanuella and liam both want the cat.,1056.9019733189998,None,1056.9019733189998,None,1056.9019733189998,None,1056.9019733189998,None,1056.9019733189998,None,1056.9019733189998,None,1056.9019733189998,None,,,012122,1,2,1,3,0,46,2022_Jan_21_1236,short_answer,3.2.4,60.09775886024556,
,9,,,,,0,9,9,9,,,,,,,,,,,,,,,,,,,,,,,,,,,,,,,,,,,,,,,,,,,,,,,,,,,,,,,,,,,,,,,,,,,,,,,,,,,,,,,,,,,,,,,,,,,,,,,,,,,,,,,,,,,,,,,,,,,,,,,,,,,,,,,,,,,,,,,,,,,,,,,,,,,,,,,,,,,,,,,012122,1,2,1,3,0,46,2022_Jan_21_1236,short_answer,3.2.4,60.09775886024556,
,10,,,,,0,10,10,10,0,0,0,0,,,,,,,,,,,,,,,,,1076.2510222750007,None,space,0.9878801470003964,1076.2510222750007,None,1076.2510222750007,None,1076.2510222750007,None,1077.2847007740002,None,1077.2847007740002,None,A toast,"Darkly, with dark brown oak wood fashioned in a rustic manner","[2, 1]",1078.2518972950002,None,1078.2518972950002,None,1078.2518972950002,None,1078.2518972950002,None,1078.2518972950002,None,1078.2518972950002,None,1078.2518972950002,None,"Black, large",1098.1334165469998,None,1098.1334165469998,None,1098.1334165469998,None,1098.1334165469998,None,1098.1334165469998,None,1098.1334165469998,None,1098.1334165469998,None,"Mr. shelton orders a burger with a manhattan, while mr gordon orders a steak with a martini",1104.801476515,None,1104.801476515,None,1104.801476515,None,1104.801476515,None,1104.801476515,None,1104.801476515,None,1104.801476515,None,"They don't, they find the meat to be overcooked and dry",1130.0500034600009,None,1130.0500034600009,None,1130.0500034600009,None,1130.0500034600009,None,1130.0500034600009,None,1130.0500034600009,None,1130.0500034600009,None,"Mr shelton is a cfo, mr gordon is a ceo",1145.367717178,None,1145.367717178,None,1145.367717178,None,1145.367717178,None,1145.367717178,None,1145.367717178,None,1145.367717178,None,600 million dollars,1157.4176822460013,None,1157.4176822460013,None,1157.4176822460013,None,1157.4176822460013,None,1157.4176822460013,None,1157.4176822460013,None,1157.4176822460013,None,Taxijet,1163.7839021920008,None,1163.7839021920008,None,1163.7839021920008,None,1163.7839021920008,None,1163.7839021920008,None,1163.7839021920008,None,1163.7839021920008,None,A toast,1169.8505439730015,None,1169.8505439730015,None,1169.8505439730015,None,1169.8505439730015,None,1169.8505439730015,None,1169.8505439730015,None,1169.8505439730015,None,,,012122,1,2,1,3,0,46,2022_Jan_21_1236,short_answer,3.2.4,60.09775886024556,
,10,,,,,0,10,10,10,,,,,,,,,,,,,,,,,,,,,,,,,,,,,,,,,,,,,,,,,,,,,,,,,,,,,,,,,,,,,,,,,,,,,,,,,,,,,,,,,,,,,,,,,,,,,,,,,,,,,,,,,,,,,,,,,,,,,,,,,,,,,,,,,,,,,,,,,,,,,,,,,,,,,,,,,,,,,,,012122,1,2,1,3,0,46,2022_Jan_21_1236,short_answer,3.2.4,60.09775886024556,
,11,,,,,0,11,11,11,,,,,,,,,,,,,,,,,,,,,,,,,,,,,,,,,,,,,,,,,,,,,,,,,,,,,,,,,,,,,,,,,,,,,,,,,,,,,,,,,,,,,,,,,,,,,,,,,,,,,,,,,,,,,,,,,,,,,,,,,,,,,,,,,,,,,,,,,,,,,,,,,,,,,,,,,,,,,,,012122,1,2,1,3,0,46,2022_Jan_21_1236,short_answer,3.2.4,60.09775886024556,
,12,,,,,0,12,12,12,0,0,0,0,,,,,,,,,,,,,,,,,1174.3673312320007,None,space,1.0883267950011941,1174.3673312320007,None,1174.3673312320007,None,1174.3673312320007,None,1175.499946672,None,1175.499946672,None,Sharing a small champagne bottle from ms. morrison's purse,Mildly busy,"[2, 1]",1176.4179062910007,None,1176.4179062910007,None,1176.4179062910007,None,1176.4179062910007,None,1176.4179062910007,None,1176.4179062910007,None,1176.4179062910007,None,Crackers,1184.3675422370015,None,1184.3675422370015,None,1184.3675422370015,None,1184.3675422370015,None,1184.3675422370015,None,1184.3675422370015,None,1184.3675422370015,None,A few are open,1189.1830931780005,None,1189.1830931780005,None,1189.1830931780005,None,1189.1830931780005,None,1189.1830931780005,None,1189.1830931780005,None,1189.1830931780005,None,"23 dollars, ms morrison uses a check to pay",1195.1006965060005,None,1195.1006965060005,None,1195.1006965060005,None,1195.1006965060005,None,1195.1006965060005,None,1195.1006965060005,None,1195.1006965060005,None,Ms. bianchi is an account representative and ms. morrison is a sales manager,1209.1997812320005,None,1209.1997812320005,None,1209.1997812320005,None,1209.1997812320005,None,1209.1997812320005,None,1209.1997812320005,None,1209.1997812320005,None,"Originally 1500 dollars, which expands to 20 thousand dollars to take advantage of tax subsidies.",1232.5826859460012,None,1232.5826859460012,None,1232.5826859460012,None,1232.5826859460012,None,1232.5826859460012,None,1232.5826859460012,None,1232.5826859460012,None,,1260.1989934590001,None,1260.1989934590001,None,1260.1989934590001,None,1260.1989934590001,None,1260.1989934590001,None,1260.1989934590001,None,1260.1989934590001,None,Sharing a small champagne bottle from ms. morrison's purse,1262.3325952450014,None,1262.3325952450014,None,1262.3325952450014,None,1262.3325952450014,None,1262.3325952450014,None,1262.3325952450014,None,1262.3325952450014,None,,,012122,1,2,1,3,0,46,2022_Jan_21_1236,short_answer,3.2.4,60.09775886024556,
,12,,,,,0,12,12,12,,,,,,,,,,,,,,,,,,,,,,,,,,,,,,,,,,,,,,,,,,,,,,,,,,,,,,,,,,,,,,,,,,,,,,,,,,,,,,,,,,,,,,,,,,,,,,,,,,,,,,,,,,,,,,,,,,,,,,,,,,,,,,,,,,,,,,,,,,,,,,,,,,,,,,,,,,,,,,,012122,1,2,1,3,0,46,2022_Jan_21_1236,short_answer,3.2.4,60.09775886024556,
,13,,,,,0,13,13,13,0,0,0,0,,,,,,,,,,,,,,,,,1279.9326358899998,None,space,0.7309373289990617,1279.9326358899998,None,1279.9326358899998,None,1279.9326358899998,None,1280.699161224,None,1280.699161224,None,"Sadie does not eat, thomas finds his burger to be dry and fishy",3 months,"[1, 2]",1281.6500568200008,None,1281.6500568200008,None,1281.6500568200008,None,1281.6500568200008,None,1281.6500568200008,None,1281.6500568200008,None,1281.6500568200008,None,"Thomas wants to break up because he wants to focus on his career, namely on whether he wants to switch careers or not",1286.1663847020009,None,1286.1663847020009,None,1286.1663847020009,None,1286.1663847020009,None,1286.1663847020009,None,1286.1663847020009,None,1286.1663847020009,None,"Sadie does not want to break up, because she thought their relationship was going well and that they could stay together without being together as much",1322.5482564130016,None,1322.5482564130016,None,1322.5482564130016,None,1322.5482564130016,None,1322.5482564130016,None,1322.5482564130016,None,1322.5482564130016,None,Sadie wants her stuff sent back to her apartment,1354.265330278,None,1354.265330278,None,1354.265330278,None,1354.265330278,None,1354.265330278,None,1354.265330278,None,1354.265330278,None,Like a 70s american diner,1369.4980699970001,None,1369.4980699970001,None,1369.4980699970001,None,1369.4980699970001,None,1369.4980699970001,None,1369.4980699970001,None,1369.4980699970001,None,Black,1378.6639108570016,None,1378.6639108570016,None,1378.6639108570016,None,1378.6639108570016,None,1378.6639108570016,None,1378.6639108570016,None,1378.6639108570016,None,"Thomas orders a burger with no tomatoes, sadie orders a reuben",1381.498346196,None,1381.498346196,None,1381.498346196,None,1381.498346196,None,1381.498346196,None,1381.498346196,None,1381.498346196,None,"Sadie does not eat, thomas finds his burger to be dry and fishy",1393.014870811001,None,1393.014870811001,None,1393.014870811001,None,1393.014870811001,None,1393.014870811001,None,1393.014870811001,None,1393.014870811001,None,,,012122,1,2,1,3,0,46,2022_Jan_21_1236,short_answer,3.2.4,60.09775886024556,
,13,,,,,0,13,13,13,,,,,,,,,,,,,,,,,,,,,,,,,,,,,,,,,,,,,,,,,,,,,,,,,,,,,,,,,,,,,,,,,,,,,,,,,,,,,,,,,,,,,,,,,,,,,,,,,,,,,,,,,,,,,,,,,,,,,,,,,,,,,,,,,,,,,,,,,,,,,,,,,,,,,,,,,,,,,,,012122,1,2,1,3,0,46,2022_Jan_21_1236,short_answer,3.2.4,60.09775886024556,
,14,,,,,0,14,14,14,0,0,0,0,,,,,,,,,,,,,,,,,1412.113321891,None,space,0.8523335600002611,1412.113321891,None,1412.113321891,None,1412.113321891,None,1413.0131997500011,None,1413.0131997500011,None,11colon55,Relatively little ,"[2, 1]",1414.130399552001,None,1414.130399552001,None,1414.130399552001,None,1414.130399552001,None,1414.130399552001,None,1414.130399552001,None,1414.130399552001,None,A strange malfunction of the metal detector,1422.614227297001,None,1422.614227297001,None,1422.614227297001,None,1422.614227297001,None,1422.614227297001,None,1422.614227297001,None,1422.614227297001,None,,1432.7466090100006,None,1432.7466090100006,None,1432.7466090100006,None,1432.7466090100006,None,1432.7466090100006,None,1432.7466090100006,None,1432.7466090100006,None,Anna has a window seat,1437.2973901960013,None,1437.2973901960013,None,1437.2973901960013,None,1437.2973901960013,None,1437.2973901960013,None,1437.2973901960013,None,1437.2973901960013,None,David is holding a newspaper,1446.280221676001,None,1446.280221676001,None,1446.280221676001,None,1446.280221676001,None,1446.280221676001,None,1446.280221676001,None,1446.280221676001,None,David asks if anna had ever been a gymnast because 'that was quite the tumble',1458.1970487449998,None,1458.1970487449998,None,1458.1970487449998,None,1458.1970487449998,None,1458.1970487449998,None,1458.1970487449998,None,1458.1970487449998,None,,1477.5472872150003,None,1477.5472872150003,None,1477.5472872150003,None,1477.5472872150003,None,1477.5472872150003,None,1477.5472872150003,None,1477.5472872150003,None,11colon55,1483.6473313170009,None,1483.6473313170009,None,1483.6473313170009,None,1483.6473313170009,None,1483.6473313170009,None,1483.6473313170009,None,1483.6473313170009,None,,,012122,1,2,1,3,0,46,2022_Jan_21_1236,short_answer,3.2.4,60.09775886024556,
,14,,,,,0,14,14,14,,,,,,,,,,,,,,,,,,,,,,,,,,,,,,,,,,,,,,,,,,,,,,,,,,,,,,,,,,,,,,,,,,,,,,,,,,,,,,,,,,,,,,,,,,,,,,,,,,,,,,,,,,,,,,,,,,,,,,,,,,,,,,,,,,,,,,,,,,,,,,,,,,,,,,,,,,,,,,,012122,1,2,1,3,0,46,2022_Jan_21_1236,short_answer,3.2.4,60.09775886024556,
,15,,,,,0,15,15,15,0,0,0,0,,,,,,,,,,,,,,,,,1489.4295392640015,None,space,1.2064487719999306,1489.4295392640015,None,1489.4295392640015,None,1489.4295392640015,None,1490.6785299720013,None,1490.6785299720013,None,Around 3colon00 pm,Large,"[2, 1]",1491.6133614310002,None,1491.6133614310002,None,1491.6133614310002,None,1491.6133614310002,None,1491.6133614310002,None,1491.6133614310002,None,1491.6133614310002,None,"Intro to egyptology, the day's lecture is about mummification",1499.1970795530015,None,1499.1970795530015,None,1499.1970795530015,None,1499.1970795530015,None,1499.1970795530015,None,1499.1970795530015,None,1499.1970795530015,None,"That mummification is a long process that takes 70 days and a team of experts to perform, especially because the process involves rituals before, during, and after death",1515.1970742400008,None,1515.1970742400008,None,1515.1970742400008,None,1515.1970742400008,None,1515.1970742400008,None,1515.1970742400008,None,1515.1970742400008,None,The next assessment for the class is a quiz on the following class next thursday,1544.2294677280006,None,1544.2294677280006,None,1544.2294677280006,None,1544.2294677280006,None,1544.2294677280006,None,1544.2294677280006,None,1544.2294677280006,None,Leon is holding an eraser,1568.9119326360014,None,1568.9119326360014,None,1568.9119326360014,None,1568.9119326360014,None,1568.9119326360014,None,1568.9119326360014,None,1568.9119326360014,None,"Leon passes a note to ariana asking if she was from los angelos, because she looked familiar",1578.112323544001,None,1578.112323544001,None,1578.112323544001,None,1578.112323544001,None,1578.112323544001,None,1578.112323544001,None,1578.112323544001,None,"They part at the end of class, around 3colon00, and will meet that evening for a walk",1601.1284273990004,None,1601.1284273990004,None,1601.1284273990004,None,1601.1284273990004,None,1601.1284273990004,None,1601.1284273990004,None,1601.1284273990004,None,Around 3colon00 pm,1623.6774817620008,None,1623.6774817620008,None,1623.6774817620008,None,1623.6774817620008,None,1623.6774817620008,None,1623.6774817620008,None,1623.6774817620008,None,,,012122,1,2,1,3,0,46,2022_Jan_21_1236,short_answer,3.2.4,60.09775886024556,
,15,,,,,0,15,15,15,,,,,,,,,,,,,,,,,,,,,,,,,,,,,,,,,,,,,,,,,,,,,,,,,,,,,,,,,,,,,,,,,,,,,,,,,,,,,,,,,,,,,,,,,,,,,,,,,,,,,,,,,,,,,,,,,,,,,,,,,,,,,,,,,,,,,,,,,,,,,,,,,,,,,,,,,,,,,,,012122,1,2,1,3,0,46,2022_Jan_21_1236,short_answer,3.2.4,60.09775886024556,
,,,,,,,,,,,,,,0,0,0,0,,,,,,,,,,,,,,,,,,,,,,,,,,,,,,,,,,,,,,,,,,,,,,,,,,,,,,,,,,,,,,,,,,,,,,,,,,,,,,,,,,,,,,,,,,,,,,,,,,,,,,,,,,,,,,,,,,,,,,,,,,,,,,,,,,,,,,,,,,,,,,,,,,,,,1632.4780957460007,None,012122,1,2,1,3,0,46,2022_Jan_21_1236,short_answer,3.2.4,60.09775886024556,
