instructions,count,audio,trials_14.thisRepN,trials_14.thisTrialN,trials_14.thisN,trials_14.thisIndex,trials_13.thisRepN,trials_13.thisTrialN,trials_13.thisN,trials_13.thisIndex,trials_3.thisRepN,trials_3.thisTrialN,trials_3.thisN,trials_3.thisIndex,Block1.thisRepN,Block1.thisTrialN,Block1.thisN,Block1.thisIndex,trials_5.thisRepN,trials_5.thisTrialN,trials_5.thisN,trials_5.thisIndex,trials.thisRepN,trials.thisTrialN,trials.thisN,trials.thisIndex,trials_2.thisRepN,trials_2.thisTrialN,trials_2.thisN,trials_2.thisIndex,trials_22.thisRepN,trials_22.thisTrialN,trials_22.thisN,trials_22.thisIndex,trials_16.thisRepN,trials_16.thisTrialN,trials_16.thisN,trials_16.thisIndex,trials_23.thisRepN,trials_23.thisTrialN,trials_23.thisN,trials_23.thisIndex,story_list_block1,action_list_block1,key_resp_5.keys,key_resp_5.rt,key_resp_5.started,key_resp_5.stopped,text_87.started,text_87.stopped,text_88.started,text_88.stopped,key_resp_31.keys,key_resp_31.rt,key_resp_31.started,key_resp_31.stopped,text_89.started,text_89.stopped,image_27.started,image_27.stopped,text_97.started,text_97.stopped,image_24.started,image_24.stopped,key_resp_21.keys,key_resp_21.rt,key_resp_21.started,key_resp_21.stopped,text_78.started,text_78.stopped,text_96.started,text_96.stopped,image_28.started,image_28.stopped,key_resp_36.keys,key_resp_36.rt,key_resp_36.started,key_resp_36.stopped,text_94.started,text_94.stopped,text_95.started,text_95.stopped,text_90.started,text_90.stopped,key_resp_32.keys,key_resp_32.rt,key_resp_32.started,key_resp_32.stopped,text_91.started,text_91.stopped,key_resp_33.keys,key_resp_33.rt,key_resp_33.started,key_resp_33.stopped,text_92.started,text_92.stopped,key_resp_34.keys,key_resp_34.rt,key_resp_34.started,key_resp_34.stopped,text_93.started,text_93.stopped,key_resp_35.keys,key_resp_35.rt,key_resp_35.started,key_resp_35.stopped,text_98.started,text_98.stopped,text_99.started,text_99.stopped,key_resp_37.keys,key_resp_37.rt,key_resp_37.started,key_resp_37.stopped,textTrigger.started,textTrigger.stopped,getTrigger.keys,getTrigger.rt,getTrigger.started,getTrigger.stopped,triggerTime,text_76.started,text_76.stopped,text_77.started,text_77.stopped,startWait,endWait,image_23.started,image_23.stopped,text_38.started,text_38.stopped,key_resp_8.keys,key_resp_8.rt,key_resp_8.started,key_resp_8.stopped,text_39.started,text_39.stopped,text.started,text.stopped,text_50.started,text_50.stopped,key_resp_14.keys,key_resp_14.rt,key_resp_14.started,key_resp_14.stopped,storyImage_StartTime,storyImage_EndTime,clip_StartTime,clip_EndTime,text_6.started,text_6.stopped,text_52.started,text_52.stopped,participant,sA,sB,lA,lB,block_struct,play_stories,block,behavioral,random_seed,date,expName,psychopyVersion,frameRate,
Welcome to the story listening part of the experiment. ,,,0,0,0,0,0,0,0,0,,,,,,,,,,,,,,,,,,,,,,,,,,,,,,,,,[41 14 23 21 32 12 43 34],[4 2 1 1 3 2 4 3],1,1.6705096229998162,20.40595217400005,None,20.40595217400005,None,20.40595217400005,None,,,,,,,,,,,,,,,,,,,,,,,,,,,,,,,,,,,,,,,,,,,,,,,,,,,,,,,,,,,,,,,,,,,,,,,,,,,,,,,,,,,,,,,,,,,,,,,,,,,,,,012122,1,2,1,3,0,1,1,0,46,2022_Jan_21_1044,listening_fmri,3.2.4,59.90874137380064,
"As a reminder, you will listen to 12 short stories.",,,0,0,0,0,0,1,1,1,,,,,,,,,,,,,,,,,,,,,,,,,,,,,,,,,,,2,5.433745122000346,22.114720750999822,None,22.114720750999822,None,22.114720750999822,None,,,,,,,,,,,,,,,,,,,,,,,,,,,,,,,,,,,,,,,,,,,,,,,,,,,,,,,,,,,,,,,,,,,,,,,,,,,,,,,,,,,,,,,,,,,,,,,,,,,,,,012122,1,2,1,3,0,1,1,0,46,2022_Jan_21_1044,listening_fmri,3.2.4,59.90874137380064,
These stories will be divided into 2 blocks of 6 stories.,,,0,0,0,0,0,2,2,2,,,,,,,,,,,,,,,,,,,,,,,,,,,,,,,,,,,2,2.813458230999913,27.571951180999804,None,27.571951180999804,None,27.571951180999804,None,,,,,,,,,,,,,,,,,,,,,,,,,,,,,,,,,,,,,,,,,,,,,,,,,,,,,,,,,,,,,,,,,,,,,,,,,,,,,,,,,,,,,,,,,,,,,,,,,,,,,,012122,1,2,1,3,0,1,1,0,46,2022_Jan_21_1044,listening_fmri,3.2.4,59.90874137380064,
"Before some of the stories, we will ask you to take on the perspective of a job. ",,,0,0,0,0,0,3,3,3,,,,,,,,,,,,,,,,,,,,,,,,,,,,,,,,,,,2,3.0395436270000573,30.40501333300017,None,30.40501333300017,None,30.40501333300017,None,,,,,,,,,,,,,,,,,,,,,,,,,,,,,,,,,,,,,,,,,,,,,,,,,,,,,,,,,,,,,,,,,,,,,,,,,,,,,,,,,,,,,,,,,,,,,,,,,,,,,,012122,1,2,1,3,0,1,1,0,46,2022_Jan_21_1044,listening_fmri,3.2.4,59.90874137380064,
Please “simulate” this job while you listen to the story that follows.,,,0,0,0,0,0,4,4,4,,,,,,,,,,,,,,,,,,,,,,,,,,,,,,,,,,,3,3.4219223740001325,33.481770680999944,None,33.481770680999944,None,33.481770680999944,None,,,,,,,,,,,,,,,,,,,,,,,,,,,,,,,,,,,,,,,,,,,,,,,,,,,,,,,,,,,,,,,,,,,,,,,,,,,,,,,,,,,,,,,,,,,,,,,,,,,,,,012122,1,2,1,3,0,1,1,0,46,2022_Jan_21_1044,listening_fmri,3.2.4,59.90874137380064,
"Before you begin, we will go over how to use the button box:",,,0,0,0,0,0,5,5,5,,,,,,,,,,,,,,,,,,,,,,,,,,,,,,,,,,,4,2.169069256000057,36.931526506999944,None,36.931526506999944,None,36.931526506999944,None,,,,,,,,,,,,,,,,,,,,,,,,,,,,,,,,,,,,,,,,,,,,,,,,,,,,,,,,,,,,,,,,,,,,,,,,,,,,,,,,,,,,,,,,,,,,,,,,,,,,,,012122,1,2,1,3,0,1,1,0,46,2022_Jan_21_1044,listening_fmri,3.2.4,59.90874137380064,
"In this experiment, you'll use the first three fingers on each hand to do the quizzes and advance through the experiment. ",,,0,0,0,0,0,6,6,6,,,,,,,,,,,,,,,,,,,,,,,,,,,,,,,,,,,5,4.172681993999959,39.130961888,None,39.130961888,None,39.130961888,None,,,,,,,,,,,,,,,,,,,,,,,,,,,,,,,,,,,,,,,,,,,,,,,,,,,,,,,,,,,,,,,,,,,,,,,,,,,,,,,,,,,,,,,,,,,,,,,,,,,,,,012122,1,2,1,3,0,1,1,0,46,2022_Jan_21_1044,listening_fmri,3.2.4,59.90874137380064,
,,,0,0,0,0,,,,,,,,,,,,,,,,,,,,,,,,,,,,,,,,,,,,,,,,,,,,,,,3,5.5665820760000315,43.33105316299998,None,43.33105316299998,None,43.33105316299998,None,43.33105316299998,None,48.93178039799977,None,3,7.986830664000081,48.93178039799977,None,48.93178039799977,None,48.93178039799977,None,48.93178039799977,None,3,3.182343415000105,56.948125965000145,None,56.948125965000145,None,56.948125965000145,None,60.15520966299982,None,1,37.992402052000216,60.15520966299982,None,98.18134968599998,None,8,2.857212523999806,98.18134968599998,None,101.0551319619999,None,6,1.6914272470003198,101.0551319619999,None,102.77168317899987,None,2,1.7308636600000682,102.77168317899987,None,104.52173544400011,None,104.52173544400011,None,8,2.142864586000087,104.52173544400011,None,,,,,,,,,,,,,,,,,,,,,,,,,,,,,,,,,,,,,,,,012122,1,2,1,3,0,1,1,0,46,2022_Jan_21_1044,listening_fmri,3.2.4,59.90874137380064,
,0,parcelated_audio/41/41_1.ogg,,,,,,,,,0,0,0,0,0,0,0,0,0,0,0,0,,,,,,,,,0,0,0,0,0,0,0,0,,,,,,,,,,,,,,,,,,,,,,,,,,,,,,,,,,,,,,,,,,,,,,,,,,,,,,,,,,,,,,,,,,,,,,,,,,,,,106.68888483199999,None,equal,34.316589983000085,106.68888483199999,None,120.64518271299994,106.68888483199999,None,106.68888483199999,None,0.0003629220000220812,5.998625020000418,141.03870611999992,None,147.03876402000014,None,8,2.2157053310002084,147.03876402000014,None,147.03876402000014,None,147.03876402000014,None,149.27295397299986,None,3,17.169639496999935,149.27295397299986,None,25.447905292000087,28.456961665000108,28.46307119500034,37.595389313000396,,,,,012122,1,2,1,3,0,1,1,0,46,2022_Jan_21_1044,listening_fmri,3.2.4,59.90874137380064,
,0,parcelated_audio/41/41_2.ogg,,,,,,,,,0,0,0,0,0,0,0,0,0,0,0,0,,,,,,,,,0,0,0,0,0,1,1,1,,,,,,,,,,,,,,,,,,,,,,,,,,,,,,,,,,,,,,,,,,,,,,,,,,,,,,,,,,,,,,,,,,,,,,,,,,,,,,,,,,,,,,,,,,,,,,,,,,,,,,,,,,,,,,37.59564567900043,44.85055757600003,,,,,012122,1,2,1,3,0,1,1,0,46,2022_Jan_21_1044,listening_fmri,3.2.4,59.90874137380064,
,0,parcelated_audio/41/41_3.ogg,,,,,,,,,0,0,0,0,0,0,0,0,0,0,0,0,,,,,,,,,0,0,0,0,0,2,2,2,,,,,,,,,,,,,,,,,,,,,,,,,,,,,,,,,,,,,,,,,,,,,,,,,,,,,,,,,,,,,,,,,,,,,,,,,,,,,,,,,,,,,,,,,,,,,,,,,,,,,,,,,,,,,,44.8509073780001,49.16335620400014,,,,,012122,1,2,1,3,0,1,1,0,46,2022_Jan_21_1044,listening_fmri,3.2.4,59.90874137380064,
,0,parcelated_audio/41/41_4.ogg,,,,,,,,,0,0,0,0,0,0,0,0,0,0,0,0,,,,,,,,,0,0,0,0,0,3,3,3,,,,,,,,,,,,,,,,,,,,,,,,,,,,,,,,,,,,,,,,,,,,,,,,,,,,,,,,,,,,,,,,,,,,,,,,,,,,,,,,,,,,,,,,,,,,,,,,,,,,,,,,,,,,,,49.16370738800015,53.13566431400022,,,,,012122,1,2,1,3,0,1,1,0,46,2022_Jan_21_1044,listening_fmri,3.2.4,59.90874137380064,
,0,parcelated_audio/41/41_5.ogg,,,,,,,,,0,0,0,0,0,0,0,0,0,0,0,0,,,,,,,,,0,0,0,0,0,4,4,4,,,,,,,,,,,,,,,,,,,,,,,,,,,,,,,,,,,,,,,,,,,,,,,,,,,,,,,,,,,,,,,,,,,,,,,,,,,,,,,,,,,,,,,,,,,,,,,,,,,,,,,,,,,,,,53.13616240800002,59.26734612700011,,,,,012122,1,2,1,3,0,1,1,0,46,2022_Jan_21_1044,listening_fmri,3.2.4,59.90874137380064,
,0,parcelated_audio/41/41_6.ogg,,,,,,,,,0,0,0,0,0,0,0,0,0,0,0,0,,,,,,,,,0,0,0,0,0,5,5,5,,,,,,,,,,,,,,,,,,,,,,,,,,,,,,,,,,,,,,,,,,,,,,,,,,,,,,,,,,,,,,,,,,,,,,,,,,,,,,,,,,,,,,,,,,,,,,,,,,,,,,,,,,,,,,59.26769551800044,69.18726345100004,,,,,012122,1,2,1,3,0,1,1,0,46,2022_Jan_21_1044,listening_fmri,3.2.4,59.90874137380064,
,0,parcelated_audio/41/41_7.ogg,,,,,,,,,0,0,0,0,0,0,0,0,0,0,0,0,,,,,,,,,0,0,0,0,0,6,6,6,,,,,,,,,,,,,,,,,,,,,,,,,,,,,,,,,,,,,,,,,,,,,,,,,,,,,,,,,,,,,,,,,,,,,,,,,,,,,,,,,,,,,,,,,,,,,,,,,,,,,,,,,,,,,,69.18761956200024,76.92912331000025,,,,,012122,1,2,1,3,0,1,1,0,46,2022_Jan_21_1044,listening_fmri,3.2.4,59.90874137380064,
,0,parcelated_audio/41/41_8.ogg,,,,,,,,,0,0,0,0,0,0,0,0,0,0,0,0,,,,,,,,,0,0,0,0,0,7,7,7,,,,,,,,,,,,,,,,,,,,,,,,,,,,,,,,,,,,,,,,,,,,,,,,,,,,,,,,,,,,,,,,,,,,,,,,,,,,,,,,,,,,,,,,,,,,,,,,,,,,,,,,,,,,,,76.92963157800023,81.17412479500035,,,,,012122,1,2,1,3,0,1,1,0,46,2022_Jan_21_1044,listening_fmri,3.2.4,59.90874137380064,
,0,parcelated_audio/41/41_9.ogg,,,,,,,,,0,0,0,0,0,0,0,0,0,0,0,0,,,,,,,,,0,0,0,0,0,8,8,8,,,,,,,,,,,,,,,,,,,,,,,,,,,,,,,,,,,,,,,,,,,,,,,,,,,,,,,,,,,,,,,,,,,,,,,,,,,,,,,,,,,,,,,,,,,,,,,,,,,,,,,,,,,,,,81.17464335800014,90.8218666040002,,,,,012122,1,2,1,3,0,1,1,0,46,2022_Jan_21_1044,listening_fmri,3.2.4,59.90874137380064,
,0,parcelated_audio/41/41_10.ogg,,,,,,,,,0,0,0,0,0,0,0,0,0,0,0,0,,,,,,,,,0,0,0,0,0,9,9,9,,,,,,,,,,,,,,,,,,,,,,,,,,,,,,,,,,,,,,,,,,,,,,,,,,,,,,,,,,,,,,,,,,,,,,,,,,,,,,,,,,,,,,,,,,,,,,,,,,,,,,,,,,,,,,90.82221799000035,97.32876982900007,,,,,012122,1,2,1,3,0,1,1,0,46,2022_Jan_21_1044,listening_fmri,3.2.4,59.90874137380064,
,0,parcelated_audio/41/41_11.ogg,,,,,,,,,0,0,0,0,0,0,0,0,0,0,0,0,,,,,,,,,0,0,0,0,0,10,10,10,,,,,,,,,,,,,,,,,,,,,,,,,,,,,,,,,,,,,,,,,,,,,,,,,,,,,,,,,,,,,,,,,,,,,,,,,,,,,,,,,,,,,,,,,,,,,,,,,,,,,,,,,,,,,,97.3291439630002,101.10223148400019,,,,,012122,1,2,1,3,0,1,1,0,46,2022_Jan_21_1044,listening_fmri,3.2.4,59.90874137380064,
,0,parcelated_audio/41/41_12.ogg,,,,,,,,,0,0,0,0,0,0,0,0,0,0,0,0,,,,,,,,,0,0,0,0,0,11,11,11,,,,,,,,,,,,,,,,,,,,,,,,,,,,,,,,,,,,,,,,,,,,,,,,,,,,,,,,,,,,,,,,,,,,,,,,,,,,,,,,,,,,,,,,,,,,,,,,,,,,,,,,,,,,,,101.10258023900042,110.85425481000038,,,,,012122,1,2,1,3,0,1,1,0,46,2022_Jan_21_1044,listening_fmri,3.2.4,59.90874137380064,
,0,parcelated_audio/41/41_13.ogg,,,,,,,,,0,0,0,0,0,0,0,0,0,0,0,0,,,,,,,,,0,0,0,0,0,12,12,12,,,,,,,,,,,,,,,,,,,,,,,,,,,,,,,,,,,,,,,,,,,,,,,,,,,,,,,,,,,,,,,,,,,,,,,,,,,,,,,,,,,,,,,,,,,,,,,,,,,,,,,,,,,,,,110.85460870700035,116.69933010700015,,,,,012122,1,2,1,3,0,1,1,0,46,2022_Jan_21_1044,listening_fmri,3.2.4,59.90874137380064,
,0,parcelated_audio/41/41_14.ogg,,,,,,,,,0,0,0,0,0,0,0,0,0,0,0,0,,,,,,,,,0,0,0,0,0,13,13,13,,,,,,,,,,,,,,,,,,,,,,,,,,,,,,,,,,,,,,,,,,,,,,,,,,,,,,,,,,,,,,,,,,,,,,,,,,,,,,,,,,,,,,,,,,,,,,,,,,,,,,,,,,,,,,116.69967841700009,123.9283428800004,,,,,012122,1,2,1,3,0,1,1,0,46,2022_Jan_21_1044,listening_fmri,3.2.4,59.90874137380064,
,0,parcelated_audio/41/41_15.ogg,,,,,,,,,0,0,0,0,0,0,0,0,0,0,0,0,,,,,,,,,0,0,0,0,0,14,14,14,,,,,,,,,,,,,,,,,,,,,,,,,,,,,,,,,,,,,,,,,,,,,,,,,,,,,,,,,,,,,,,,,,,,,,,,,,,,,,,,,,,,,,,,,,,,,,,,,,,,,,,,,,,,,,123.92869444600001,127.35931345500012,,,,,012122,1,2,1,3,0,1,1,0,46,2022_Jan_21_1044,listening_fmri,3.2.4,59.90874137380064,
,0,parcelated_audio/41/41_16.ogg,,,,,,,,,0,0,0,0,0,0,0,0,0,0,0,0,,,,,,,,,0,0,0,0,0,15,15,15,,,,,,,,,,,,,,,,,,,,,,,,,,,,,,,,,,,,,,,,,,,,,,,,,,,,,,,,,,,,,,,,,,,,,,,,,,,,,,,,,,,,,,,,,,,,,,,,,,,,,,,,,,,,,,127.35966580700006,132.226299164,,,,,012122,1,2,1,3,0,1,1,0,46,2022_Jan_21_1044,listening_fmri,3.2.4,59.90874137380064,
,0,parcelated_audio/41/41_17.ogg,,,,,,,,,0,0,0,0,0,0,0,0,0,0,0,0,,,,,,,,,0,0,0,0,0,16,16,16,,,,,,,,,,,,,,,,,,,,,,,,,,,,,,,,,,,,,,,,,,,,,,,,,,,,,,,,,,,,,,,,,,,,,,,,,,,,,,,,,,,,,,,,,,,,,,,,,,,,,,,,,,,,,,132.22664618000044,136.40595446600037,,,,,012122,1,2,1,3,0,1,1,0,46,2022_Jan_21_1044,listening_fmri,3.2.4,59.90874137380064,
,0,parcelated_audio/41/41_18.ogg,,,,,,,,,0,0,0,0,0,0,0,0,0,0,0,0,,,,,,,,,0,0,0,0,0,17,17,17,,,,,,,,,,,,,,,,,,,,,,,,,,,,,,,,,,,,,,,,,,,,,,,,,,,,,,,,,,,,,,,,,,,,,,,,,,,,,,,,,,,,,,,,,,,,,,,,,,,,,,,,,,,,,,136.4064080330004,138.93669727800034,,,,,012122,1,2,1,3,0,1,1,0,46,2022_Jan_21_1044,listening_fmri,3.2.4,59.90874137380064,
,0,parcelated_audio/41/41_19.ogg,,,,,,,,,0,0,0,0,0,0,0,0,0,0,0,0,,,,,,,,,0,0,0,0,0,18,18,18,,,,,,,,,,,,,,,,,,,,,,,,,,,,,,,,,,,,,,,,,,,,,,,,,,,,,,,,,,,,,,,,,,,,,,,,,,,,,,,,,,,,,,,,,,,,,,,,,,,,,,,,,,,,,,138.93704568900012,145.82720202100018,,,,,012122,1,2,1,3,0,1,1,0,46,2022_Jan_21_1044,listening_fmri,3.2.4,59.90874137380064,
,0,parcelated_audio/41/41_20.ogg,,,,,,,,,0,0,0,0,0,0,0,0,0,0,0,0,,,,,,,,,0,0,0,0,0,19,19,19,,,,,,,,,,,,,,,,,,,,,,,,,,,,,,,,,,,,,,,,,,,,,,,,,,,,,,,,,,,,,,,,,,,,,,,,,,,,,,,,,,,,,,,,,,,,,,,,,,,,,,,,,,,,,,145.82754838000028,150.75547594700038,,,,,012122,1,2,1,3,0,1,1,0,46,2022_Jan_21_1044,listening_fmri,3.2.4,59.90874137380064,
,0,parcelated_audio/41/41_21.ogg,,,,,,,,,0,0,0,0,0,0,0,0,0,0,0,0,,,,,,,,,0,0,0,0,0,20,20,20,,,,,,,,,,,,,,,,,,,,,,,,,,,,,,,,,,,,,,,,,,,,,,,,,,,,,,,,,,,,,,,,,,,,,,,,,,,,,,,,,,,,,,,,,,,,,,,,,,,,,,,,,,,,,,150.7557957250001,158.55519176200005,,,,,012122,1,2,1,3,0,1,1,0,46,2022_Jan_21_1044,listening_fmri,3.2.4,59.90874137380064,
,0,parcelated_audio/41/41_22.ogg,,,,,,,,,0,0,0,0,0,0,0,0,0,0,0,0,,,,,,,,,0,0,0,0,0,21,21,21,,,,,,,,,,,,,,,,,,,,,,,,,,,,,,,,,,,,,,,,,,,,,,,,,,,,,,,,,,,,,,,,,,,,,,,,,,,,,,,,,,,,,,,,,,,,,,,,,,,,,,,,,,,,,,158.55558050000036,174.36532107600033,,,,,012122,1,2,1,3,0,1,1,0,46,2022_Jan_21_1044,listening_fmri,3.2.4,59.90874137380064,
,0,parcelated_audio/41/41_23.ogg,,,,,,,,,0,0,0,0,0,0,0,0,0,0,0,0,,,,,,,,,0,0,0,0,0,22,22,22,,,,,,,,,,,,,,,,,,,,,,,,,,,,,,,,,,,,,,,,,,,,,,,,,,,,,,,,,,,,,,,,,,,,,,,,,,,,,,,,,,,,,,,,,,,,,,,,,,,,,,,,,,,,,,174.36567474000003,180.35687466900026,,,,,012122,1,2,1,3,0,1,1,0,46,2022_Jan_21_1044,listening_fmri,3.2.4,59.90874137380064,
,0,parcelated_audio/41/41_24.ogg,,,,,,,,,0,0,0,0,0,0,0,0,0,0,0,0,,,,,,,,,0,0,0,0,0,23,23,23,,,,,,,,,,,,,,,,,,,,,,,,,,,,,,,,,,,,,,,,,,,,,,,,,,,,,,,,,,,,,,,,,,,,,,,,,,,,,,,,,,,,,,,,,,,,,,,,,,,,,,,,,,,,,,180.3572434280004,187.01292079600034,,,,,012122,1,2,1,3,0,1,1,0,46,2022_Jan_21_1044,listening_fmri,3.2.4,59.90874137380064,
,0,parcelated_audio/41/41_25.ogg,,,,,,,,,0,0,0,0,0,0,0,0,0,0,0,0,,,,,,,,,0,0,0,0,0,24,24,24,,,,,,,,,,,,,,,,,,,,,,,,,,,,,,,,,,,,,,,,,,,,,,,,,,,,,,,,,,,,,,,,,,,,,,,,,,,,,,,,,,,,,,,,,,,,,,,,,,,,,,,,,,,,,,187.01329477700028,190.38205050800025,,,,,012122,1,2,1,3,0,1,1,0,46,2022_Jan_21_1044,listening_fmri,3.2.4,59.90874137380064,
,0,parcelated_audio/41/41_26.ogg,,,,,,,,,0,0,0,0,0,0,0,0,0,0,0,0,,,,,,,,,0,0,0,0,0,25,25,25,,,,,,,,,,,,,,,,,,,,,,,,,,,,,,,,,,,,,,,,,,,,,,,,,,,,,,,,,,,,,,,,,,,,,,,,,,,,,,,,,,,,,,,,,,,,,,,,,,,,,,,,,,,,,,190.3824188360004,195.9101313670003,,,,,012122,1,2,1,3,0,1,1,0,46,2022_Jan_21_1044,listening_fmri,3.2.4,59.90874137380064,
,0,parcelated_audio/41/41_27.ogg,,,,,,,,,0,0,0,0,0,0,0,0,0,0,0,0,,,,,,,,,0,0,0,0,0,26,26,26,,,,,,,,,,,,,,,,,,,,,,,,,,,,,,,,,,,,,,,,,,,,,,,,,,,,,,,,,,,,,,,,,,,,,,,,,,,,,,,,,,,,,,,,,,,,,,,,,,,,,,,,,,,,,,195.91048364800008,199.78216368100038,,,,,012122,1,2,1,3,0,1,1,0,46,2022_Jan_21_1044,listening_fmri,3.2.4,59.90874137380064,
,0,parcelated_audio/41/41_28.ogg,,,,,,,,,0,0,0,0,0,0,0,0,0,0,0,0,,,,,,,,,0,0,0,0,0,27,27,27,,,,,,,,,,,,,,,,,,,,,,,,,,,,,,,,,,,,,,,,,,,,,,,,,,,,,,,,,,,,,,,,,,,,,,,,,,,,,,,,,,,,,,,,,,,,,,,,,,,,,,,,,,,,,,199.78251549900006,208.13943443200014,,,,,012122,1,2,1,3,0,1,1,0,46,2022_Jan_21_1044,listening_fmri,3.2.4,59.90874137380064,
,0,parcelated_audio/41/41_29.ogg,,,,,,,,,0,0,0,0,0,0,0,0,0,0,0,0,,,,,,,,,0,0,0,0,0,28,28,28,,,,,,,,,,,,,,,,,,,,,,,,,,,,,,,,,,,,,,,,,,,,,,,,,,,,,,,,,,,,,,,,,,,,,,,,,,,,,,,,,,,,,,,,,,,,,,,,,,,,,,,,,,,,,,208.13988727700007,214.76337659800038,,,,,012122,1,2,1,3,0,1,1,0,46,2022_Jan_21_1044,listening_fmri,3.2.4,59.90874137380064,
,0,parcelated_audio/41/41_30.ogg,,,,,,,,,0,0,0,0,0,0,0,0,0,0,0,0,,,,,,,,,0,0,0,0,0,29,29,29,,,,,,,,,,,,,,,,,,,,,,,,,,,,,,,,,,,,,,,,,,,,,,,,,,,,,,,,,,,,,,,,,,,,,,,,,,,,,,,,,,,,,,,,,,,,,,,,,,,,,,,,,,,,,,214.763734698,223.47265325700027,,,,,012122,1,2,1,3,0,1,1,0,46,2022_Jan_21_1044,listening_fmri,3.2.4,59.90874137380064,
,0,parcelated_audio/41/41_31.ogg,,,,,,,,,0,0,0,0,0,0,0,0,0,0,0,0,,,,,,,,,0,0,0,0,0,30,30,30,,,,,,,,,,,,,,,,,,,,,,,,,,,,,,,,,,,,,,,,,,,,,,,,,,,,,,,,,,,,,,,,,,,,,,,,,,,,,,,,,,,,,,,,,,,,,,,,,,,,,,,,,,,,,,223.47314265700015,234.2231609620003,,,,,012122,1,2,1,3,0,1,1,0,46,2022_Jan_21_1044,listening_fmri,3.2.4,59.90874137380064,
,0,parcelated_audio/41/41_32.ogg,,,,,,,,,0,0,0,0,0,0,0,0,0,0,0,0,,,,,,,,,0,0,0,0,0,31,31,31,,,,,,,,,,,,,,,,,,,,,,,,,,,,,,,,,,,,,,,,,,,,,,,,,,,,,,,,,,,,,,,,,,,,,,,,,,,,,,,,,,,,,,,,,,,,,,,,,,,,,,,,,,,,,,234.22346321000032,242.56565043400042,,,,,012122,1,2,1,3,0,1,1,0,46,2022_Jan_21_1044,listening_fmri,3.2.4,59.90874137380064,
,0,parcelated_audio/41/41_33.ogg,,,,,,,,,0,0,0,0,0,0,0,0,0,0,0,0,,,,,,,,,0,0,0,0,0,32,32,32,,,,,,,,,,,,,,,,,,,,,,,,,,,,,,,,,,,,,,,,,,,,,,,,,,,,,,,,,,,,,,,,,,,,,,,,,,,,,,,,,,,,,,,,,,,,,,,,,,,,,,,,,,,,,,242.56600432700043,246.6487912460002,,,,,012122,1,2,1,3,0,1,1,0,46,2022_Jan_21_1044,listening_fmri,3.2.4,59.90874137380064,
,0,parcelated_audio/41/41_34.ogg,,,,,,,,,0,0,0,0,0,0,0,0,0,0,0,0,,,,,,,,,0,0,0,0,0,33,33,33,,,,,,,,,,,,,,,,,,,,,,,,,,,,,,,,,,,,,,,,,,,,,,,,,,,,,,,,,,,,,,,,,,,,,,,,,,,,,,,,,,,,,,,,,,,,,,,,,,,,,,,,,,,,,,246.64914612100029,252.17693084600023,,,,,012122,1,2,1,3,0,1,1,0,46,2022_Jan_21_1044,listening_fmri,3.2.4,59.90874137380064,
,0,parcelated_audio/41/41_35.ogg,,,,,,,,,0,0,0,0,0,0,0,0,0,0,0,0,,,,,,,,,0,0,0,0,0,34,34,34,,,,,,,,,,,,,,,,,,,,,,,,,,,,,,,,,,,,,,,,,,,,,,,,,,,,,,,,,,,,,,,,,,,,,,,,,,,,,,,,,,,,,,,,,,,,,,,,,,,,,,,,,,,,,,252.17727647500033,257.73944106700037,,,,,012122,1,2,1,3,0,1,1,0,46,2022_Jan_21_1044,listening_fmri,3.2.4,59.90874137380064,
,0,parcelated_audio/41/41_36.ogg,,,,,,,,,0,0,0,0,0,0,0,0,0,0,0,0,,,,,,,,,0,0,0,0,0,35,35,35,,,,,,,,,,,,,,,,,,,,,,,,,,,,,,,,,,,,,,,,,,,,,,,,,,,,,,,,,,,,,,,,,,,,,,,,,,,,,,,,,,,,,,,,,,,,,,,,,,,,,,,,,,,,,,257.7397869010001,264.7643361920004,,,,,012122,1,2,1,3,0,1,1,0,46,2022_Jan_21_1044,listening_fmri,3.2.4,59.90874137380064,
,0,parcelated_audio/41/41_37.ogg,,,,,,,,,0,0,0,0,0,0,0,0,0,0,0,0,,,,,,,,,0,0,0,0,0,36,36,36,,,,,,,,,,,,,,,,,,,,,,,,,,,,,,,,,,,,,,,,,,,,,,,,,,,,,,,,,,,,,,,,,,,,,,,,,,,,,,,,,,,,,,,,,,,,,,,,,,,,,,,,,,,,,,264.7646829590003,270.2515704370003,,,,,012122,1,2,1,3,0,1,1,0,46,2022_Jan_21_1044,listening_fmri,3.2.4,59.90874137380064,
,0,,,,,,,,,,0,0,0,0,0,0,0,0,0,0,0,0,,,,,,,,,0,0,0,0,,,,,,,,,,,,,,,,,,,,,,,,,,,,,,,,,,,,,,,,,,,,,,,,,,,,,,,,,,,,,,,,,,,,,,,,,,,,,,,,,,,,,,,,,,,,,,,,,,,,,,,,,,,,,,,,,,,,,,,,012122,1,2,1,3,0,1,1,0,46,2022_Jan_21_1044,listening_fmri,3.2.4,59.90874137380064,
,,,,,,,,,,,,,,,,,,,,,,,,,,,,,,,,,,,,,,,,,,,,,,,,,,,,,,,,,,,,,,,,,,,,,,,,,,,,,,,,,,,,,,,,,,,,,,,,,,,,,,,,,,,,,,,,,,,,,,,,,,,,,,270.2520631470002,276.2497760260003,411.2890737550001,None,,,,,,,,,,,,,,,,,,,,,417.2891485330001,None,417.2891485330001,None,,,,,,,,,,,,,,,
﻿instructions,count,audio,trials_14.thisRepN,trials_14.thisTrialN,trials_14.thisN,trials_14.thisIndex,trials_13.thisRepN,trials_13.thisTrialN,trials_13.thisN,trials_13.thisIndex,trials_3.thisRepN,trials_3.thisTrialN,trials_3.thisN,trials_3.thisIndex,Block1.thisRepN,Block1.thisTrialN,Block1.thisN,Block1.thisIndex,trials_5.thisRepN,trials_5.thisTrialN,trials_5.thisN,trials_5.thisIndex,trials.thisRepN,trials.thisTrialN,trials.thisN,trials.thisIndex,trials_2.thisRepN,trials_2.thisTrialN,trials_2.thisN,trials_2.thisIndex,trials_22.thisRepN,trials_22.thisTrialN,trials_22.thisN,trials_22.thisIndex,trials_16.thisRepN,trials_16.thisTrialN,trials_16.thisN,trials_16.thisIndex,trials_23.thisRepN,trials_23.thisTrialN,trials_23.thisN,trials_23.thisIndex,trials_7.thisRepN,trials_7.thisTrialN,trials_7.thisN,trials_7.thisIndex,story_list_block1,action_list_block1,key_resp_5.keys,key_resp_5.rt,key_resp_5.started,key_resp_5.stopped,text_87.started,text_87.stopped,text_88.started,text_88.stopped,key_resp_31.keys,key_resp_31.rt,key_resp_31.started,key_resp_31.stopped,text_89.started,text_89.stopped,image_27.started,image_27.stopped,text_97.started,text_97.stopped,image_24.started,image_24.stopped,key_resp_21.keys,key_resp_21.rt,key_resp_21.started,key_resp_21.stopped,text_78.started,text_78.stopped,text_96.started,text_96.stopped,image_28.started,image_28.stopped,key_resp_36.keys,key_resp_36.rt,key_resp_36.started,key_resp_36.stopped,text_94.started,text_94.stopped,text_95.started,text_95.stopped,text_90.started,text_90.stopped,key_resp_32.keys,key_resp_32.rt,key_resp_32.started,key_resp_32.stopped,text_91.started,text_91.stopped,key_resp_33.keys,key_resp_33.rt,key_resp_33.started,key_resp_33.stopped,text_92.started,text_92.stopped,key_resp_34.keys,key_resp_34.rt,key_resp_34.started,key_resp_34.stopped,text_93.started,text_93.stopped,key_resp_35.keys,key_resp_35.rt,key_resp_35.started,key_resp_35.stopped,text_98.started,text_98.stopped,text_99.started,text_99.stopped,key_resp_37.keys,key_resp_37.rt,key_resp_37.started,key_resp_37.stopped,textTrigger.started,textTrigger.stopped,getTrigger.keys,getTrigger.rt,getTrigger.started,getTrigger.stopped,triggerTime,text_76.started,text_76.stopped,text_77.started,text_77.stopped,startWait,endWait,image_23.started,image_23.stopped,text_38.started,text_38.stopped,key_resp_8.keys,key_resp_8.rt,key_resp_8.started,key_resp_8.stopped,text_39.started,text_39.stopped,text.started,text.stopped,text_50.started,text_50.stopped,key_resp_14.keys,key_resp_14.rt,key_resp_14.started,key_resp_14.stopped,storyImage_StartTime,storyImage_EndTime,clip_StartTime,clip_EndTime,text_6.started,text_6.stopped,text_52.started,text_52.stopped,text_33.started,text_33.stopped,key_resp_30.keys,key_resp_30.rt,key_resp_30.started,key_resp_30.stopped,text_79.started,text_79.stopped,text_4.started,text_4.stopped,image.started,image.stopped,text_5.started,text_5.stopped,key_resp_22.keys,key_resp_22.rt,key_resp_22.started,key_resp_22.stopped,text_37.started,text_37.stopped,key_resp_7.keys,key_resp_7.rt,key_resp_7.started,key_resp_7.stopped,text_80.started,text_80.stopped,question1_3.started,question1_3.stopped,question2_3.started,question2_3.stopped,question3_3.started,question3_3.stopped,question4_3.started,question4_3.stopped,question5_3.started,question5_3.stopped,question6_3.started,question6_3.stopped,image_16.started,image_16.stopped,text_49.started,text_49.stopped,key_resp_15.keys,key_resp_15.rt,key_resp_15.started,key_resp_15.stopped,text_81.started,text_81.stopped,participant,sA,sB,lA,lB,block_struct,play_stories,block,behavioral,random_seed,date,expName,psychopyVersion,frameRate,
Welcome to the story listening part of the experiment. ,,,0,0,0,0,0,0,0,0,,,,,,,,,,,,,,,,,,,,,,,,,,,,,,,,,,,,,[41 14 23 21 32 12 43 34],[4 2 1 1 3 2 4 3],1,1.6705096229998162,20.40595217400005,None,20.40595217400005,None,20.40595217400005,None,,,,,,,,,,,,,,,,,,,,,,,,,,,,,,,,,,,,,,,,,,,,,,,,,,,,,,,,,,,,,,,,,,,,,,,,,,,,,,,,,,,,,,,,,,,,,,,,,,,,,,,,,,,,,,,,,,,,,,,,,,,,,,,,,,,,,,,,,,,,,,,,,,,,,,012122,1,2,1,3,0,1,1,0,46,2022_Jan_21_1044,listening_fmri,3.2.4,59.90874137380064,
"As a reminder, you will listen to 12 short stories.",,,0,0,0,0,0,1,1,1,,,,,,,,,,,,,,,,,,,,,,,,,,,,,,,,,,,,,,,2,5.433745122000346,22.114720750999822,None,22.114720750999822,None,22.114720750999822,None,,,,,,,,,,,,,,,,,,,,,,,,,,,,,,,,,,,,,,,,,,,,,,,,,,,,,,,,,,,,,,,,,,,,,,,,,,,,,,,,,,,,,,,,,,,,,,,,,,,,,,,,,,,,,,,,,,,,,,,,,,,,,,,,,,,,,,,,,,,,,,,,,,,,,,012122,1,2,1,3,0,1,1,0,46,2022_Jan_21_1044,listening_fmri,3.2.4,59.90874137380064,
These stories will be divided into 2 blocks of 6 stories.,,,0,0,0,0,0,2,2,2,,,,,,,,,,,,,,,,,,,,,,,,,,,,,,,,,,,,,,,2,2.813458230999913,27.571951180999804,None,27.571951180999804,None,27.571951180999804,None,,,,,,,,,,,,,,,,,,,,,,,,,,,,,,,,,,,,,,,,,,,,,,,,,,,,,,,,,,,,,,,,,,,,,,,,,,,,,,,,,,,,,,,,,,,,,,,,,,,,,,,,,,,,,,,,,,,,,,,,,,,,,,,,,,,,,,,,,,,,,,,,,,,,,,012122,1,2,1,3,0,1,1,0,46,2022_Jan_21_1044,listening_fmri,3.2.4,59.90874137380064,
"Before some of the stories, we will ask you to take on the perspective of a job. ",,,0,0,0,0,0,3,3,3,,,,,,,,,,,,,,,,,,,,,,,,,,,,,,,,,,,,,,,2,3.0395436270000573,30.40501333300017,None,30.40501333300017,None,30.40501333300017,None,,,,,,,,,,,,,,,,,,,,,,,,,,,,,,,,,,,,,,,,,,,,,,,,,,,,,,,,,,,,,,,,,,,,,,,,,,,,,,,,,,,,,,,,,,,,,,,,,,,,,,,,,,,,,,,,,,,,,,,,,,,,,,,,,,,,,,,,,,,,,,,,,,,,,,012122,1,2,1,3,0,1,1,0,46,2022_Jan_21_1044,listening_fmri,3.2.4,59.90874137380064,
Please “simulate” this job while you listen to the story that follows.,,,0,0,0,0,0,4,4,4,,,,,,,,,,,,,,,,,,,,,,,,,,,,,,,,,,,,,,,3,3.4219223740001325,33.481770680999944,None,33.481770680999944,None,33.481770680999944,None,,,,,,,,,,,,,,,,,,,,,,,,,,,,,,,,,,,,,,,,,,,,,,,,,,,,,,,,,,,,,,,,,,,,,,,,,,,,,,,,,,,,,,,,,,,,,,,,,,,,,,,,,,,,,,,,,,,,,,,,,,,,,,,,,,,,,,,,,,,,,,,,,,,,,,012122,1,2,1,3,0,1,1,0,46,2022_Jan_21_1044,listening_fmri,3.2.4,59.90874137380064,
"Before you begin, we will go over how to use the button box:",,,0,0,0,0,0,5,5,5,,,,,,,,,,,,,,,,,,,,,,,,,,,,,,,,,,,,,,,4,2.169069256000057,36.931526506999944,None,36.931526506999944,None,36.931526506999944,None,,,,,,,,,,,,,,,,,,,,,,,,,,,,,,,,,,,,,,,,,,,,,,,,,,,,,,,,,,,,,,,,,,,,,,,,,,,,,,,,,,,,,,,,,,,,,,,,,,,,,,,,,,,,,,,,,,,,,,,,,,,,,,,,,,,,,,,,,,,,,,,,,,,,,,012122,1,2,1,3,0,1,1,0,46,2022_Jan_21_1044,listening_fmri,3.2.4,59.90874137380064,
"In this experiment, you'll use the first three fingers on each hand to do the quizzes and advance through the experiment. ",,,0,0,0,0,0,6,6,6,,,,,,,,,,,,,,,,,,,,,,,,,,,,,,,,,,,,,,,5,4.172681993999959,39.130961888,None,39.130961888,None,39.130961888,None,,,,,,,,,,,,,,,,,,,,,,,,,,,,,,,,,,,,,,,,,,,,,,,,,,,,,,,,,,,,,,,,,,,,,,,,,,,,,,,,,,,,,,,,,,,,,,,,,,,,,,,,,,,,,,,,,,,,,,,,,,,,,,,,,,,,,,,,,,,,,,,,,,,,,,012122,1,2,1,3,0,1,1,0,46,2022_Jan_21_1044,listening_fmri,3.2.4,59.90874137380064,
,,,0,0,0,0,,,,,,,,,,,,,,,,,,,,,,,,,,,,,,,,,,,,,,,,,,,,,,,,,,,3,5.5665820760000315,43.33105316299998,None,43.33105316299998,None,43.33105316299998,None,43.33105316299998,None,48.93178039799977,None,3,7.986830664000081,48.93178039799977,None,48.93178039799977,None,48.93178039799977,None,48.93178039799977,None,3,3.182343415000105,56.948125965000145,None,56.948125965000145,None,56.948125965000145,None,60.15520966299982,None,1,37.992402052000216,60.15520966299982,None,98.18134968599998,None,8,2.857212523999806,98.18134968599998,None,101.0551319619999,None,6,1.6914272470003198,101.0551319619999,None,102.77168317899987,None,2,1.7308636600000682,102.77168317899987,None,104.52173544400011,None,104.52173544400011,None,8,2.142864586000087,104.52173544400011,None,,,,,,,,,,,,,,,,,,,,,,,,,,,,,,,,,,,,,,,,,,,,,,,,,,,,,,,,,,,,,,,,,,,,,,,,,,,,,,,,,,,,,,,,012122,1,2,1,3,0,1,1,0,46,2022_Jan_21_1044,listening_fmri,3.2.4,59.90874137380064,
,0,parcelated_audio/41/41_1.ogg,,,,,,,,,0,0,0,0,0,0,0,0,0,0,0,0,,,,,,,,,0,0,0,0,0,0,0,0,,,,,,,,,,,,,,,,,,,,,,,,,,,,,,,,,,,,,,,,,,,,,,,,,,,,,,,,,,,,,,,,,,,,,,,,,,,,,,,,,106.68888483199999,None,equal,34.316589983000085,106.68888483199999,None,120.64518271299994,106.68888483199999,None,106.68888483199999,None,0.0003629220000220812,5.998625020000418,141.03870611999992,None,147.03876402000014,None,8,2.2157053310002084,147.03876402000014,None,147.03876402000014,None,147.03876402000014,None,149.27295397299986,None,3,17.169639496999935,149.27295397299986,None,25.447905292000087,28.456961665000108,28.46307119500034,37.595389313000396,,,,,,,,,,,,,,,,,,,,,,,,,,,,,,,,,,,,,,,,,,,,,,,,,,,,,012122,1,2,1,3,0,1,1,0,46,2022_Jan_21_1044,listening_fmri,3.2.4,59.90874137380064,
,0,parcelated_audio/41/41_2.ogg,,,,,,,,,0,0,0,0,0,0,0,0,0,0,0,0,,,,,,,,,0,0,0,0,0,1,1,1,,,,,,,,,,,,,,,,,,,,,,,,,,,,,,,,,,,,,,,,,,,,,,,,,,,,,,,,,,,,,,,,,,,,,,,,,,,,,,,,,,,,,,,,,,,,,,,,,,,,,,,,,,,,,,,,,,37.59564567900043,44.85055757600003,,,,,,,,,,,,,,,,,,,,,,,,,,,,,,,,,,,,,,,,,,,,,,,,,,,,,012122,1,2,1,3,0,1,1,0,46,2022_Jan_21_1044,listening_fmri,3.2.4,59.90874137380064,
,0,parcelated_audio/41/41_3.ogg,,,,,,,,,0,0,0,0,0,0,0,0,0,0,0,0,,,,,,,,,0,0,0,0,0,2,2,2,,,,,,,,,,,,,,,,,,,,,,,,,,,,,,,,,,,,,,,,,,,,,,,,,,,,,,,,,,,,,,,,,,,,,,,,,,,,,,,,,,,,,,,,,,,,,,,,,,,,,,,,,,,,,,,,,,44.8509073780001,49.16335620400014,,,,,,,,,,,,,,,,,,,,,,,,,,,,,,,,,,,,,,,,,,,,,,,,,,,,,012122,1,2,1,3,0,1,1,0,46,2022_Jan_21_1044,listening_fmri,3.2.4,59.90874137380064,
,0,parcelated_audio/41/41_4.ogg,,,,,,,,,0,0,0,0,0,0,0,0,0,0,0,0,,,,,,,,,0,0,0,0,0,3,3,3,,,,,,,,,,,,,,,,,,,,,,,,,,,,,,,,,,,,,,,,,,,,,,,,,,,,,,,,,,,,,,,,,,,,,,,,,,,,,,,,,,,,,,,,,,,,,,,,,,,,,,,,,,,,,,,,,,49.16370738800015,53.13566431400022,,,,,,,,,,,,,,,,,,,,,,,,,,,,,,,,,,,,,,,,,,,,,,,,,,,,,012122,1,2,1,3,0,1,1,0,46,2022_Jan_21_1044,listening_fmri,3.2.4,59.90874137380064,
,0,parcelated_audio/41/41_5.ogg,,,,,,,,,0,0,0,0,0,0,0,0,0,0,0,0,,,,,,,,,0,0,0,0,0,4,4,4,,,,,,,,,,,,,,,,,,,,,,,,,,,,,,,,,,,,,,,,,,,,,,,,,,,,,,,,,,,,,,,,,,,,,,,,,,,,,,,,,,,,,,,,,,,,,,,,,,,,,,,,,,,,,,,,,,53.13616240800002,59.26734612700011,,,,,,,,,,,,,,,,,,,,,,,,,,,,,,,,,,,,,,,,,,,,,,,,,,,,,012122,1,2,1,3,0,1,1,0,46,2022_Jan_21_1044,listening_fmri,3.2.4,59.90874137380064,
,0,parcelated_audio/41/41_6.ogg,,,,,,,,,0,0,0,0,0,0,0,0,0,0,0,0,,,,,,,,,0,0,0,0,0,5,5,5,,,,,,,,,,,,,,,,,,,,,,,,,,,,,,,,,,,,,,,,,,,,,,,,,,,,,,,,,,,,,,,,,,,,,,,,,,,,,,,,,,,,,,,,,,,,,,,,,,,,,,,,,,,,,,,,,,59.26769551800044,69.18726345100004,,,,,,,,,,,,,,,,,,,,,,,,,,,,,,,,,,,,,,,,,,,,,,,,,,,,,012122,1,2,1,3,0,1,1,0,46,2022_Jan_21_1044,listening_fmri,3.2.4,59.90874137380064,
,0,parcelated_audio/41/41_7.ogg,,,,,,,,,0,0,0,0,0,0,0,0,0,0,0,0,,,,,,,,,0,0,0,0,0,6,6,6,,,,,,,,,,,,,,,,,,,,,,,,,,,,,,,,,,,,,,,,,,,,,,,,,,,,,,,,,,,,,,,,,,,,,,,,,,,,,,,,,,,,,,,,,,,,,,,,,,,,,,,,,,,,,,,,,,69.18761956200024,76.92912331000025,,,,,,,,,,,,,,,,,,,,,,,,,,,,,,,,,,,,,,,,,,,,,,,,,,,,,012122,1,2,1,3,0,1,1,0,46,2022_Jan_21_1044,listening_fmri,3.2.4,59.90874137380064,
,0,parcelated_audio/41/41_8.ogg,,,,,,,,,0,0,0,0,0,0,0,0,0,0,0,0,,,,,,,,,0,0,0,0,0,7,7,7,,,,,,,,,,,,,,,,,,,,,,,,,,,,,,,,,,,,,,,,,,,,,,,,,,,,,,,,,,,,,,,,,,,,,,,,,,,,,,,,,,,,,,,,,,,,,,,,,,,,,,,,,,,,,,,,,,76.92963157800023,81.17412479500035,,,,,,,,,,,,,,,,,,,,,,,,,,,,,,,,,,,,,,,,,,,,,,,,,,,,,012122,1,2,1,3,0,1,1,0,46,2022_Jan_21_1044,listening_fmri,3.2.4,59.90874137380064,
,0,parcelated_audio/41/41_9.ogg,,,,,,,,,0,0,0,0,0,0,0,0,0,0,0,0,,,,,,,,,0,0,0,0,0,8,8,8,,,,,,,,,,,,,,,,,,,,,,,,,,,,,,,,,,,,,,,,,,,,,,,,,,,,,,,,,,,,,,,,,,,,,,,,,,,,,,,,,,,,,,,,,,,,,,,,,,,,,,,,,,,,,,,,,,81.17464335800014,90.8218666040002,,,,,,,,,,,,,,,,,,,,,,,,,,,,,,,,,,,,,,,,,,,,,,,,,,,,,012122,1,2,1,3,0,1,1,0,46,2022_Jan_21_1044,listening_fmri,3.2.4,59.90874137380064,
,0,parcelated_audio/41/41_10.ogg,,,,,,,,,0,0,0,0,0,0,0,0,0,0,0,0,,,,,,,,,0,0,0,0,0,9,9,9,,,,,,,,,,,,,,,,,,,,,,,,,,,,,,,,,,,,,,,,,,,,,,,,,,,,,,,,,,,,,,,,,,,,,,,,,,,,,,,,,,,,,,,,,,,,,,,,,,,,,,,,,,,,,,,,,,90.82221799000035,97.32876982900007,,,,,,,,,,,,,,,,,,,,,,,,,,,,,,,,,,,,,,,,,,,,,,,,,,,,,012122,1,2,1,3,0,1,1,0,46,2022_Jan_21_1044,listening_fmri,3.2.4,59.90874137380064,
,0,parcelated_audio/41/41_11.ogg,,,,,,,,,0,0,0,0,0,0,0,0,0,0,0,0,,,,,,,,,0,0,0,0,0,10,10,10,,,,,,,,,,,,,,,,,,,,,,,,,,,,,,,,,,,,,,,,,,,,,,,,,,,,,,,,,,,,,,,,,,,,,,,,,,,,,,,,,,,,,,,,,,,,,,,,,,,,,,,,,,,,,,,,,,97.3291439630002,101.10223148400019,,,,,,,,,,,,,,,,,,,,,,,,,,,,,,,,,,,,,,,,,,,,,,,,,,,,,012122,1,2,1,3,0,1,1,0,46,2022_Jan_21_1044,listening_fmri,3.2.4,59.90874137380064,
,0,parcelated_audio/41/41_12.ogg,,,,,,,,,0,0,0,0,0,0,0,0,0,0,0,0,,,,,,,,,0,0,0,0,0,11,11,11,,,,,,,,,,,,,,,,,,,,,,,,,,,,,,,,,,,,,,,,,,,,,,,,,,,,,,,,,,,,,,,,,,,,,,,,,,,,,,,,,,,,,,,,,,,,,,,,,,,,,,,,,,,,,,,,,,101.10258023900042,110.85425481000038,,,,,,,,,,,,,,,,,,,,,,,,,,,,,,,,,,,,,,,,,,,,,,,,,,,,,012122,1,2,1,3,0,1,1,0,46,2022_Jan_21_1044,listening_fmri,3.2.4,59.90874137380064,
,0,parcelated_audio/41/41_13.ogg,,,,,,,,,0,0,0,0,0,0,0,0,0,0,0,0,,,,,,,,,0,0,0,0,0,12,12,12,,,,,,,,,,,,,,,,,,,,,,,,,,,,,,,,,,,,,,,,,,,,,,,,,,,,,,,,,,,,,,,,,,,,,,,,,,,,,,,,,,,,,,,,,,,,,,,,,,,,,,,,,,,,,,,,,,110.85460870700035,116.69933010700015,,,,,,,,,,,,,,,,,,,,,,,,,,,,,,,,,,,,,,,,,,,,,,,,,,,,,012122,1,2,1,3,0,1,1,0,46,2022_Jan_21_1044,listening_fmri,3.2.4,59.90874137380064,
,0,parcelated_audio/41/41_14.ogg,,,,,,,,,0,0,0,0,0,0,0,0,0,0,0,0,,,,,,,,,0,0,0,0,0,13,13,13,,,,,,,,,,,,,,,,,,,,,,,,,,,,,,,,,,,,,,,,,,,,,,,,,,,,,,,,,,,,,,,,,,,,,,,,,,,,,,,,,,,,,,,,,,,,,,,,,,,,,,,,,,,,,,,,,,116.69967841700009,123.9283428800004,,,,,,,,,,,,,,,,,,,,,,,,,,,,,,,,,,,,,,,,,,,,,,,,,,,,,012122,1,2,1,3,0,1,1,0,46,2022_Jan_21_1044,listening_fmri,3.2.4,59.90874137380064,
,0,parcelated_audio/41/41_15.ogg,,,,,,,,,0,0,0,0,0,0,0,0,0,0,0,0,,,,,,,,,0,0,0,0,0,14,14,14,,,,,,,,,,,,,,,,,,,,,,,,,,,,,,,,,,,,,,,,,,,,,,,,,,,,,,,,,,,,,,,,,,,,,,,,,,,,,,,,,,,,,,,,,,,,,,,,,,,,,,,,,,,,,,,,,,123.92869444600001,127.35931345500012,,,,,,,,,,,,,,,,,,,,,,,,,,,,,,,,,,,,,,,,,,,,,,,,,,,,,012122,1,2,1,3,0,1,1,0,46,2022_Jan_21_1044,listening_fmri,3.2.4,59.90874137380064,
,0,parcelated_audio/41/41_16.ogg,,,,,,,,,0,0,0,0,0,0,0,0,0,0,0,0,,,,,,,,,0,0,0,0,0,15,15,15,,,,,,,,,,,,,,,,,,,,,,,,,,,,,,,,,,,,,,,,,,,,,,,,,,,,,,,,,,,,,,,,,,,,,,,,,,,,,,,,,,,,,,,,,,,,,,,,,,,,,,,,,,,,,,,,,,127.35966580700006,132.226299164,,,,,,,,,,,,,,,,,,,,,,,,,,,,,,,,,,,,,,,,,,,,,,,,,,,,,012122,1,2,1,3,0,1,1,0,46,2022_Jan_21_1044,listening_fmri,3.2.4,59.90874137380064,
,0,parcelated_audio/41/41_17.ogg,,,,,,,,,0,0,0,0,0,0,0,0,0,0,0,0,,,,,,,,,0,0,0,0,0,16,16,16,,,,,,,,,,,,,,,,,,,,,,,,,,,,,,,,,,,,,,,,,,,,,,,,,,,,,,,,,,,,,,,,,,,,,,,,,,,,,,,,,,,,,,,,,,,,,,,,,,,,,,,,,,,,,,,,,,132.22664618000044,136.40595446600037,,,,,,,,,,,,,,,,,,,,,,,,,,,,,,,,,,,,,,,,,,,,,,,,,,,,,012122,1,2,1,3,0,1,1,0,46,2022_Jan_21_1044,listening_fmri,3.2.4,59.90874137380064,
,0,parcelated_audio/41/41_18.ogg,,,,,,,,,0,0,0,0,0,0,0,0,0,0,0,0,,,,,,,,,0,0,0,0,0,17,17,17,,,,,,,,,,,,,,,,,,,,,,,,,,,,,,,,,,,,,,,,,,,,,,,,,,,,,,,,,,,,,,,,,,,,,,,,,,,,,,,,,,,,,,,,,,,,,,,,,,,,,,,,,,,,,,,,,,136.4064080330004,138.93669727800034,,,,,,,,,,,,,,,,,,,,,,,,,,,,,,,,,,,,,,,,,,,,,,,,,,,,,012122,1,2,1,3,0,1,1,0,46,2022_Jan_21_1044,listening_fmri,3.2.4,59.90874137380064,
,0,parcelated_audio/41/41_19.ogg,,,,,,,,,0,0,0,0,0,0,0,0,0,0,0,0,,,,,,,,,0,0,0,0,0,18,18,18,,,,,,,,,,,,,,,,,,,,,,,,,,,,,,,,,,,,,,,,,,,,,,,,,,,,,,,,,,,,,,,,,,,,,,,,,,,,,,,,,,,,,,,,,,,,,,,,,,,,,,,,,,,,,,,,,,138.93704568900012,145.82720202100018,,,,,,,,,,,,,,,,,,,,,,,,,,,,,,,,,,,,,,,,,,,,,,,,,,,,,012122,1,2,1,3,0,1,1,0,46,2022_Jan_21_1044,listening_fmri,3.2.4,59.90874137380064,
,0,parcelated_audio/41/41_20.ogg,,,,,,,,,0,0,0,0,0,0,0,0,0,0,0,0,,,,,,,,,0,0,0,0,0,19,19,19,,,,,,,,,,,,,,,,,,,,,,,,,,,,,,,,,,,,,,,,,,,,,,,,,,,,,,,,,,,,,,,,,,,,,,,,,,,,,,,,,,,,,,,,,,,,,,,,,,,,,,,,,,,,,,,,,,145.82754838000028,150.75547594700038,,,,,,,,,,,,,,,,,,,,,,,,,,,,,,,,,,,,,,,,,,,,,,,,,,,,,012122,1,2,1,3,0,1,1,0,46,2022_Jan_21_1044,listening_fmri,3.2.4,59.90874137380064,
,0,parcelated_audio/41/41_21.ogg,,,,,,,,,0,0,0,0,0,0,0,0,0,0,0,0,,,,,,,,,0,0,0,0,0,20,20,20,,,,,,,,,,,,,,,,,,,,,,,,,,,,,,,,,,,,,,,,,,,,,,,,,,,,,,,,,,,,,,,,,,,,,,,,,,,,,,,,,,,,,,,,,,,,,,,,,,,,,,,,,,,,,,,,,,150.7557957250001,158.55519176200005,,,,,,,,,,,,,,,,,,,,,,,,,,,,,,,,,,,,,,,,,,,,,,,,,,,,,012122,1,2,1,3,0,1,1,0,46,2022_Jan_21_1044,listening_fmri,3.2.4,59.90874137380064,
,0,parcelated_audio/41/41_22.ogg,,,,,,,,,0,0,0,0,0,0,0,0,0,0,0,0,,,,,,,,,0,0,0,0,0,21,21,21,,,,,,,,,,,,,,,,,,,,,,,,,,,,,,,,,,,,,,,,,,,,,,,,,,,,,,,,,,,,,,,,,,,,,,,,,,,,,,,,,,,,,,,,,,,,,,,,,,,,,,,,,,,,,,,,,,158.55558050000036,174.36532107600033,,,,,,,,,,,,,,,,,,,,,,,,,,,,,,,,,,,,,,,,,,,,,,,,,,,,,012122,1,2,1,3,0,1,1,0,46,2022_Jan_21_1044,listening_fmri,3.2.4,59.90874137380064,
,0,parcelated_audio/41/41_23.ogg,,,,,,,,,0,0,0,0,0,0,0,0,0,0,0,0,,,,,,,,,0,0,0,0,0,22,22,22,,,,,,,,,,,,,,,,,,,,,,,,,,,,,,,,,,,,,,,,,,,,,,,,,,,,,,,,,,,,,,,,,,,,,,,,,,,,,,,,,,,,,,,,,,,,,,,,,,,,,,,,,,,,,,,,,,174.36567474000003,180.35687466900026,,,,,,,,,,,,,,,,,,,,,,,,,,,,,,,,,,,,,,,,,,,,,,,,,,,,,012122,1,2,1,3,0,1,1,0,46,2022_Jan_21_1044,listening_fmri,3.2.4,59.90874137380064,
,0,parcelated_audio/41/41_24.ogg,,,,,,,,,0,0,0,0,0,0,0,0,0,0,0,0,,,,,,,,,0,0,0,0,0,23,23,23,,,,,,,,,,,,,,,,,,,,,,,,,,,,,,,,,,,,,,,,,,,,,,,,,,,,,,,,,,,,,,,,,,,,,,,,,,,,,,,,,,,,,,,,,,,,,,,,,,,,,,,,,,,,,,,,,,180.3572434280004,187.01292079600034,,,,,,,,,,,,,,,,,,,,,,,,,,,,,,,,,,,,,,,,,,,,,,,,,,,,,012122,1,2,1,3,0,1,1,0,46,2022_Jan_21_1044,listening_fmri,3.2.4,59.90874137380064,
,0,parcelated_audio/41/41_25.ogg,,,,,,,,,0,0,0,0,0,0,0,0,0,0,0,0,,,,,,,,,0,0,0,0,0,24,24,24,,,,,,,,,,,,,,,,,,,,,,,,,,,,,,,,,,,,,,,,,,,,,,,,,,,,,,,,,,,,,,,,,,,,,,,,,,,,,,,,,,,,,,,,,,,,,,,,,,,,,,,,,,,,,,,,,,187.01329477700028,190.38205050800025,,,,,,,,,,,,,,,,,,,,,,,,,,,,,,,,,,,,,,,,,,,,,,,,,,,,,012122,1,2,1,3,0,1,1,0,46,2022_Jan_21_1044,listening_fmri,3.2.4,59.90874137380064,
,0,parcelated_audio/41/41_26.ogg,,,,,,,,,0,0,0,0,0,0,0,0,0,0,0,0,,,,,,,,,0,0,0,0,0,25,25,25,,,,,,,,,,,,,,,,,,,,,,,,,,,,,,,,,,,,,,,,,,,,,,,,,,,,,,,,,,,,,,,,,,,,,,,,,,,,,,,,,,,,,,,,,,,,,,,,,,,,,,,,,,,,,,,,,,190.3824188360004,195.9101313670003,,,,,,,,,,,,,,,,,,,,,,,,,,,,,,,,,,,,,,,,,,,,,,,,,,,,,012122,1,2,1,3,0,1,1,0,46,2022_Jan_21_1044,listening_fmri,3.2.4,59.90874137380064,
,0,parcelated_audio/41/41_27.ogg,,,,,,,,,0,0,0,0,0,0,0,0,0,0,0,0,,,,,,,,,0,0,0,0,0,26,26,26,,,,,,,,,,,,,,,,,,,,,,,,,,,,,,,,,,,,,,,,,,,,,,,,,,,,,,,,,,,,,,,,,,,,,,,,,,,,,,,,,,,,,,,,,,,,,,,,,,,,,,,,,,,,,,,,,,195.91048364800008,199.78216368100038,,,,,,,,,,,,,,,,,,,,,,,,,,,,,,,,,,,,,,,,,,,,,,,,,,,,,012122,1,2,1,3,0,1,1,0,46,2022_Jan_21_1044,listening_fmri,3.2.4,59.90874137380064,
,0,parcelated_audio/41/41_28.ogg,,,,,,,,,0,0,0,0,0,0,0,0,0,0,0,0,,,,,,,,,0,0,0,0,0,27,27,27,,,,,,,,,,,,,,,,,,,,,,,,,,,,,,,,,,,,,,,,,,,,,,,,,,,,,,,,,,,,,,,,,,,,,,,,,,,,,,,,,,,,,,,,,,,,,,,,,,,,,,,,,,,,,,,,,,199.78251549900006,208.13943443200014,,,,,,,,,,,,,,,,,,,,,,,,,,,,,,,,,,,,,,,,,,,,,,,,,,,,,012122,1,2,1,3,0,1,1,0,46,2022_Jan_21_1044,listening_fmri,3.2.4,59.90874137380064,
,0,parcelated_audio/41/41_29.ogg,,,,,,,,,0,0,0,0,0,0,0,0,0,0,0,0,,,,,,,,,0,0,0,0,0,28,28,28,,,,,,,,,,,,,,,,,,,,,,,,,,,,,,,,,,,,,,,,,,,,,,,,,,,,,,,,,,,,,,,,,,,,,,,,,,,,,,,,,,,,,,,,,,,,,,,,,,,,,,,,,,,,,,,,,,208.13988727700007,214.76337659800038,,,,,,,,,,,,,,,,,,,,,,,,,,,,,,,,,,,,,,,,,,,,,,,,,,,,,012122,1,2,1,3,0,1,1,0,46,2022_Jan_21_1044,listening_fmri,3.2.4,59.90874137380064,
,0,parcelated_audio/41/41_30.ogg,,,,,,,,,0,0,0,0,0,0,0,0,0,0,0,0,,,,,,,,,0,0,0,0,0,29,29,29,,,,,,,,,,,,,,,,,,,,,,,,,,,,,,,,,,,,,,,,,,,,,,,,,,,,,,,,,,,,,,,,,,,,,,,,,,,,,,,,,,,,,,,,,,,,,,,,,,,,,,,,,,,,,,,,,,214.763734698,223.47265325700027,,,,,,,,,,,,,,,,,,,,,,,,,,,,,,,,,,,,,,,,,,,,,,,,,,,,,012122,1,2,1,3,0,1,1,0,46,2022_Jan_21_1044,listening_fmri,3.2.4,59.90874137380064,
,0,parcelated_audio/41/41_31.ogg,,,,,,,,,0,0,0,0,0,0,0,0,0,0,0,0,,,,,,,,,0,0,0,0,0,30,30,30,,,,,,,,,,,,,,,,,,,,,,,,,,,,,,,,,,,,,,,,,,,,,,,,,,,,,,,,,,,,,,,,,,,,,,,,,,,,,,,,,,,,,,,,,,,,,,,,,,,,,,,,,,,,,,,,,,223.47314265700015,234.2231609620003,,,,,,,,,,,,,,,,,,,,,,,,,,,,,,,,,,,,,,,,,,,,,,,,,,,,,012122,1,2,1,3,0,1,1,0,46,2022_Jan_21_1044,listening_fmri,3.2.4,59.90874137380064,
,0,parcelated_audio/41/41_32.ogg,,,,,,,,,0,0,0,0,0,0,0,0,0,0,0,0,,,,,,,,,0,0,0,0,0,31,31,31,,,,,,,,,,,,,,,,,,,,,,,,,,,,,,,,,,,,,,,,,,,,,,,,,,,,,,,,,,,,,,,,,,,,,,,,,,,,,,,,,,,,,,,,,,,,,,,,,,,,,,,,,,,,,,,,,,234.22346321000032,242.56565043400042,,,,,,,,,,,,,,,,,,,,,,,,,,,,,,,,,,,,,,,,,,,,,,,,,,,,,012122,1,2,1,3,0,1,1,0,46,2022_Jan_21_1044,listening_fmri,3.2.4,59.90874137380064,
,0,parcelated_audio/41/41_33.ogg,,,,,,,,,0,0,0,0,0,0,0,0,0,0,0,0,,,,,,,,,0,0,0,0,0,32,32,32,,,,,,,,,,,,,,,,,,,,,,,,,,,,,,,,,,,,,,,,,,,,,,,,,,,,,,,,,,,,,,,,,,,,,,,,,,,,,,,,,,,,,,,,,,,,,,,,,,,,,,,,,,,,,,,,,,242.56600432700043,246.6487912460002,,,,,,,,,,,,,,,,,,,,,,,,,,,,,,,,,,,,,,,,,,,,,,,,,,,,,012122,1,2,1,3,0,1,1,0,46,2022_Jan_21_1044,listening_fmri,3.2.4,59.90874137380064,
,0,parcelated_audio/41/41_34.ogg,,,,,,,,,0,0,0,0,0,0,0,0,0,0,0,0,,,,,,,,,0,0,0,0,0,33,33,33,,,,,,,,,,,,,,,,,,,,,,,,,,,,,,,,,,,,,,,,,,,,,,,,,,,,,,,,,,,,,,,,,,,,,,,,,,,,,,,,,,,,,,,,,,,,,,,,,,,,,,,,,,,,,,,,,,246.64914612100029,252.17693084600023,,,,,,,,,,,,,,,,,,,,,,,,,,,,,,,,,,,,,,,,,,,,,,,,,,,,,012122,1,2,1,3,0,1,1,0,46,2022_Jan_21_1044,listening_fmri,3.2.4,59.90874137380064,
,0,parcelated_audio/41/41_35.ogg,,,,,,,,,0,0,0,0,0,0,0,0,0,0,0,0,,,,,,,,,0,0,0,0,0,34,34,34,,,,,,,,,,,,,,,,,,,,,,,,,,,,,,,,,,,,,,,,,,,,,,,,,,,,,,,,,,,,,,,,,,,,,,,,,,,,,,,,,,,,,,,,,,,,,,,,,,,,,,,,,,,,,,,,,,252.17727647500033,257.73944106700037,,,,,,,,,,,,,,,,,,,,,,,,,,,,,,,,,,,,,,,,,,,,,,,,,,,,,012122,1,2,1,3,0,1,1,0,46,2022_Jan_21_1044,listening_fmri,3.2.4,59.90874137380064,
,0,parcelated_audio/41/41_36.ogg,,,,,,,,,0,0,0,0,0,0,0,0,0,0,0,0,,,,,,,,,0,0,0,0,0,35,35,35,,,,,,,,,,,,,,,,,,,,,,,,,,,,,,,,,,,,,,,,,,,,,,,,,,,,,,,,,,,,,,,,,,,,,,,,,,,,,,,,,,,,,,,,,,,,,,,,,,,,,,,,,,,,,,,,,,257.7397869010001,264.7643361920004,,,,,,,,,,,,,,,,,,,,,,,,,,,,,,,,,,,,,,,,,,,,,,,,,,,,,012122,1,2,1,3,0,1,1,0,46,2022_Jan_21_1044,listening_fmri,3.2.4,59.90874137380064,
,0,parcelated_audio/41/41_37.ogg,,,,,,,,,0,0,0,0,0,0,0,0,0,0,0,0,,,,,,,,,0,0,0,0,0,36,36,36,,,,,,,,,,,,,,,,,,,,,,,,,,,,,,,,,,,,,,,,,,,,,,,,,,,,,,,,,,,,,,,,,,,,,,,,,,,,,,,,,,,,,,,,,,,,,,,,,,,,,,,,,,,,,,,,,,264.7646829590003,270.2515704370003,,,,,,,,,,,,,,,,,,,,,,,,,,,,,,,,,,,,,,,,,,,,,,,,,,,,,012122,1,2,1,3,0,1,1,0,46,2022_Jan_21_1044,listening_fmri,3.2.4,59.90874137380064,
,0,,,,,,,,,,0,0,0,0,0,0,0,0,0,0,0,0,,,,,,,,,0,0,0,0,,,,,,,,,,,,,,,,,,,,,,,,,,,,,,,,,,,,,,,,,,,,,,,,,,,,,,,,,,,,,,,,,,,,,,,,,,,,,,,,,,,,,,,,,,,,,,,,,,,,,,,,,,,,,,,,,,,,,,,,,,,,,,,,,,,,,,,,,,,,,,,,,,,,,,,,,,,,,,,,,,,,,,,,,,,,012122,1,2,1,3,0,1,1,0,46,2022_Jan_21_1044,listening_fmri,3.2.4,59.90874137380064,
,0,,,,,,,,,,0,0,0,0,0,0,0,0,0,0,0,0,,,,,,,,,,,,,,,,,,,,,,,,,,,,,,,,,,,,,,,,,,,,,,,,,,,,,,,,,,,,,,,,,,,,,,,,,,,,,,,,,,,,,,,,,,,,,,,,,,,,,,,,,,,,270.2520631470002,276.2497760260003,411.2890737550001,None,,,,,,,,,,,,,,,,,,,,,417.2891485330001,None,417.2891485330001,None,,,,,,,,,,,,,,,,,,,,,,,,,,,,,,,,,,,,,,,,,,,,,,,,,012122,1,2,1,3,0,1,1,0,46,2022_Jan_21_1044,listening_fmri,3.2.4,59.90874137380064,
,0,,,,,,,,,,0,0,0,0,0,0,0,0,,,,,,,,,,,,,,,,,,,,,,,,,,,,,,,,,,,,,,,,,,,,,,,,,,,,,,,,,,,,,,,,,,,,,,,,,,,,,,,,,,,,,,,,,,,,,,,,,,,,,,,,,,,,,,,,,,,,,,,,,,,,,,,,,,,,,,,,,,,,,,,,,,,,,,,,,,,,,,,,,,,,,,,,,,,,,,,,,,,,,,,,,,,,012122,1,2,1,3,0,1,1,0,46,2022_Jan_21_1044,listening_fmri,3.2.4,59.90874137380064,
,1,,,,,,,,,,0,0,0,0,0,1,1,1,0,0,0,0,0,0,0,0,,,,,,,,,,,,,,,,,0,0,0,0,,,,,,,,,,,,,,,,,,,,,,,,,,,,,,,,,,,,,,,,,,,,,,,,,,,,,,,,,,,,,,,,,,,,,,,,,,,,,,,,,,,,,,,,418.2922707970001,None,7,2.0993495729999267,418.2922707970001,None,418.2922707970001,None,418.2922707970001,None,,,,,,,,,,,,,,,420.48970697999994,None,7,2.743928476000292,420.48970697999994,None,420.48970697999994,None,423.2723999929999,None,423.2723999929999,None,423.2723999929999,None,7,13.686075317999894,423.2723999929999,None,436.9897453809999,None,7,2.172851434000222,436.9897453809999,None,436.9897453809999,None,439.27558182999974,None,439.27558182999974,None,439.27558182999974,None,439.27558182999974,None,439.27558182999974,None,439.27558182999974,None,439.27558182999974,None,,,,,,,,,012122,1,2,1,3,0,1,1,0,46,2022_Jan_21_1044,listening_fmri,3.2.4,59.90874137380064,
,1,,,,,,,,,,0,0,0,0,0,1,1,1,0,0,0,0,0,0,0,0,,,,,,,,,,,,,,,,,,,,,,,,,,,,,,,,,,,,,,,,,,,,,,,,,,,,,,,,,,,,,,,,,,,,,,,,,,,,,,,,,,,,,,,,,,,,,,,,,,,,,,,,,,,,,,,,,,,,,,,,,,,,,,,,,,,,,,,,,,,,465.922513688,None,465.922513688,None,465.922513688,None,1,1.3790971560001708,465.922513688,None,,,,,,,,,,,,,,,,,,,,,,,463.72275635799997,None,1,2.1618256009996912,463.72275635799997,None,463.72275635799997,None,012122,1,2,1,3,0,1,1,0,46,2022_Jan_21_1044,listening_fmri,3.2.4,59.90874137380064,
,1,parcelated_audio/14/14_1.ogg,,,,,,,,,0,0,0,0,0,1,1,1,0,0,0,0,,,,,,,,,0,0,0,0,0,0,0,0,,,,,,,,,,,,,,,,,,,,,,,,,,,,,,,,,,,,,,,,,,,,,,,,,,,,,,,,,,,,,,,,,,,,,,,,,,,,,,,,,,,,,,,,,,,,,,,,,,,,,,,,,,467.3225831720001,None,2,1.5260221929997897,467.3225831720001,None,327.8630477820002,330.8660912800001,330.8719035260001,337.7292080650004,,,,,,,,,,,,,,,,,,,,,,,,,,,,,,,,,,,,,,,,,,,,,,,,,,,,,012122,1,2,1,3,0,1,1,0,46,2022_Jan_21_1044,listening_fmri,3.2.4,59.90874137380064,
,1,parcelated_audio/14/14_2.ogg,,,,,,,,,0,0,0,0,0,1,1,1,0,0,0,0,,,,,,,,,0,0,0,0,0,1,1,1,,,,,,,,,,,,,,,,,,,,,,,,,,,,,,,,,,,,,,,,,,,,,,,,,,,,,,,,,,,,,,,,,,,,,,,,,,,,,,,,,,,,,,,,,,,,,,,,,,,,,,,,,,,,,,,,,,337.72961998400024,344.28204589100005,,,,,,,,,,,,,,,,,,,,,,,,,,,,,,,,,,,,,,,,,,,,,,,,,,,,,012122,1,2,1,3,0,1,1,0,46,2022_Jan_21_1044,listening_fmri,3.2.4,59.90874137380064,
,1,parcelated_audio/14/14_3.ogg,,,,,,,,,0,0,0,0,0,1,1,1,0,0,0,0,,,,,,,,,0,0,0,0,0,2,2,2,,,,,,,,,,,,,,,,,,,,,,,,,,,,,,,,,,,,,,,,,,,,,,,,,,,,,,,,,,,,,,,,,,,,,,,,,,,,,,,,,,,,,,,,,,,,,,,,,,,,,,,,,,,,,,,,,,344.2823988670002,347.99532206500044,,,,,,,,,,,,,,,,,,,,,,,,,,,,,,,,,,,,,,,,,,,,,,,,,,,,,012122,1,2,1,3,0,1,1,0,46,2022_Jan_21_1044,listening_fmri,3.2.4,59.90874137380064,
,1,parcelated_audio/14/14_4.ogg,,,,,,,,,0,0,0,0,0,1,1,1,0,0,0,0,,,,,,,,,0,0,0,0,0,3,3,3,,,,,,,,,,,,,,,,,,,,,,,,,,,,,,,,,,,,,,,,,,,,,,,,,,,,,,,,,,,,,,,,,,,,,,,,,,,,,,,,,,,,,,,,,,,,,,,,,,,,,,,,,,,,,,,,,,347.99571670000023,355.9510944240001,,,,,,,,,,,,,,,,,,,,,,,,,,,,,,,,,,,,,,,,,,,,,,,,,,,,,012122,1,2,1,3,0,1,1,0,46,2022_Jan_21_1044,listening_fmri,3.2.4,59.90874137380064,
,1,parcelated_audio/14/14_5.ogg,,,,,,,,,0,0,0,0,0,1,1,1,0,0,0,0,,,,,,,,,0,0,0,0,0,4,4,4,,,,,,,,,,,,,,,,,,,,,,,,,,,,,,,,,,,,,,,,,,,,,,,,,,,,,,,,,,,,,,,,,,,,,,,,,,,,,,,,,,,,,,,,,,,,,,,,,,,,,,,,,,,,,,,,,,355.9515077640003,360.81600020800033,,,,,,,,,,,,,,,,,,,,,,,,,,,,,,,,,,,,,,,,,,,,,,,,,,,,,012122,1,2,1,3,0,1,1,0,46,2022_Jan_21_1044,listening_fmri,3.2.4,59.90874137380064,
,1,parcelated_audio/14/14_6.ogg,,,,,,,,,0,0,0,0,0,1,1,1,0,0,0,0,,,,,,,,,0,0,0,0,0,5,5,5,,,,,,,,,,,,,,,,,,,,,,,,,,,,,,,,,,,,,,,,,,,,,,,,,,,,,,,,,,,,,,,,,,,,,,,,,,,,,,,,,,,,,,,,,,,,,,,,,,,,,,,,,,,,,,,,,,360.8164085780004,366.68005424700004,,,,,,,,,,,,,,,,,,,,,,,,,,,,,,,,,,,,,,,,,,,,,,,,,,,,,012122,1,2,1,3,0,1,1,0,46,2022_Jan_21_1044,listening_fmri,3.2.4,59.90874137380064,
,1,parcelated_audio/14/14_7.ogg,,,,,,,,,0,0,0,0,0,1,1,1,0,0,0,0,,,,,,,,,0,0,0,0,0,6,6,6,,,,,,,,,,,,,,,,,,,,,,,,,,,,,,,,,,,,,,,,,,,,,,,,,,,,,,,,,,,,,,,,,,,,,,,,,,,,,,,,,,,,,,,,,,,,,,,,,,,,,,,,,,,,,,,,,,366.6804779180002,376.3182158210002,,,,,,,,,,,,,,,,,,,,,,,,,,,,,,,,,,,,,,,,,,,,,,,,,,,,,012122,1,2,1,3,0,1,1,0,46,2022_Jan_21_1044,listening_fmri,3.2.4,59.90874137380064,
,1,parcelated_audio/14/14_8.ogg,,,,,,,,,0,0,0,0,0,1,1,1,0,0,0,0,,,,,,,,,0,0,0,0,0,7,7,7,,,,,,,,,,,,,,,,,,,,,,,,,,,,,,,,,,,,,,,,,,,,,,,,,,,,,,,,,,,,,,,,,,,,,,,,,,,,,,,,,,,,,,,,,,,,,,,,,,,,,,,,,,,,,,,,,,376.3186642370001,381.526388838,,,,,,,,,,,,,,,,,,,,,,,,,,,,,,,,,,,,,,,,,,,,,,,,,,,,,012122,1,2,1,3,0,1,1,0,46,2022_Jan_21_1044,listening_fmri,3.2.4,59.90874137380064,
,1,parcelated_audio/14/14_9.ogg,,,,,,,,,0,0,0,0,0,1,1,1,0,0,0,0,,,,,,,,,0,0,0,0,0,8,8,8,,,,,,,,,,,,,,,,,,,,,,,,,,,,,,,,,,,,,,,,,,,,,,,,,,,,,,,,,,,,,,,,,,,,,,,,,,,,,,,,,,,,,,,,,,,,,,,,,,,,,,,,,,,,,,,,,,381.5268360140003,385.272276659,,,,,,,,,,,,,,,,,,,,,,,,,,,,,,,,,,,,,,,,,,,,,,,,,,,,,012122,1,2,1,3,0,1,1,0,46,2022_Jan_21_1044,listening_fmri,3.2.4,59.90874137380064,
,1,parcelated_audio/14/14_10.ogg,,,,,,,,,0,0,0,0,0,1,1,1,0,0,0,0,,,,,,,,,0,0,0,0,0,9,9,9,,,,,,,,,,,,,,,,,,,,,,,,,,,,,,,,,,,,,,,,,,,,,,,,,,,,,,,,,,,,,,,,,,,,,,,,,,,,,,,,,,,,,,,,,,,,,,,,,,,,,,,,,,,,,,,,,,385.27262638,396.522223379,,,,,,,,,,,,,,,,,,,,,,,,,,,,,,,,,,,,,,,,,,,,,,,,,,,,,012122,1,2,1,3,0,1,1,0,46,2022_Jan_21_1044,listening_fmri,3.2.4,59.90874137380064,
,1,parcelated_audio/14/14_11.ogg,,,,,,,,,0,0,0,0,0,1,1,1,0,0,0,0,,,,,,,,,0,0,0,0,0,10,10,10,,,,,,,,,,,,,,,,,,,,,,,,,,,,,,,,,,,,,,,,,,,,,,,,,,,,,,,,,,,,,,,,,,,,,,,,,,,,,,,,,,,,,,,,,,,,,,,,,,,,,,,,,,,,,,,,,,396.5227769750004,403.7324148060002,,,,,,,,,,,,,,,,,,,,,,,,,,,,,,,,,,,,,,,,,,,,,,,,,,,,,012122,1,2,1,3,0,1,1,0,46,2022_Jan_21_1044,listening_fmri,3.2.4,59.90874137380064,
,1,parcelated_audio/14/14_12.ogg,,,,,,,,,0,0,0,0,0,1,1,1,0,0,0,0,,,,,,,,,0,0,0,0,0,11,11,11,,,,,,,,,,,,,,,,,,,,,,,,,,,,,,,,,,,,,,,,,,,,,,,,,,,,,,,,,,,,,,,,,,,,,,,,,,,,,,,,,,,,,,,,,,,,,,,,,,,,,,,,,,,,,,,,,,403.7327758010001,411.74984643000016,,,,,,,,,,,,,,,,,,,,,,,,,,,,,,,,,,,,,,,,,,,,,,,,,,,,,012122,1,2,1,3,0,1,1,0,46,2022_Jan_21_1044,listening_fmri,3.2.4,59.90874137380064,
,1,parcelated_audio/14/14_13.ogg,,,,,,,,,0,0,0,0,0,1,1,1,0,0,0,0,,,,,,,,,0,0,0,0,0,12,12,12,,,,,,,,,,,,,,,,,,,,,,,,,,,,,,,,,,,,,,,,,,,,,,,,,,,,,,,,,,,,,,,,,,,,,,,,,,,,,,,,,,,,,,,,,,,,,,,,,,,,,,,,,,,,,,,,,,411.7502047040002,417.8663437070004,,,,,,,,,,,,,,,,,,,,,,,,,,,,,,,,,,,,,,,,,,,,,,,,,,,,,012122,1,2,1,3,0,1,1,0,46,2022_Jan_21_1044,listening_fmri,3.2.4,59.90874137380064,
,1,parcelated_audio/14/14_14.ogg,,,,,,,,,0,0,0,0,0,1,1,1,0,0,0,0,,,,,,,,,0,0,0,0,0,13,13,13,,,,,,,,,,,,,,,,,,,,,,,,,,,,,,,,,,,,,,,,,,,,,,,,,,,,,,,,,,,,,,,,,,,,,,,,,,,,,,,,,,,,,,,,,,,,,,,,,,,,,,,,,,,,,,,,,,417.86685421500033,424.42123341100023,,,,,,,,,,,,,,,,,,,,,,,,,,,,,,,,,,,,,,,,,,,,,,,,,,,,,012122,1,2,1,3,0,1,1,0,46,2022_Jan_21_1044,listening_fmri,3.2.4,59.90874137380064,
,1,parcelated_audio/14/14_15.ogg,,,,,,,,,0,0,0,0,0,1,1,1,0,0,0,0,,,,,,,,,0,0,0,0,0,14,14,14,,,,,,,,,,,,,,,,,,,,,,,,,,,,,,,,,,,,,,,,,,,,,,,,,,,,,,,,,,,,,,,,,,,,,,,,,,,,,,,,,,,,,,,,,,,,,,,,,,,,,,,,,,,,,,,,,,424.4215841920004,431.53311962000043,,,,,,,,,,,,,,,,,,,,,,,,,,,,,,,,,,,,,,,,,,,,,,,,,,,,,012122,1,2,1,3,0,1,1,0,46,2022_Jan_21_1044,listening_fmri,3.2.4,59.90874137380064,
,1,parcelated_audio/14/14_16.ogg,,,,,,,,,0,0,0,0,0,1,1,1,0,0,0,0,,,,,,,,,0,0,0,0,0,15,15,15,,,,,,,,,,,,,,,,,,,,,,,,,,,,,,,,,,,,,,,,,,,,,,,,,,,,,,,,,,,,,,,,,,,,,,,,,,,,,,,,,,,,,,,,,,,,,,,,,,,,,,,,,,,,,,,,,,431.5335313110004,436.9482941000001,,,,,,,,,,,,,,,,,,,,,,,,,,,,,,,,,,,,,,,,,,,,,,,,,,,,,012122,1,2,1,3,0,1,1,0,46,2022_Jan_21_1044,listening_fmri,3.2.4,59.90874137380064,
,1,parcelated_audio/14/14_17.ogg,,,,,,,,,0,0,0,0,0,1,1,1,0,0,0,0,,,,,,,,,0,0,0,0,0,16,16,16,,,,,,,,,,,,,,,,,,,,,,,,,,,,,,,,,,,,,,,,,,,,,,,,,,,,,,,,,,,,,,,,,,,,,,,,,,,,,,,,,,,,,,,,,,,,,,,,,,,,,,,,,,,,,,,,,,436.9486133710002,446.6461788460001,,,,,,,,,,,,,,,,,,,,,,,,,,,,,,,,,,,,,,,,,,,,,,,,,,,,,012122,1,2,1,3,0,1,1,0,46,2022_Jan_21_1044,listening_fmri,3.2.4,59.90874137380064,
,1,parcelated_audio/14/14_18.ogg,,,,,,,,,0,0,0,0,0,1,1,1,0,0,0,0,,,,,,,,,0,0,0,0,0,17,17,17,,,,,,,,,,,,,,,,,,,,,,,,,,,,,,,,,,,,,,,,,,,,,,,,,,,,,,,,,,,,,,,,,,,,,,,,,,,,,,,,,,,,,,,,,,,,,,,,,,,,,,,,,,,,,,,,,,446.64663767,454.2481841550002,,,,,,,,,,,,,,,,,,,,,,,,,,,,,,,,,,,,,,,,,,,,,,,,,,,,,012122,1,2,1,3,0,1,1,0,46,2022_Jan_21_1044,listening_fmri,3.2.4,59.90874137380064,
,1,parcelated_audio/14/14_19.ogg,,,,,,,,,0,0,0,0,0,1,1,1,0,0,0,0,,,,,,,,,0,0,0,0,0,18,18,18,,,,,,,,,,,,,,,,,,,,,,,,,,,,,,,,,,,,,,,,,,,,,,,,,,,,,,,,,,,,,,,,,,,,,,,,,,,,,,,,,,,,,,,,,,,,,,,,,,,,,,,,,,,,,,,,,,454.24868117000005,457.1043051730003,,,,,,,,,,,,,,,,,,,,,,,,,,,,,,,,,,,,,,,,,,,,,,,,,,,,,012122,1,2,1,3,0,1,1,0,46,2022_Jan_21_1044,listening_fmri,3.2.4,59.90874137380064,
,1,parcelated_audio/14/14_20.ogg,,,,,,,,,0,0,0,0,0,1,1,1,0,0,0,0,,,,,,,,,0,0,0,0,0,19,19,19,,,,,,,,,,,,,,,,,,,,,,,,,,,,,,,,,,,,,,,,,,,,,,,,,,,,,,,,,,,,,,,,,,,,,,,,,,,,,,,,,,,,,,,,,,,,,,,,,,,,,,,,,,,,,,,,,,457.1046573480003,459.245333026,,,,,,,,,,,,,,,,,,,,,,,,,,,,,,,,,,,,,,,,,,,,,,,,,,,,,012122,1,2,1,3,0,1,1,0,46,2022_Jan_21_1044,listening_fmri,3.2.4,59.90874137380064,
,1,parcelated_audio/14/14_21.ogg,,,,,,,,,0,0,0,0,0,1,1,1,0,0,0,0,,,,,,,,,0,0,0,0,0,20,20,20,,,,,,,,,,,,,,,,,,,,,,,,,,,,,,,,,,,,,,,,,,,,,,,,,,,,,,,,,,,,,,,,,,,,,,,,,,,,,,,,,,,,,,,,,,,,,,,,,,,,,,,,,,,,,,,,,,459.2456852920004,468.8044052250002,,,,,,,,,,,,,,,,,,,,,,,,,,,,,,,,,,,,,,,,,,,,,,,,,,,,,012122,1,2,1,3,0,1,1,0,46,2022_Jan_21_1044,listening_fmri,3.2.4,59.90874137380064,
,1,parcelated_audio/14/14_22.ogg,,,,,,,,,0,0,0,0,0,1,1,1,0,0,0,0,,,,,,,,,0,0,0,0,0,21,21,21,,,,,,,,,,,,,,,,,,,,,,,,,,,,,,,,,,,,,,,,,,,,,,,,,,,,,,,,,,,,,,,,,,,,,,,,,,,,,,,,,,,,,,,,,,,,,,,,,,,,,,,,,,,,,,,,,,468.8047682240003,475.1442089500001,,,,,,,,,,,,,,,,,,,,,,,,,,,,,,,,,,,,,,,,,,,,,,,,,,,,,012122,1,2,1,3,0,1,1,0,46,2022_Jan_21_1044,listening_fmri,3.2.4,59.90874137380064,
,1,parcelated_audio/14/14_23.ogg,,,,,,,,,0,0,0,0,0,1,1,1,0,0,0,0,,,,,,,,,0,0,0,0,0,22,22,22,,,,,,,,,,,,,,,,,,,,,,,,,,,,,,,,,,,,,,,,,,,,,,,,,,,,,,,,,,,,,,,,,,,,,,,,,,,,,,,,,,,,,,,,,,,,,,,,,,,,,,,,,,,,,,,,,,475.14472730100033,480.2043016130001,,,,,,,,,,,,,,,,,,,,,,,,,,,,,,,,,,,,,,,,,,,,,,,,,,,,,012122,1,2,1,3,0,1,1,0,46,2022_Jan_21_1044,listening_fmri,3.2.4,59.90874137380064,
,1,parcelated_audio/14/14_24.ogg,,,,,,,,,0,0,0,0,0,1,1,1,0,0,0,0,,,,,,,,,0,0,0,0,0,23,23,23,,,,,,,,,,,,,,,,,,,,,,,,,,,,,,,,,,,,,,,,,,,,,,,,,,,,,,,,,,,,,,,,,,,,,,,,,,,,,,,,,,,,,,,,,,,,,,,,,,,,,,,,,,,,,,,,,,480.2050703570003,491.11932561000003,,,,,,,,,,,,,,,,,,,,,,,,,,,,,,,,,,,,,,,,,,,,,,,,,,,,,012122,1,2,1,3,0,1,1,0,46,2022_Jan_21_1044,listening_fmri,3.2.4,59.90874137380064,
,1,parcelated_audio/14/14_25.ogg,,,,,,,,,0,0,0,0,0,1,1,1,0,0,0,0,,,,,,,,,0,0,0,0,0,24,24,24,,,,,,,,,,,,,,,,,,,,,,,,,,,,,,,,,,,,,,,,,,,,,,,,,,,,,,,,,,,,,,,,,,,,,,,,,,,,,,,,,,,,,,,,,,,,,,,,,,,,,,,,,,,,,,,,,,491.1201379510003,497.7703639330002,,,,,,,,,,,,,,,,,,,,,,,,,,,,,,,,,,,,,,,,,,,,,,,,,,,,,012122,1,2,1,3,0,1,1,0,46,2022_Jan_21_1044,listening_fmri,3.2.4,59.90874137380064,
,1,parcelated_audio/14/14_26.ogg,,,,,,,,,0,0,0,0,0,1,1,1,0,0,0,0,,,,,,,,,0,0,0,0,0,25,25,25,,,,,,,,,,,,,,,,,,,,,,,,,,,,,,,,,,,,,,,,,,,,,,,,,,,,,,,,,,,,,,,,,,,,,,,,,,,,,,,,,,,,,,,,,,,,,,,,,,,,,,,,,,,,,,,,,,497.77072392300033,499.95006347900016,,,,,,,,,,,,,,,,,,,,,,,,,,,,,,,,,,,,,,,,,,,,,,,,,,,,,012122,1,2,1,3,0,1,1,0,46,2022_Jan_21_1044,listening_fmri,3.2.4,59.90874137380064,
,1,parcelated_audio/14/14_27.ogg,,,,,,,,,0,0,0,0,0,1,1,1,0,0,0,0,,,,,,,,,0,0,0,0,0,26,26,26,,,,,,,,,,,,,,,,,,,,,,,,,,,,,,,,,,,,,,,,,,,,,,,,,,,,,,,,,,,,,,,,,,,,,,,,,,,,,,,,,,,,,,,,,,,,,,,,,,,,,,,,,,,,,,,,,,499.9504211790004,505.972328844,,,,,,,,,,,,,,,,,,,,,,,,,,,,,,,,,,,,,,,,,,,,,,,,,,,,,012122,1,2,1,3,0,1,1,0,46,2022_Jan_21_1044,listening_fmri,3.2.4,59.90874137380064,
,1,parcelated_audio/14/14_28.ogg,,,,,,,,,0,0,0,0,0,1,1,1,0,0,0,0,,,,,,,,,0,0,0,0,0,27,27,27,,,,,,,,,,,,,,,,,,,,,,,,,,,,,,,,,,,,,,,,,,,,,,,,,,,,,,,,,,,,,,,,,,,,,,,,,,,,,,,,,,,,,,,,,,,,,,,,,,,,,,,,,,,,,,,,,,505.9728407970001,508.9526707980003,,,,,,,,,,,,,,,,,,,,,,,,,,,,,,,,,,,,,,,,,,,,,,,,,,,,,012122,1,2,1,3,0,1,1,0,46,2022_Jan_21_1044,listening_fmri,3.2.4,59.90874137380064,
,1,parcelated_audio/14/14_29.ogg,,,,,,,,,0,0,0,0,0,1,1,1,0,0,0,0,,,,,,,,,0,0,0,0,0,28,28,28,,,,,,,,,,,,,,,,,,,,,,,,,,,,,,,,,,,,,,,,,,,,,,,,,,,,,,,,,,,,,,,,,,,,,,,,,,,,,,,,,,,,,,,,,,,,,,,,,,,,,,,,,,,,,,,,,,508.9529481120003,511.3211120250003,,,,,,,,,,,,,,,,,,,,,,,,,,,,,,,,,,,,,,,,,,,,,,,,,,,,,012122,1,2,1,3,0,1,1,0,46,2022_Jan_21_1044,listening_fmri,3.2.4,59.90874137380064,
,1,parcelated_audio/14/14_30.ogg,,,,,,,,,0,0,0,0,0,1,1,1,0,0,0,0,,,,,,,,,0,0,0,0,0,29,29,29,,,,,,,,,,,,,,,,,,,,,,,,,,,,,,,,,,,,,,,,,,,,,,,,,,,,,,,,,,,,,,,,,,,,,,,,,,,,,,,,,,,,,,,,,,,,,,,,,,,,,,,,,,,,,,,,,,511.32156906900036,515.5851641480003,,,,,,,,,,,,,,,,,,,,,,,,,,,,,,,,,,,,,,,,,,,,,,,,,,,,,012122,1,2,1,3,0,1,1,0,46,2022_Jan_21_1044,listening_fmri,3.2.4,59.90874137380064,
,1,parcelated_audio/14/14_31.ogg,,,,,,,,,0,0,0,0,0,1,1,1,0,0,0,0,,,,,,,,,0,0,0,0,0,30,30,30,,,,,,,,,,,,,,,,,,,,,,,,,,,,,,,,,,,,,,,,,,,,,,,,,,,,,,,,,,,,,,,,,,,,,,,,,,,,,,,,,,,,,,,,,,,,,,,,,,,,,,,,,,,,,,,,,,515.585726153,522.8593921480001,,,,,,,,,,,,,,,,,,,,,,,,,,,,,,,,,,,,,,,,,,,,,,,,,,,,,012122,1,2,1,3,0,1,1,0,46,2022_Jan_21_1044,listening_fmri,3.2.4,59.90874137380064,
,1,parcelated_audio/14/14_32.ogg,,,,,,,,,0,0,0,0,0,1,1,1,0,0,0,0,,,,,,,,,0,0,0,0,0,31,31,31,,,,,,,,,,,,,,,,,,,,,,,,,,,,,,,,,,,,,,,,,,,,,,,,,,,,,,,,,,,,,,,,,,,,,,,,,,,,,,,,,,,,,,,,,,,,,,,,,,,,,,,,,,,,,,,,,,522.8597456960001,530.0142417420002,,,,,,,,,,,,,,,,,,,,,,,,,,,,,,,,,,,,,,,,,,,,,,,,,,,,,012122,1,2,1,3,0,1,1,0,46,2022_Jan_21_1044,listening_fmri,3.2.4,59.90874137380064,
,1,parcelated_audio/14/14_33.ogg,,,,,,,,,0,0,0,0,0,1,1,1,0,0,0,0,,,,,,,,,0,0,0,0,0,32,32,32,,,,,,,,,,,,,,,,,,,,,,,,,,,,,,,,,,,,,,,,,,,,,,,,,,,,,,,,,,,,,,,,,,,,,,,,,,,,,,,,,,,,,,,,,,,,,,,,,,,,,,,,,,,,,,,,,,530.0145974240004,536.5760013020003,,,,,,,,,,,,,,,,,,,,,,,,,,,,,,,,,,,,,,,,,,,,,,,,,,,,,012122,1,2,1,3,0,1,1,0,46,2022_Jan_21_1044,listening_fmri,3.2.4,59.90874137380064,
,1,,,,,,,,,,0,0,0,0,0,1,1,1,0,0,0,0,,,,,,,,,0,0,0,0,,,,,,,,,,,,,,,,,,,,,,,,,,,,,,,,,,,,,,,,,,,,,,,,,,,,,,,,,,,,,,,,,,,,,,,,,,,,,,,,,,,,,,,,,,,,,,,,,,,,,,,,,,,,,,,,,,,,,,,,,,,,,,,,,,,,,,,,,,,,,,,,,,,,,,,,,,,,,,,,,,,,,,,,,,,,012122,1,2,1,3,0,1,1,0,46,2022_Jan_21_1044,listening_fmri,3.2.4,59.90874137380064,
,,,,,,,,,,,,,,,,,,,,,,,,,,,,,,,,,,,,,,,,,,,,,,,,,,,,,,,,,,,,,,,,,,,,,,,,,,,,,,,,,,,,,,,,,,,,,,,,,,,,,,,,,,,,,,,,,,,,,,,,,,,,,,,,,,536.5764252680001,542.5667550750004,677.6070191009999,None,,,,,,,,,,,,,,,,,,,,,683.6070440590001,None,683.6070440590001,None,,,,,,,,,,,,,,,,,,,,,,,,,,,,,,,,,,,,,,,,,,,,,,,,,,,,,,,,,,,,,,,
﻿instructions,count,audio,trials_14.thisRepN,trials_14.thisTrialN,trials_14.thisN,trials_14.thisIndex,trials_13.thisRepN,trials_13.thisTrialN,trials_13.thisN,trials_13.thisIndex,trials_3.thisRepN,trials_3.thisTrialN,trials_3.thisN,trials_3.thisIndex,Block1.thisRepN,Block1.thisTrialN,Block1.thisN,Block1.thisIndex,trials_5.thisRepN,trials_5.thisTrialN,trials_5.thisN,trials_5.thisIndex,trials.thisRepN,trials.thisTrialN,trials.thisN,trials.thisIndex,trials_2.thisRepN,trials_2.thisTrialN,trials_2.thisN,trials_2.thisIndex,trials_22.thisRepN,trials_22.thisTrialN,trials_22.thisN,trials_22.thisIndex,trials_16.thisRepN,trials_16.thisTrialN,trials_16.thisN,trials_16.thisIndex,trials_23.thisRepN,trials_23.thisTrialN,trials_23.thisN,trials_23.thisIndex,trials_7.thisRepN,trials_7.thisTrialN,trials_7.thisN,trials_7.thisIndex,story_list_block1,action_list_block1,key_resp_5.keys,key_resp_5.rt,key_resp_5.started,key_resp_5.stopped,text_87.started,text_87.stopped,text_88.started,text_88.stopped,key_resp_31.keys,key_resp_31.rt,key_resp_31.started,key_resp_31.stopped,text_89.started,text_89.stopped,image_27.started,image_27.stopped,text_97.started,text_97.stopped,image_24.started,image_24.stopped,key_resp_21.keys,key_resp_21.rt,key_resp_21.started,key_resp_21.stopped,text_78.started,text_78.stopped,text_96.started,text_96.stopped,image_28.started,image_28.stopped,key_resp_36.keys,key_resp_36.rt,key_resp_36.started,key_resp_36.stopped,text_94.started,text_94.stopped,text_95.started,text_95.stopped,text_90.started,text_90.stopped,key_resp_32.keys,key_resp_32.rt,key_resp_32.started,key_resp_32.stopped,text_91.started,text_91.stopped,key_resp_33.keys,key_resp_33.rt,key_resp_33.started,key_resp_33.stopped,text_92.started,text_92.stopped,key_resp_34.keys,key_resp_34.rt,key_resp_34.started,key_resp_34.stopped,text_93.started,text_93.stopped,key_resp_35.keys,key_resp_35.rt,key_resp_35.started,key_resp_35.stopped,text_98.started,text_98.stopped,text_99.started,text_99.stopped,key_resp_37.keys,key_resp_37.rt,key_resp_37.started,key_resp_37.stopped,textTrigger.started,textTrigger.stopped,getTrigger.keys,getTrigger.rt,getTrigger.started,getTrigger.stopped,triggerTime,text_76.started,text_76.stopped,text_77.started,text_77.stopped,startWait,endWait,image_23.started,image_23.stopped,text_38.started,text_38.stopped,key_resp_8.keys,key_resp_8.rt,key_resp_8.started,key_resp_8.stopped,text_39.started,text_39.stopped,text.started,text.stopped,text_50.started,text_50.stopped,key_resp_14.keys,key_resp_14.rt,key_resp_14.started,key_resp_14.stopped,storyImage_StartTime,storyImage_EndTime,clip_StartTime,clip_EndTime,text_6.started,text_6.stopped,text_52.started,text_52.stopped,text_33.started,text_33.stopped,key_resp_30.keys,key_resp_30.rt,key_resp_30.started,key_resp_30.stopped,text_79.started,text_79.stopped,text_4.started,text_4.stopped,image.started,image.stopped,text_5.started,text_5.stopped,key_resp_22.keys,key_resp_22.rt,key_resp_22.started,key_resp_22.stopped,text_37.started,text_37.stopped,key_resp_7.keys,key_resp_7.rt,key_resp_7.started,key_resp_7.stopped,text_80.started,text_80.stopped,question1_3.started,question1_3.stopped,question2_3.started,question2_3.stopped,question3_3.started,question3_3.stopped,question4_3.started,question4_3.stopped,question5_3.started,question5_3.stopped,question6_3.started,question6_3.stopped,image_16.started,image_16.stopped,text_49.started,text_49.stopped,key_resp_15.keys,key_resp_15.rt,key_resp_15.started,key_resp_15.stopped,text_81.started,text_81.stopped,participant,sA,sB,lA,lB,block_struct,play_stories,block,behavioral,random_seed,date,expName,psychopyVersion,frameRate,
Welcome to the story listening part of the experiment. ,,,0,0,0,0,0,0,0,0,,,,,,,,,,,,,,,,,,,,,,,,,,,,,,,,,,,,,[41 14 23 21 32 12 43 34],[4 2 1 1 3 2 4 3],1,1.6705096229998162,20.40595217400005,None,20.40595217400005,None,20.40595217400005,None,,,,,,,,,,,,,,,,,,,,,,,,,,,,,,,,,,,,,,,,,,,,,,,,,,,,,,,,,,,,,,,,,,,,,,,,,,,,,,,,,,,,,,,,,,,,,,,,,,,,,,,,,,,,,,,,,,,,,,,,,,,,,,,,,,,,,,,,,,,,,,,,,,,,,,012122,1,2,1,3,0,1,1,0,46,2022_Jan_21_1044,listening_fmri,3.2.4,59.90874137380064,
"As a reminder, you will listen to 12 short stories.",,,0,0,0,0,0,1,1,1,,,,,,,,,,,,,,,,,,,,,,,,,,,,,,,,,,,,,,,2,5.433745122000346,22.114720750999822,None,22.114720750999822,None,22.114720750999822,None,,,,,,,,,,,,,,,,,,,,,,,,,,,,,,,,,,,,,,,,,,,,,,,,,,,,,,,,,,,,,,,,,,,,,,,,,,,,,,,,,,,,,,,,,,,,,,,,,,,,,,,,,,,,,,,,,,,,,,,,,,,,,,,,,,,,,,,,,,,,,,,,,,,,,,012122,1,2,1,3,0,1,1,0,46,2022_Jan_21_1044,listening_fmri,3.2.4,59.90874137380064,
These stories will be divided into 2 blocks of 6 stories.,,,0,0,0,0,0,2,2,2,,,,,,,,,,,,,,,,,,,,,,,,,,,,,,,,,,,,,,,2,2.813458230999913,27.571951180999804,None,27.571951180999804,None,27.571951180999804,None,,,,,,,,,,,,,,,,,,,,,,,,,,,,,,,,,,,,,,,,,,,,,,,,,,,,,,,,,,,,,,,,,,,,,,,,,,,,,,,,,,,,,,,,,,,,,,,,,,,,,,,,,,,,,,,,,,,,,,,,,,,,,,,,,,,,,,,,,,,,,,,,,,,,,,012122,1,2,1,3,0,1,1,0,46,2022_Jan_21_1044,listening_fmri,3.2.4,59.90874137380064,
"Before some of the stories, we will ask you to take on the perspective of a job. ",,,0,0,0,0,0,3,3,3,,,,,,,,,,,,,,,,,,,,,,,,,,,,,,,,,,,,,,,2,3.0395436270000573,30.40501333300017,None,30.40501333300017,None,30.40501333300017,None,,,,,,,,,,,,,,,,,,,,,,,,,,,,,,,,,,,,,,,,,,,,,,,,,,,,,,,,,,,,,,,,,,,,,,,,,,,,,,,,,,,,,,,,,,,,,,,,,,,,,,,,,,,,,,,,,,,,,,,,,,,,,,,,,,,,,,,,,,,,,,,,,,,,,,012122,1,2,1,3,0,1,1,0,46,2022_Jan_21_1044,listening_fmri,3.2.4,59.90874137380064,
Please “simulate” this job while you listen to the story that follows.,,,0,0,0,0,0,4,4,4,,,,,,,,,,,,,,,,,,,,,,,,,,,,,,,,,,,,,,,3,3.4219223740001325,33.481770680999944,None,33.481770680999944,None,33.481770680999944,None,,,,,,,,,,,,,,,,,,,,,,,,,,,,,,,,,,,,,,,,,,,,,,,,,,,,,,,,,,,,,,,,,,,,,,,,,,,,,,,,,,,,,,,,,,,,,,,,,,,,,,,,,,,,,,,,,,,,,,,,,,,,,,,,,,,,,,,,,,,,,,,,,,,,,,012122,1,2,1,3,0,1,1,0,46,2022_Jan_21_1044,listening_fmri,3.2.4,59.90874137380064,
"Before you begin, we will go over how to use the button box:",,,0,0,0,0,0,5,5,5,,,,,,,,,,,,,,,,,,,,,,,,,,,,,,,,,,,,,,,4,2.169069256000057,36.931526506999944,None,36.931526506999944,None,36.931526506999944,None,,,,,,,,,,,,,,,,,,,,,,,,,,,,,,,,,,,,,,,,,,,,,,,,,,,,,,,,,,,,,,,,,,,,,,,,,,,,,,,,,,,,,,,,,,,,,,,,,,,,,,,,,,,,,,,,,,,,,,,,,,,,,,,,,,,,,,,,,,,,,,,,,,,,,,012122,1,2,1,3,0,1,1,0,46,2022_Jan_21_1044,listening_fmri,3.2.4,59.90874137380064,
"In this experiment, you'll use the first three fingers on each hand to do the quizzes and advance through the experiment. ",,,0,0,0,0,0,6,6,6,,,,,,,,,,,,,,,,,,,,,,,,,,,,,,,,,,,,,,,5,4.172681993999959,39.130961888,None,39.130961888,None,39.130961888,None,,,,,,,,,,,,,,,,,,,,,,,,,,,,,,,,,,,,,,,,,,,,,,,,,,,,,,,,,,,,,,,,,,,,,,,,,,,,,,,,,,,,,,,,,,,,,,,,,,,,,,,,,,,,,,,,,,,,,,,,,,,,,,,,,,,,,,,,,,,,,,,,,,,,,,012122,1,2,1,3,0,1,1,0,46,2022_Jan_21_1044,listening_fmri,3.2.4,59.90874137380064,
,,,0,0,0,0,,,,,,,,,,,,,,,,,,,,,,,,,,,,,,,,,,,,,,,,,,,,,,,,,,,3,5.5665820760000315,43.33105316299998,None,43.33105316299998,None,43.33105316299998,None,43.33105316299998,None,48.93178039799977,None,3,7.986830664000081,48.93178039799977,None,48.93178039799977,None,48.93178039799977,None,48.93178039799977,None,3,3.182343415000105,56.948125965000145,None,56.948125965000145,None,56.948125965000145,None,60.15520966299982,None,1,37.992402052000216,60.15520966299982,None,98.18134968599998,None,8,2.857212523999806,98.18134968599998,None,101.0551319619999,None,6,1.6914272470003198,101.0551319619999,None,102.77168317899987,None,2,1.7308636600000682,102.77168317899987,None,104.52173544400011,None,104.52173544400011,None,8,2.142864586000087,104.52173544400011,None,,,,,,,,,,,,,,,,,,,,,,,,,,,,,,,,,,,,,,,,,,,,,,,,,,,,,,,,,,,,,,,,,,,,,,,,,,,,,,,,,,,,,,,,012122,1,2,1,3,0,1,1,0,46,2022_Jan_21_1044,listening_fmri,3.2.4,59.90874137380064,
,0,parcelated_audio/41/41_1.ogg,,,,,,,,,0,0,0,0,0,0,0,0,0,0,0,0,,,,,,,,,0,0,0,0,0,0,0,0,,,,,,,,,,,,,,,,,,,,,,,,,,,,,,,,,,,,,,,,,,,,,,,,,,,,,,,,,,,,,,,,,,,,,,,,,,,,,,,,,106.68888483199999,None,equal,34.316589983000085,106.68888483199999,None,120.64518271299994,106.68888483199999,None,106.68888483199999,None,0.0003629220000220812,5.998625020000418,141.03870611999992,None,147.03876402000014,None,8,2.2157053310002084,147.03876402000014,None,147.03876402000014,None,147.03876402000014,None,149.27295397299986,None,3,17.169639496999935,149.27295397299986,None,25.447905292000087,28.456961665000108,28.46307119500034,37.595389313000396,,,,,,,,,,,,,,,,,,,,,,,,,,,,,,,,,,,,,,,,,,,,,,,,,,,,,012122,1,2,1,3,0,1,1,0,46,2022_Jan_21_1044,listening_fmri,3.2.4,59.90874137380064,
,0,parcelated_audio/41/41_2.ogg,,,,,,,,,0,0,0,0,0,0,0,0,0,0,0,0,,,,,,,,,0,0,0,0,0,1,1,1,,,,,,,,,,,,,,,,,,,,,,,,,,,,,,,,,,,,,,,,,,,,,,,,,,,,,,,,,,,,,,,,,,,,,,,,,,,,,,,,,,,,,,,,,,,,,,,,,,,,,,,,,,,,,,,,,,37.59564567900043,44.85055757600003,,,,,,,,,,,,,,,,,,,,,,,,,,,,,,,,,,,,,,,,,,,,,,,,,,,,,012122,1,2,1,3,0,1,1,0,46,2022_Jan_21_1044,listening_fmri,3.2.4,59.90874137380064,
,0,parcelated_audio/41/41_3.ogg,,,,,,,,,0,0,0,0,0,0,0,0,0,0,0,0,,,,,,,,,0,0,0,0,0,2,2,2,,,,,,,,,,,,,,,,,,,,,,,,,,,,,,,,,,,,,,,,,,,,,,,,,,,,,,,,,,,,,,,,,,,,,,,,,,,,,,,,,,,,,,,,,,,,,,,,,,,,,,,,,,,,,,,,,,44.8509073780001,49.16335620400014,,,,,,,,,,,,,,,,,,,,,,,,,,,,,,,,,,,,,,,,,,,,,,,,,,,,,012122,1,2,1,3,0,1,1,0,46,2022_Jan_21_1044,listening_fmri,3.2.4,59.90874137380064,
,0,parcelated_audio/41/41_4.ogg,,,,,,,,,0,0,0,0,0,0,0,0,0,0,0,0,,,,,,,,,0,0,0,0,0,3,3,3,,,,,,,,,,,,,,,,,,,,,,,,,,,,,,,,,,,,,,,,,,,,,,,,,,,,,,,,,,,,,,,,,,,,,,,,,,,,,,,,,,,,,,,,,,,,,,,,,,,,,,,,,,,,,,,,,,49.16370738800015,53.13566431400022,,,,,,,,,,,,,,,,,,,,,,,,,,,,,,,,,,,,,,,,,,,,,,,,,,,,,012122,1,2,1,3,0,1,1,0,46,2022_Jan_21_1044,listening_fmri,3.2.4,59.90874137380064,
,0,parcelated_audio/41/41_5.ogg,,,,,,,,,0,0,0,0,0,0,0,0,0,0,0,0,,,,,,,,,0,0,0,0,0,4,4,4,,,,,,,,,,,,,,,,,,,,,,,,,,,,,,,,,,,,,,,,,,,,,,,,,,,,,,,,,,,,,,,,,,,,,,,,,,,,,,,,,,,,,,,,,,,,,,,,,,,,,,,,,,,,,,,,,,53.13616240800002,59.26734612700011,,,,,,,,,,,,,,,,,,,,,,,,,,,,,,,,,,,,,,,,,,,,,,,,,,,,,012122,1,2,1,3,0,1,1,0,46,2022_Jan_21_1044,listening_fmri,3.2.4,59.90874137380064,
,0,parcelated_audio/41/41_6.ogg,,,,,,,,,0,0,0,0,0,0,0,0,0,0,0,0,,,,,,,,,0,0,0,0,0,5,5,5,,,,,,,,,,,,,,,,,,,,,,,,,,,,,,,,,,,,,,,,,,,,,,,,,,,,,,,,,,,,,,,,,,,,,,,,,,,,,,,,,,,,,,,,,,,,,,,,,,,,,,,,,,,,,,,,,,59.26769551800044,69.18726345100004,,,,,,,,,,,,,,,,,,,,,,,,,,,,,,,,,,,,,,,,,,,,,,,,,,,,,012122,1,2,1,3,0,1,1,0,46,2022_Jan_21_1044,listening_fmri,3.2.4,59.90874137380064,
,0,parcelated_audio/41/41_7.ogg,,,,,,,,,0,0,0,0,0,0,0,0,0,0,0,0,,,,,,,,,0,0,0,0,0,6,6,6,,,,,,,,,,,,,,,,,,,,,,,,,,,,,,,,,,,,,,,,,,,,,,,,,,,,,,,,,,,,,,,,,,,,,,,,,,,,,,,,,,,,,,,,,,,,,,,,,,,,,,,,,,,,,,,,,,69.18761956200024,76.92912331000025,,,,,,,,,,,,,,,,,,,,,,,,,,,,,,,,,,,,,,,,,,,,,,,,,,,,,012122,1,2,1,3,0,1,1,0,46,2022_Jan_21_1044,listening_fmri,3.2.4,59.90874137380064,
,0,parcelated_audio/41/41_8.ogg,,,,,,,,,0,0,0,0,0,0,0,0,0,0,0,0,,,,,,,,,0,0,0,0,0,7,7,7,,,,,,,,,,,,,,,,,,,,,,,,,,,,,,,,,,,,,,,,,,,,,,,,,,,,,,,,,,,,,,,,,,,,,,,,,,,,,,,,,,,,,,,,,,,,,,,,,,,,,,,,,,,,,,,,,,76.92963157800023,81.17412479500035,,,,,,,,,,,,,,,,,,,,,,,,,,,,,,,,,,,,,,,,,,,,,,,,,,,,,012122,1,2,1,3,0,1,1,0,46,2022_Jan_21_1044,listening_fmri,3.2.4,59.90874137380064,
,0,parcelated_audio/41/41_9.ogg,,,,,,,,,0,0,0,0,0,0,0,0,0,0,0,0,,,,,,,,,0,0,0,0,0,8,8,8,,,,,,,,,,,,,,,,,,,,,,,,,,,,,,,,,,,,,,,,,,,,,,,,,,,,,,,,,,,,,,,,,,,,,,,,,,,,,,,,,,,,,,,,,,,,,,,,,,,,,,,,,,,,,,,,,,81.17464335800014,90.8218666040002,,,,,,,,,,,,,,,,,,,,,,,,,,,,,,,,,,,,,,,,,,,,,,,,,,,,,012122,1,2,1,3,0,1,1,0,46,2022_Jan_21_1044,listening_fmri,3.2.4,59.90874137380064,
,0,parcelated_audio/41/41_10.ogg,,,,,,,,,0,0,0,0,0,0,0,0,0,0,0,0,,,,,,,,,0,0,0,0,0,9,9,9,,,,,,,,,,,,,,,,,,,,,,,,,,,,,,,,,,,,,,,,,,,,,,,,,,,,,,,,,,,,,,,,,,,,,,,,,,,,,,,,,,,,,,,,,,,,,,,,,,,,,,,,,,,,,,,,,,90.82221799000035,97.32876982900007,,,,,,,,,,,,,,,,,,,,,,,,,,,,,,,,,,,,,,,,,,,,,,,,,,,,,012122,1,2,1,3,0,1,1,0,46,2022_Jan_21_1044,listening_fmri,3.2.4,59.90874137380064,
,0,parcelated_audio/41/41_11.ogg,,,,,,,,,0,0,0,0,0,0,0,0,0,0,0,0,,,,,,,,,0,0,0,0,0,10,10,10,,,,,,,,,,,,,,,,,,,,,,,,,,,,,,,,,,,,,,,,,,,,,,,,,,,,,,,,,,,,,,,,,,,,,,,,,,,,,,,,,,,,,,,,,,,,,,,,,,,,,,,,,,,,,,,,,,97.3291439630002,101.10223148400019,,,,,,,,,,,,,,,,,,,,,,,,,,,,,,,,,,,,,,,,,,,,,,,,,,,,,012122,1,2,1,3,0,1,1,0,46,2022_Jan_21_1044,listening_fmri,3.2.4,59.90874137380064,
,0,parcelated_audio/41/41_12.ogg,,,,,,,,,0,0,0,0,0,0,0,0,0,0,0,0,,,,,,,,,0,0,0,0,0,11,11,11,,,,,,,,,,,,,,,,,,,,,,,,,,,,,,,,,,,,,,,,,,,,,,,,,,,,,,,,,,,,,,,,,,,,,,,,,,,,,,,,,,,,,,,,,,,,,,,,,,,,,,,,,,,,,,,,,,101.10258023900042,110.85425481000038,,,,,,,,,,,,,,,,,,,,,,,,,,,,,,,,,,,,,,,,,,,,,,,,,,,,,012122,1,2,1,3,0,1,1,0,46,2022_Jan_21_1044,listening_fmri,3.2.4,59.90874137380064,
,0,parcelated_audio/41/41_13.ogg,,,,,,,,,0,0,0,0,0,0,0,0,0,0,0,0,,,,,,,,,0,0,0,0,0,12,12,12,,,,,,,,,,,,,,,,,,,,,,,,,,,,,,,,,,,,,,,,,,,,,,,,,,,,,,,,,,,,,,,,,,,,,,,,,,,,,,,,,,,,,,,,,,,,,,,,,,,,,,,,,,,,,,,,,,110.85460870700035,116.69933010700015,,,,,,,,,,,,,,,,,,,,,,,,,,,,,,,,,,,,,,,,,,,,,,,,,,,,,012122,1,2,1,3,0,1,1,0,46,2022_Jan_21_1044,listening_fmri,3.2.4,59.90874137380064,
,0,parcelated_audio/41/41_14.ogg,,,,,,,,,0,0,0,0,0,0,0,0,0,0,0,0,,,,,,,,,0,0,0,0,0,13,13,13,,,,,,,,,,,,,,,,,,,,,,,,,,,,,,,,,,,,,,,,,,,,,,,,,,,,,,,,,,,,,,,,,,,,,,,,,,,,,,,,,,,,,,,,,,,,,,,,,,,,,,,,,,,,,,,,,,116.69967841700009,123.9283428800004,,,,,,,,,,,,,,,,,,,,,,,,,,,,,,,,,,,,,,,,,,,,,,,,,,,,,012122,1,2,1,3,0,1,1,0,46,2022_Jan_21_1044,listening_fmri,3.2.4,59.90874137380064,
,0,parcelated_audio/41/41_15.ogg,,,,,,,,,0,0,0,0,0,0,0,0,0,0,0,0,,,,,,,,,0,0,0,0,0,14,14,14,,,,,,,,,,,,,,,,,,,,,,,,,,,,,,,,,,,,,,,,,,,,,,,,,,,,,,,,,,,,,,,,,,,,,,,,,,,,,,,,,,,,,,,,,,,,,,,,,,,,,,,,,,,,,,,,,,123.92869444600001,127.35931345500012,,,,,,,,,,,,,,,,,,,,,,,,,,,,,,,,,,,,,,,,,,,,,,,,,,,,,012122,1,2,1,3,0,1,1,0,46,2022_Jan_21_1044,listening_fmri,3.2.4,59.90874137380064,
,0,parcelated_audio/41/41_16.ogg,,,,,,,,,0,0,0,0,0,0,0,0,0,0,0,0,,,,,,,,,0,0,0,0,0,15,15,15,,,,,,,,,,,,,,,,,,,,,,,,,,,,,,,,,,,,,,,,,,,,,,,,,,,,,,,,,,,,,,,,,,,,,,,,,,,,,,,,,,,,,,,,,,,,,,,,,,,,,,,,,,,,,,,,,,127.35966580700006,132.226299164,,,,,,,,,,,,,,,,,,,,,,,,,,,,,,,,,,,,,,,,,,,,,,,,,,,,,012122,1,2,1,3,0,1,1,0,46,2022_Jan_21_1044,listening_fmri,3.2.4,59.90874137380064,
,0,parcelated_audio/41/41_17.ogg,,,,,,,,,0,0,0,0,0,0,0,0,0,0,0,0,,,,,,,,,0,0,0,0,0,16,16,16,,,,,,,,,,,,,,,,,,,,,,,,,,,,,,,,,,,,,,,,,,,,,,,,,,,,,,,,,,,,,,,,,,,,,,,,,,,,,,,,,,,,,,,,,,,,,,,,,,,,,,,,,,,,,,,,,,132.22664618000044,136.40595446600037,,,,,,,,,,,,,,,,,,,,,,,,,,,,,,,,,,,,,,,,,,,,,,,,,,,,,012122,1,2,1,3,0,1,1,0,46,2022_Jan_21_1044,listening_fmri,3.2.4,59.90874137380064,
,0,parcelated_audio/41/41_18.ogg,,,,,,,,,0,0,0,0,0,0,0,0,0,0,0,0,,,,,,,,,0,0,0,0,0,17,17,17,,,,,,,,,,,,,,,,,,,,,,,,,,,,,,,,,,,,,,,,,,,,,,,,,,,,,,,,,,,,,,,,,,,,,,,,,,,,,,,,,,,,,,,,,,,,,,,,,,,,,,,,,,,,,,,,,,136.4064080330004,138.93669727800034,,,,,,,,,,,,,,,,,,,,,,,,,,,,,,,,,,,,,,,,,,,,,,,,,,,,,012122,1,2,1,3,0,1,1,0,46,2022_Jan_21_1044,listening_fmri,3.2.4,59.90874137380064,
,0,parcelated_audio/41/41_19.ogg,,,,,,,,,0,0,0,0,0,0,0,0,0,0,0,0,,,,,,,,,0,0,0,0,0,18,18,18,,,,,,,,,,,,,,,,,,,,,,,,,,,,,,,,,,,,,,,,,,,,,,,,,,,,,,,,,,,,,,,,,,,,,,,,,,,,,,,,,,,,,,,,,,,,,,,,,,,,,,,,,,,,,,,,,,138.93704568900012,145.82720202100018,,,,,,,,,,,,,,,,,,,,,,,,,,,,,,,,,,,,,,,,,,,,,,,,,,,,,012122,1,2,1,3,0,1,1,0,46,2022_Jan_21_1044,listening_fmri,3.2.4,59.90874137380064,
,0,parcelated_audio/41/41_20.ogg,,,,,,,,,0,0,0,0,0,0,0,0,0,0,0,0,,,,,,,,,0,0,0,0,0,19,19,19,,,,,,,,,,,,,,,,,,,,,,,,,,,,,,,,,,,,,,,,,,,,,,,,,,,,,,,,,,,,,,,,,,,,,,,,,,,,,,,,,,,,,,,,,,,,,,,,,,,,,,,,,,,,,,,,,,145.82754838000028,150.75547594700038,,,,,,,,,,,,,,,,,,,,,,,,,,,,,,,,,,,,,,,,,,,,,,,,,,,,,012122,1,2,1,3,0,1,1,0,46,2022_Jan_21_1044,listening_fmri,3.2.4,59.90874137380064,
,0,parcelated_audio/41/41_21.ogg,,,,,,,,,0,0,0,0,0,0,0,0,0,0,0,0,,,,,,,,,0,0,0,0,0,20,20,20,,,,,,,,,,,,,,,,,,,,,,,,,,,,,,,,,,,,,,,,,,,,,,,,,,,,,,,,,,,,,,,,,,,,,,,,,,,,,,,,,,,,,,,,,,,,,,,,,,,,,,,,,,,,,,,,,,150.7557957250001,158.55519176200005,,,,,,,,,,,,,,,,,,,,,,,,,,,,,,,,,,,,,,,,,,,,,,,,,,,,,012122,1,2,1,3,0,1,1,0,46,2022_Jan_21_1044,listening_fmri,3.2.4,59.90874137380064,
,0,parcelated_audio/41/41_22.ogg,,,,,,,,,0,0,0,0,0,0,0,0,0,0,0,0,,,,,,,,,0,0,0,0,0,21,21,21,,,,,,,,,,,,,,,,,,,,,,,,,,,,,,,,,,,,,,,,,,,,,,,,,,,,,,,,,,,,,,,,,,,,,,,,,,,,,,,,,,,,,,,,,,,,,,,,,,,,,,,,,,,,,,,,,,158.55558050000036,174.36532107600033,,,,,,,,,,,,,,,,,,,,,,,,,,,,,,,,,,,,,,,,,,,,,,,,,,,,,012122,1,2,1,3,0,1,1,0,46,2022_Jan_21_1044,listening_fmri,3.2.4,59.90874137380064,
,0,parcelated_audio/41/41_23.ogg,,,,,,,,,0,0,0,0,0,0,0,0,0,0,0,0,,,,,,,,,0,0,0,0,0,22,22,22,,,,,,,,,,,,,,,,,,,,,,,,,,,,,,,,,,,,,,,,,,,,,,,,,,,,,,,,,,,,,,,,,,,,,,,,,,,,,,,,,,,,,,,,,,,,,,,,,,,,,,,,,,,,,,,,,,174.36567474000003,180.35687466900026,,,,,,,,,,,,,,,,,,,,,,,,,,,,,,,,,,,,,,,,,,,,,,,,,,,,,012122,1,2,1,3,0,1,1,0,46,2022_Jan_21_1044,listening_fmri,3.2.4,59.90874137380064,
,0,parcelated_audio/41/41_24.ogg,,,,,,,,,0,0,0,0,0,0,0,0,0,0,0,0,,,,,,,,,0,0,0,0,0,23,23,23,,,,,,,,,,,,,,,,,,,,,,,,,,,,,,,,,,,,,,,,,,,,,,,,,,,,,,,,,,,,,,,,,,,,,,,,,,,,,,,,,,,,,,,,,,,,,,,,,,,,,,,,,,,,,,,,,,180.3572434280004,187.01292079600034,,,,,,,,,,,,,,,,,,,,,,,,,,,,,,,,,,,,,,,,,,,,,,,,,,,,,012122,1,2,1,3,0,1,1,0,46,2022_Jan_21_1044,listening_fmri,3.2.4,59.90874137380064,
,0,parcelated_audio/41/41_25.ogg,,,,,,,,,0,0,0,0,0,0,0,0,0,0,0,0,,,,,,,,,0,0,0,0,0,24,24,24,,,,,,,,,,,,,,,,,,,,,,,,,,,,,,,,,,,,,,,,,,,,,,,,,,,,,,,,,,,,,,,,,,,,,,,,,,,,,,,,,,,,,,,,,,,,,,,,,,,,,,,,,,,,,,,,,,187.01329477700028,190.38205050800025,,,,,,,,,,,,,,,,,,,,,,,,,,,,,,,,,,,,,,,,,,,,,,,,,,,,,012122,1,2,1,3,0,1,1,0,46,2022_Jan_21_1044,listening_fmri,3.2.4,59.90874137380064,
,0,parcelated_audio/41/41_26.ogg,,,,,,,,,0,0,0,0,0,0,0,0,0,0,0,0,,,,,,,,,0,0,0,0,0,25,25,25,,,,,,,,,,,,,,,,,,,,,,,,,,,,,,,,,,,,,,,,,,,,,,,,,,,,,,,,,,,,,,,,,,,,,,,,,,,,,,,,,,,,,,,,,,,,,,,,,,,,,,,,,,,,,,,,,,190.3824188360004,195.9101313670003,,,,,,,,,,,,,,,,,,,,,,,,,,,,,,,,,,,,,,,,,,,,,,,,,,,,,012122,1,2,1,3,0,1,1,0,46,2022_Jan_21_1044,listening_fmri,3.2.4,59.90874137380064,
,0,parcelated_audio/41/41_27.ogg,,,,,,,,,0,0,0,0,0,0,0,0,0,0,0,0,,,,,,,,,0,0,0,0,0,26,26,26,,,,,,,,,,,,,,,,,,,,,,,,,,,,,,,,,,,,,,,,,,,,,,,,,,,,,,,,,,,,,,,,,,,,,,,,,,,,,,,,,,,,,,,,,,,,,,,,,,,,,,,,,,,,,,,,,,195.91048364800008,199.78216368100038,,,,,,,,,,,,,,,,,,,,,,,,,,,,,,,,,,,,,,,,,,,,,,,,,,,,,012122,1,2,1,3,0,1,1,0,46,2022_Jan_21_1044,listening_fmri,3.2.4,59.90874137380064,
,0,parcelated_audio/41/41_28.ogg,,,,,,,,,0,0,0,0,0,0,0,0,0,0,0,0,,,,,,,,,0,0,0,0,0,27,27,27,,,,,,,,,,,,,,,,,,,,,,,,,,,,,,,,,,,,,,,,,,,,,,,,,,,,,,,,,,,,,,,,,,,,,,,,,,,,,,,,,,,,,,,,,,,,,,,,,,,,,,,,,,,,,,,,,,199.78251549900006,208.13943443200014,,,,,,,,,,,,,,,,,,,,,,,,,,,,,,,,,,,,,,,,,,,,,,,,,,,,,012122,1,2,1,3,0,1,1,0,46,2022_Jan_21_1044,listening_fmri,3.2.4,59.90874137380064,
,0,parcelated_audio/41/41_29.ogg,,,,,,,,,0,0,0,0,0,0,0,0,0,0,0,0,,,,,,,,,0,0,0,0,0,28,28,28,,,,,,,,,,,,,,,,,,,,,,,,,,,,,,,,,,,,,,,,,,,,,,,,,,,,,,,,,,,,,,,,,,,,,,,,,,,,,,,,,,,,,,,,,,,,,,,,,,,,,,,,,,,,,,,,,,208.13988727700007,214.76337659800038,,,,,,,,,,,,,,,,,,,,,,,,,,,,,,,,,,,,,,,,,,,,,,,,,,,,,012122,1,2,1,3,0,1,1,0,46,2022_Jan_21_1044,listening_fmri,3.2.4,59.90874137380064,
,0,parcelated_audio/41/41_30.ogg,,,,,,,,,0,0,0,0,0,0,0,0,0,0,0,0,,,,,,,,,0,0,0,0,0,29,29,29,,,,,,,,,,,,,,,,,,,,,,,,,,,,,,,,,,,,,,,,,,,,,,,,,,,,,,,,,,,,,,,,,,,,,,,,,,,,,,,,,,,,,,,,,,,,,,,,,,,,,,,,,,,,,,,,,,214.763734698,223.47265325700027,,,,,,,,,,,,,,,,,,,,,,,,,,,,,,,,,,,,,,,,,,,,,,,,,,,,,012122,1,2,1,3,0,1,1,0,46,2022_Jan_21_1044,listening_fmri,3.2.4,59.90874137380064,
,0,parcelated_audio/41/41_31.ogg,,,,,,,,,0,0,0,0,0,0,0,0,0,0,0,0,,,,,,,,,0,0,0,0,0,30,30,30,,,,,,,,,,,,,,,,,,,,,,,,,,,,,,,,,,,,,,,,,,,,,,,,,,,,,,,,,,,,,,,,,,,,,,,,,,,,,,,,,,,,,,,,,,,,,,,,,,,,,,,,,,,,,,,,,,223.47314265700015,234.2231609620003,,,,,,,,,,,,,,,,,,,,,,,,,,,,,,,,,,,,,,,,,,,,,,,,,,,,,012122,1,2,1,3,0,1,1,0,46,2022_Jan_21_1044,listening_fmri,3.2.4,59.90874137380064,
,0,parcelated_audio/41/41_32.ogg,,,,,,,,,0,0,0,0,0,0,0,0,0,0,0,0,,,,,,,,,0,0,0,0,0,31,31,31,,,,,,,,,,,,,,,,,,,,,,,,,,,,,,,,,,,,,,,,,,,,,,,,,,,,,,,,,,,,,,,,,,,,,,,,,,,,,,,,,,,,,,,,,,,,,,,,,,,,,,,,,,,,,,,,,,234.22346321000032,242.56565043400042,,,,,,,,,,,,,,,,,,,,,,,,,,,,,,,,,,,,,,,,,,,,,,,,,,,,,012122,1,2,1,3,0,1,1,0,46,2022_Jan_21_1044,listening_fmri,3.2.4,59.90874137380064,
,0,parcelated_audio/41/41_33.ogg,,,,,,,,,0,0,0,0,0,0,0,0,0,0,0,0,,,,,,,,,0,0,0,0,0,32,32,32,,,,,,,,,,,,,,,,,,,,,,,,,,,,,,,,,,,,,,,,,,,,,,,,,,,,,,,,,,,,,,,,,,,,,,,,,,,,,,,,,,,,,,,,,,,,,,,,,,,,,,,,,,,,,,,,,,242.56600432700043,246.6487912460002,,,,,,,,,,,,,,,,,,,,,,,,,,,,,,,,,,,,,,,,,,,,,,,,,,,,,012122,1,2,1,3,0,1,1,0,46,2022_Jan_21_1044,listening_fmri,3.2.4,59.90874137380064,
,0,parcelated_audio/41/41_34.ogg,,,,,,,,,0,0,0,0,0,0,0,0,0,0,0,0,,,,,,,,,0,0,0,0,0,33,33,33,,,,,,,,,,,,,,,,,,,,,,,,,,,,,,,,,,,,,,,,,,,,,,,,,,,,,,,,,,,,,,,,,,,,,,,,,,,,,,,,,,,,,,,,,,,,,,,,,,,,,,,,,,,,,,,,,,246.64914612100029,252.17693084600023,,,,,,,,,,,,,,,,,,,,,,,,,,,,,,,,,,,,,,,,,,,,,,,,,,,,,012122,1,2,1,3,0,1,1,0,46,2022_Jan_21_1044,listening_fmri,3.2.4,59.90874137380064,
,0,parcelated_audio/41/41_35.ogg,,,,,,,,,0,0,0,0,0,0,0,0,0,0,0,0,,,,,,,,,0,0,0,0,0,34,34,34,,,,,,,,,,,,,,,,,,,,,,,,,,,,,,,,,,,,,,,,,,,,,,,,,,,,,,,,,,,,,,,,,,,,,,,,,,,,,,,,,,,,,,,,,,,,,,,,,,,,,,,,,,,,,,,,,,252.17727647500033,257.73944106700037,,,,,,,,,,,,,,,,,,,,,,,,,,,,,,,,,,,,,,,,,,,,,,,,,,,,,012122,1,2,1,3,0,1,1,0,46,2022_Jan_21_1044,listening_fmri,3.2.4,59.90874137380064,
,0,parcelated_audio/41/41_36.ogg,,,,,,,,,0,0,0,0,0,0,0,0,0,0,0,0,,,,,,,,,0,0,0,0,0,35,35,35,,,,,,,,,,,,,,,,,,,,,,,,,,,,,,,,,,,,,,,,,,,,,,,,,,,,,,,,,,,,,,,,,,,,,,,,,,,,,,,,,,,,,,,,,,,,,,,,,,,,,,,,,,,,,,,,,,257.7397869010001,264.7643361920004,,,,,,,,,,,,,,,,,,,,,,,,,,,,,,,,,,,,,,,,,,,,,,,,,,,,,012122,1,2,1,3,0,1,1,0,46,2022_Jan_21_1044,listening_fmri,3.2.4,59.90874137380064,
,0,parcelated_audio/41/41_37.ogg,,,,,,,,,0,0,0,0,0,0,0,0,0,0,0,0,,,,,,,,,0,0,0,0,0,36,36,36,,,,,,,,,,,,,,,,,,,,,,,,,,,,,,,,,,,,,,,,,,,,,,,,,,,,,,,,,,,,,,,,,,,,,,,,,,,,,,,,,,,,,,,,,,,,,,,,,,,,,,,,,,,,,,,,,,264.7646829590003,270.2515704370003,,,,,,,,,,,,,,,,,,,,,,,,,,,,,,,,,,,,,,,,,,,,,,,,,,,,,012122,1,2,1,3,0,1,1,0,46,2022_Jan_21_1044,listening_fmri,3.2.4,59.90874137380064,
,0,,,,,,,,,,0,0,0,0,0,0,0,0,0,0,0,0,,,,,,,,,0,0,0,0,,,,,,,,,,,,,,,,,,,,,,,,,,,,,,,,,,,,,,,,,,,,,,,,,,,,,,,,,,,,,,,,,,,,,,,,,,,,,,,,,,,,,,,,,,,,,,,,,,,,,,,,,,,,,,,,,,,,,,,,,,,,,,,,,,,,,,,,,,,,,,,,,,,,,,,,,,,,,,,,,,,,,,,,,,,,012122,1,2,1,3,0,1,1,0,46,2022_Jan_21_1044,listening_fmri,3.2.4,59.90874137380064,
,0,,,,,,,,,,0,0,0,0,0,0,0,0,0,0,0,0,,,,,,,,,,,,,,,,,,,,,,,,,,,,,,,,,,,,,,,,,,,,,,,,,,,,,,,,,,,,,,,,,,,,,,,,,,,,,,,,,,,,,,,,,,,,,,,,,,,,,,,,,,,,270.2520631470002,276.2497760260003,411.2890737550001,None,,,,,,,,,,,,,,,,,,,,,417.2891485330001,None,417.2891485330001,None,,,,,,,,,,,,,,,,,,,,,,,,,,,,,,,,,,,,,,,,,,,,,,,,,012122,1,2,1,3,0,1,1,0,46,2022_Jan_21_1044,listening_fmri,3.2.4,59.90874137380064,
,0,,,,,,,,,,0,0,0,0,0,0,0,0,,,,,,,,,,,,,,,,,,,,,,,,,,,,,,,,,,,,,,,,,,,,,,,,,,,,,,,,,,,,,,,,,,,,,,,,,,,,,,,,,,,,,,,,,,,,,,,,,,,,,,,,,,,,,,,,,,,,,,,,,,,,,,,,,,,,,,,,,,,,,,,,,,,,,,,,,,,,,,,,,,,,,,,,,,,,,,,,,,,,,,,,,,,,012122,1,2,1,3,0,1,1,0,46,2022_Jan_21_1044,listening_fmri,3.2.4,59.90874137380064,
,1,,,,,,,,,,0,0,0,0,0,1,1,1,0,0,0,0,0,0,0,0,,,,,,,,,,,,,,,,,0,0,0,0,,,,,,,,,,,,,,,,,,,,,,,,,,,,,,,,,,,,,,,,,,,,,,,,,,,,,,,,,,,,,,,,,,,,,,,,,,,,,,,,,,,,,,,,418.2922707970001,None,7,2.0993495729999267,418.2922707970001,None,418.2922707970001,None,418.2922707970001,None,,,,,,,,,,,,,,,420.48970697999994,None,7,2.743928476000292,420.48970697999994,None,420.48970697999994,None,423.2723999929999,None,423.2723999929999,None,423.2723999929999,None,7,13.686075317999894,423.2723999929999,None,436.9897453809999,None,7,2.172851434000222,436.9897453809999,None,436.9897453809999,None,439.27558182999974,None,439.27558182999974,None,439.27558182999974,None,439.27558182999974,None,439.27558182999974,None,439.27558182999974,None,439.27558182999974,None,,,,,,,,,012122,1,2,1,3,0,1,1,0,46,2022_Jan_21_1044,listening_fmri,3.2.4,59.90874137380064,
,1,,,,,,,,,,0,0,0,0,0,1,1,1,0,0,0,0,0,0,0,0,,,,,,,,,,,,,,,,,,,,,,,,,,,,,,,,,,,,,,,,,,,,,,,,,,,,,,,,,,,,,,,,,,,,,,,,,,,,,,,,,,,,,,,,,,,,,,,,,,,,,,,,,,,,,,,,,,,,,,,,,,,,,,,,,,,,,,,,,,,,465.922513688,None,465.922513688,None,465.922513688,None,1,1.3790971560001708,465.922513688,None,,,,,,,,,,,,,,,,,,,,,,,463.72275635799997,None,1,2.1618256009996912,463.72275635799997,None,463.72275635799997,None,012122,1,2,1,3,0,1,1,0,46,2022_Jan_21_1044,listening_fmri,3.2.4,59.90874137380064,
,1,parcelated_audio/14/14_1.ogg,,,,,,,,,0,0,0,0,0,1,1,1,0,0,0,0,,,,,,,,,0,0,0,0,0,0,0,0,,,,,,,,,,,,,,,,,,,,,,,,,,,,,,,,,,,,,,,,,,,,,,,,,,,,,,,,,,,,,,,,,,,,,,,,,,,,,,,,,,,,,,,,,,,,,,,,,,,,,,,,,,467.3225831720001,None,2,1.5260221929997897,467.3225831720001,None,327.8630477820002,330.8660912800001,330.8719035260001,337.7292080650004,,,,,,,,,,,,,,,,,,,,,,,,,,,,,,,,,,,,,,,,,,,,,,,,,,,,,012122,1,2,1,3,0,1,1,0,46,2022_Jan_21_1044,listening_fmri,3.2.4,59.90874137380064,
,1,parcelated_audio/14/14_2.ogg,,,,,,,,,0,0,0,0,0,1,1,1,0,0,0,0,,,,,,,,,0,0,0,0,0,1,1,1,,,,,,,,,,,,,,,,,,,,,,,,,,,,,,,,,,,,,,,,,,,,,,,,,,,,,,,,,,,,,,,,,,,,,,,,,,,,,,,,,,,,,,,,,,,,,,,,,,,,,,,,,,,,,,,,,,337.72961998400024,344.28204589100005,,,,,,,,,,,,,,,,,,,,,,,,,,,,,,,,,,,,,,,,,,,,,,,,,,,,,012122,1,2,1,3,0,1,1,0,46,2022_Jan_21_1044,listening_fmri,3.2.4,59.90874137380064,
,1,parcelated_audio/14/14_3.ogg,,,,,,,,,0,0,0,0,0,1,1,1,0,0,0,0,,,,,,,,,0,0,0,0,0,2,2,2,,,,,,,,,,,,,,,,,,,,,,,,,,,,,,,,,,,,,,,,,,,,,,,,,,,,,,,,,,,,,,,,,,,,,,,,,,,,,,,,,,,,,,,,,,,,,,,,,,,,,,,,,,,,,,,,,,344.2823988670002,347.99532206500044,,,,,,,,,,,,,,,,,,,,,,,,,,,,,,,,,,,,,,,,,,,,,,,,,,,,,012122,1,2,1,3,0,1,1,0,46,2022_Jan_21_1044,listening_fmri,3.2.4,59.90874137380064,
,1,parcelated_audio/14/14_4.ogg,,,,,,,,,0,0,0,0,0,1,1,1,0,0,0,0,,,,,,,,,0,0,0,0,0,3,3,3,,,,,,,,,,,,,,,,,,,,,,,,,,,,,,,,,,,,,,,,,,,,,,,,,,,,,,,,,,,,,,,,,,,,,,,,,,,,,,,,,,,,,,,,,,,,,,,,,,,,,,,,,,,,,,,,,,347.99571670000023,355.9510944240001,,,,,,,,,,,,,,,,,,,,,,,,,,,,,,,,,,,,,,,,,,,,,,,,,,,,,012122,1,2,1,3,0,1,1,0,46,2022_Jan_21_1044,listening_fmri,3.2.4,59.90874137380064,
,1,parcelated_audio/14/14_5.ogg,,,,,,,,,0,0,0,0,0,1,1,1,0,0,0,0,,,,,,,,,0,0,0,0,0,4,4,4,,,,,,,,,,,,,,,,,,,,,,,,,,,,,,,,,,,,,,,,,,,,,,,,,,,,,,,,,,,,,,,,,,,,,,,,,,,,,,,,,,,,,,,,,,,,,,,,,,,,,,,,,,,,,,,,,,355.9515077640003,360.81600020800033,,,,,,,,,,,,,,,,,,,,,,,,,,,,,,,,,,,,,,,,,,,,,,,,,,,,,012122,1,2,1,3,0,1,1,0,46,2022_Jan_21_1044,listening_fmri,3.2.4,59.90874137380064,
,1,parcelated_audio/14/14_6.ogg,,,,,,,,,0,0,0,0,0,1,1,1,0,0,0,0,,,,,,,,,0,0,0,0,0,5,5,5,,,,,,,,,,,,,,,,,,,,,,,,,,,,,,,,,,,,,,,,,,,,,,,,,,,,,,,,,,,,,,,,,,,,,,,,,,,,,,,,,,,,,,,,,,,,,,,,,,,,,,,,,,,,,,,,,,360.8164085780004,366.68005424700004,,,,,,,,,,,,,,,,,,,,,,,,,,,,,,,,,,,,,,,,,,,,,,,,,,,,,012122,1,2,1,3,0,1,1,0,46,2022_Jan_21_1044,listening_fmri,3.2.4,59.90874137380064,
,1,parcelated_audio/14/14_7.ogg,,,,,,,,,0,0,0,0,0,1,1,1,0,0,0,0,,,,,,,,,0,0,0,0,0,6,6,6,,,,,,,,,,,,,,,,,,,,,,,,,,,,,,,,,,,,,,,,,,,,,,,,,,,,,,,,,,,,,,,,,,,,,,,,,,,,,,,,,,,,,,,,,,,,,,,,,,,,,,,,,,,,,,,,,,366.6804779180002,376.3182158210002,,,,,,,,,,,,,,,,,,,,,,,,,,,,,,,,,,,,,,,,,,,,,,,,,,,,,012122,1,2,1,3,0,1,1,0,46,2022_Jan_21_1044,listening_fmri,3.2.4,59.90874137380064,
,1,parcelated_audio/14/14_8.ogg,,,,,,,,,0,0,0,0,0,1,1,1,0,0,0,0,,,,,,,,,0,0,0,0,0,7,7,7,,,,,,,,,,,,,,,,,,,,,,,,,,,,,,,,,,,,,,,,,,,,,,,,,,,,,,,,,,,,,,,,,,,,,,,,,,,,,,,,,,,,,,,,,,,,,,,,,,,,,,,,,,,,,,,,,,376.3186642370001,381.526388838,,,,,,,,,,,,,,,,,,,,,,,,,,,,,,,,,,,,,,,,,,,,,,,,,,,,,012122,1,2,1,3,0,1,1,0,46,2022_Jan_21_1044,listening_fmri,3.2.4,59.90874137380064,
,1,parcelated_audio/14/14_9.ogg,,,,,,,,,0,0,0,0,0,1,1,1,0,0,0,0,,,,,,,,,0,0,0,0,0,8,8,8,,,,,,,,,,,,,,,,,,,,,,,,,,,,,,,,,,,,,,,,,,,,,,,,,,,,,,,,,,,,,,,,,,,,,,,,,,,,,,,,,,,,,,,,,,,,,,,,,,,,,,,,,,,,,,,,,,381.5268360140003,385.272276659,,,,,,,,,,,,,,,,,,,,,,,,,,,,,,,,,,,,,,,,,,,,,,,,,,,,,012122,1,2,1,3,0,1,1,0,46,2022_Jan_21_1044,listening_fmri,3.2.4,59.90874137380064,
,1,parcelated_audio/14/14_10.ogg,,,,,,,,,0,0,0,0,0,1,1,1,0,0,0,0,,,,,,,,,0,0,0,0,0,9,9,9,,,,,,,,,,,,,,,,,,,,,,,,,,,,,,,,,,,,,,,,,,,,,,,,,,,,,,,,,,,,,,,,,,,,,,,,,,,,,,,,,,,,,,,,,,,,,,,,,,,,,,,,,,,,,,,,,,385.27262638,396.522223379,,,,,,,,,,,,,,,,,,,,,,,,,,,,,,,,,,,,,,,,,,,,,,,,,,,,,012122,1,2,1,3,0,1,1,0,46,2022_Jan_21_1044,listening_fmri,3.2.4,59.90874137380064,
,1,parcelated_audio/14/14_11.ogg,,,,,,,,,0,0,0,0,0,1,1,1,0,0,0,0,,,,,,,,,0,0,0,0,0,10,10,10,,,,,,,,,,,,,,,,,,,,,,,,,,,,,,,,,,,,,,,,,,,,,,,,,,,,,,,,,,,,,,,,,,,,,,,,,,,,,,,,,,,,,,,,,,,,,,,,,,,,,,,,,,,,,,,,,,396.5227769750004,403.7324148060002,,,,,,,,,,,,,,,,,,,,,,,,,,,,,,,,,,,,,,,,,,,,,,,,,,,,,012122,1,2,1,3,0,1,1,0,46,2022_Jan_21_1044,listening_fmri,3.2.4,59.90874137380064,
,1,parcelated_audio/14/14_12.ogg,,,,,,,,,0,0,0,0,0,1,1,1,0,0,0,0,,,,,,,,,0,0,0,0,0,11,11,11,,,,,,,,,,,,,,,,,,,,,,,,,,,,,,,,,,,,,,,,,,,,,,,,,,,,,,,,,,,,,,,,,,,,,,,,,,,,,,,,,,,,,,,,,,,,,,,,,,,,,,,,,,,,,,,,,,403.7327758010001,411.74984643000016,,,,,,,,,,,,,,,,,,,,,,,,,,,,,,,,,,,,,,,,,,,,,,,,,,,,,012122,1,2,1,3,0,1,1,0,46,2022_Jan_21_1044,listening_fmri,3.2.4,59.90874137380064,
,1,parcelated_audio/14/14_13.ogg,,,,,,,,,0,0,0,0,0,1,1,1,0,0,0,0,,,,,,,,,0,0,0,0,0,12,12,12,,,,,,,,,,,,,,,,,,,,,,,,,,,,,,,,,,,,,,,,,,,,,,,,,,,,,,,,,,,,,,,,,,,,,,,,,,,,,,,,,,,,,,,,,,,,,,,,,,,,,,,,,,,,,,,,,,411.7502047040002,417.8663437070004,,,,,,,,,,,,,,,,,,,,,,,,,,,,,,,,,,,,,,,,,,,,,,,,,,,,,012122,1,2,1,3,0,1,1,0,46,2022_Jan_21_1044,listening_fmri,3.2.4,59.90874137380064,
,1,parcelated_audio/14/14_14.ogg,,,,,,,,,0,0,0,0,0,1,1,1,0,0,0,0,,,,,,,,,0,0,0,0,0,13,13,13,,,,,,,,,,,,,,,,,,,,,,,,,,,,,,,,,,,,,,,,,,,,,,,,,,,,,,,,,,,,,,,,,,,,,,,,,,,,,,,,,,,,,,,,,,,,,,,,,,,,,,,,,,,,,,,,,,417.86685421500033,424.42123341100023,,,,,,,,,,,,,,,,,,,,,,,,,,,,,,,,,,,,,,,,,,,,,,,,,,,,,012122,1,2,1,3,0,1,1,0,46,2022_Jan_21_1044,listening_fmri,3.2.4,59.90874137380064,
,1,parcelated_audio/14/14_15.ogg,,,,,,,,,0,0,0,0,0,1,1,1,0,0,0,0,,,,,,,,,0,0,0,0,0,14,14,14,,,,,,,,,,,,,,,,,,,,,,,,,,,,,,,,,,,,,,,,,,,,,,,,,,,,,,,,,,,,,,,,,,,,,,,,,,,,,,,,,,,,,,,,,,,,,,,,,,,,,,,,,,,,,,,,,,424.4215841920004,431.53311962000043,,,,,,,,,,,,,,,,,,,,,,,,,,,,,,,,,,,,,,,,,,,,,,,,,,,,,012122,1,2,1,3,0,1,1,0,46,2022_Jan_21_1044,listening_fmri,3.2.4,59.90874137380064,
,1,parcelated_audio/14/14_16.ogg,,,,,,,,,0,0,0,0,0,1,1,1,0,0,0,0,,,,,,,,,0,0,0,0,0,15,15,15,,,,,,,,,,,,,,,,,,,,,,,,,,,,,,,,,,,,,,,,,,,,,,,,,,,,,,,,,,,,,,,,,,,,,,,,,,,,,,,,,,,,,,,,,,,,,,,,,,,,,,,,,,,,,,,,,,431.5335313110004,436.9482941000001,,,,,,,,,,,,,,,,,,,,,,,,,,,,,,,,,,,,,,,,,,,,,,,,,,,,,012122,1,2,1,3,0,1,1,0,46,2022_Jan_21_1044,listening_fmri,3.2.4,59.90874137380064,
,1,parcelated_audio/14/14_17.ogg,,,,,,,,,0,0,0,0,0,1,1,1,0,0,0,0,,,,,,,,,0,0,0,0,0,16,16,16,,,,,,,,,,,,,,,,,,,,,,,,,,,,,,,,,,,,,,,,,,,,,,,,,,,,,,,,,,,,,,,,,,,,,,,,,,,,,,,,,,,,,,,,,,,,,,,,,,,,,,,,,,,,,,,,,,436.9486133710002,446.6461788460001,,,,,,,,,,,,,,,,,,,,,,,,,,,,,,,,,,,,,,,,,,,,,,,,,,,,,012122,1,2,1,3,0,1,1,0,46,2022_Jan_21_1044,listening_fmri,3.2.4,59.90874137380064,
,1,parcelated_audio/14/14_18.ogg,,,,,,,,,0,0,0,0,0,1,1,1,0,0,0,0,,,,,,,,,0,0,0,0,0,17,17,17,,,,,,,,,,,,,,,,,,,,,,,,,,,,,,,,,,,,,,,,,,,,,,,,,,,,,,,,,,,,,,,,,,,,,,,,,,,,,,,,,,,,,,,,,,,,,,,,,,,,,,,,,,,,,,,,,,446.64663767,454.2481841550002,,,,,,,,,,,,,,,,,,,,,,,,,,,,,,,,,,,,,,,,,,,,,,,,,,,,,012122,1,2,1,3,0,1,1,0,46,2022_Jan_21_1044,listening_fmri,3.2.4,59.90874137380064,
,1,parcelated_audio/14/14_19.ogg,,,,,,,,,0,0,0,0,0,1,1,1,0,0,0,0,,,,,,,,,0,0,0,0,0,18,18,18,,,,,,,,,,,,,,,,,,,,,,,,,,,,,,,,,,,,,,,,,,,,,,,,,,,,,,,,,,,,,,,,,,,,,,,,,,,,,,,,,,,,,,,,,,,,,,,,,,,,,,,,,,,,,,,,,,454.24868117000005,457.1043051730003,,,,,,,,,,,,,,,,,,,,,,,,,,,,,,,,,,,,,,,,,,,,,,,,,,,,,012122,1,2,1,3,0,1,1,0,46,2022_Jan_21_1044,listening_fmri,3.2.4,59.90874137380064,
,1,parcelated_audio/14/14_20.ogg,,,,,,,,,0,0,0,0,0,1,1,1,0,0,0,0,,,,,,,,,0,0,0,0,0,19,19,19,,,,,,,,,,,,,,,,,,,,,,,,,,,,,,,,,,,,,,,,,,,,,,,,,,,,,,,,,,,,,,,,,,,,,,,,,,,,,,,,,,,,,,,,,,,,,,,,,,,,,,,,,,,,,,,,,,457.1046573480003,459.245333026,,,,,,,,,,,,,,,,,,,,,,,,,,,,,,,,,,,,,,,,,,,,,,,,,,,,,012122,1,2,1,3,0,1,1,0,46,2022_Jan_21_1044,listening_fmri,3.2.4,59.90874137380064,
,1,parcelated_audio/14/14_21.ogg,,,,,,,,,0,0,0,0,0,1,1,1,0,0,0,0,,,,,,,,,0,0,0,0,0,20,20,20,,,,,,,,,,,,,,,,,,,,,,,,,,,,,,,,,,,,,,,,,,,,,,,,,,,,,,,,,,,,,,,,,,,,,,,,,,,,,,,,,,,,,,,,,,,,,,,,,,,,,,,,,,,,,,,,,,459.2456852920004,468.8044052250002,,,,,,,,,,,,,,,,,,,,,,,,,,,,,,,,,,,,,,,,,,,,,,,,,,,,,012122,1,2,1,3,0,1,1,0,46,2022_Jan_21_1044,listening_fmri,3.2.4,59.90874137380064,
,1,parcelated_audio/14/14_22.ogg,,,,,,,,,0,0,0,0,0,1,1,1,0,0,0,0,,,,,,,,,0,0,0,0,0,21,21,21,,,,,,,,,,,,,,,,,,,,,,,,,,,,,,,,,,,,,,,,,,,,,,,,,,,,,,,,,,,,,,,,,,,,,,,,,,,,,,,,,,,,,,,,,,,,,,,,,,,,,,,,,,,,,,,,,,468.8047682240003,475.1442089500001,,,,,,,,,,,,,,,,,,,,,,,,,,,,,,,,,,,,,,,,,,,,,,,,,,,,,012122,1,2,1,3,0,1,1,0,46,2022_Jan_21_1044,listening_fmri,3.2.4,59.90874137380064,
,1,parcelated_audio/14/14_23.ogg,,,,,,,,,0,0,0,0,0,1,1,1,0,0,0,0,,,,,,,,,0,0,0,0,0,22,22,22,,,,,,,,,,,,,,,,,,,,,,,,,,,,,,,,,,,,,,,,,,,,,,,,,,,,,,,,,,,,,,,,,,,,,,,,,,,,,,,,,,,,,,,,,,,,,,,,,,,,,,,,,,,,,,,,,,475.14472730100033,480.2043016130001,,,,,,,,,,,,,,,,,,,,,,,,,,,,,,,,,,,,,,,,,,,,,,,,,,,,,012122,1,2,1,3,0,1,1,0,46,2022_Jan_21_1044,listening_fmri,3.2.4,59.90874137380064,
,1,parcelated_audio/14/14_24.ogg,,,,,,,,,0,0,0,0,0,1,1,1,0,0,0,0,,,,,,,,,0,0,0,0,0,23,23,23,,,,,,,,,,,,,,,,,,,,,,,,,,,,,,,,,,,,,,,,,,,,,,,,,,,,,,,,,,,,,,,,,,,,,,,,,,,,,,,,,,,,,,,,,,,,,,,,,,,,,,,,,,,,,,,,,,480.2050703570003,491.11932561000003,,,,,,,,,,,,,,,,,,,,,,,,,,,,,,,,,,,,,,,,,,,,,,,,,,,,,012122,1,2,1,3,0,1,1,0,46,2022_Jan_21_1044,listening_fmri,3.2.4,59.90874137380064,
,1,parcelated_audio/14/14_25.ogg,,,,,,,,,0,0,0,0,0,1,1,1,0,0,0,0,,,,,,,,,0,0,0,0,0,24,24,24,,,,,,,,,,,,,,,,,,,,,,,,,,,,,,,,,,,,,,,,,,,,,,,,,,,,,,,,,,,,,,,,,,,,,,,,,,,,,,,,,,,,,,,,,,,,,,,,,,,,,,,,,,,,,,,,,,491.1201379510003,497.7703639330002,,,,,,,,,,,,,,,,,,,,,,,,,,,,,,,,,,,,,,,,,,,,,,,,,,,,,012122,1,2,1,3,0,1,1,0,46,2022_Jan_21_1044,listening_fmri,3.2.4,59.90874137380064,
,1,parcelated_audio/14/14_26.ogg,,,,,,,,,0,0,0,0,0,1,1,1,0,0,0,0,,,,,,,,,0,0,0,0,0,25,25,25,,,,,,,,,,,,,,,,,,,,,,,,,,,,,,,,,,,,,,,,,,,,,,,,,,,,,,,,,,,,,,,,,,,,,,,,,,,,,,,,,,,,,,,,,,,,,,,,,,,,,,,,,,,,,,,,,,497.77072392300033,499.95006347900016,,,,,,,,,,,,,,,,,,,,,,,,,,,,,,,,,,,,,,,,,,,,,,,,,,,,,012122,1,2,1,3,0,1,1,0,46,2022_Jan_21_1044,listening_fmri,3.2.4,59.90874137380064,
,1,parcelated_audio/14/14_27.ogg,,,,,,,,,0,0,0,0,0,1,1,1,0,0,0,0,,,,,,,,,0,0,0,0,0,26,26,26,,,,,,,,,,,,,,,,,,,,,,,,,,,,,,,,,,,,,,,,,,,,,,,,,,,,,,,,,,,,,,,,,,,,,,,,,,,,,,,,,,,,,,,,,,,,,,,,,,,,,,,,,,,,,,,,,,499.9504211790004,505.972328844,,,,,,,,,,,,,,,,,,,,,,,,,,,,,,,,,,,,,,,,,,,,,,,,,,,,,012122,1,2,1,3,0,1,1,0,46,2022_Jan_21_1044,listening_fmri,3.2.4,59.90874137380064,
,1,parcelated_audio/14/14_28.ogg,,,,,,,,,0,0,0,0,0,1,1,1,0,0,0,0,,,,,,,,,0,0,0,0,0,27,27,27,,,,,,,,,,,,,,,,,,,,,,,,,,,,,,,,,,,,,,,,,,,,,,,,,,,,,,,,,,,,,,,,,,,,,,,,,,,,,,,,,,,,,,,,,,,,,,,,,,,,,,,,,,,,,,,,,,505.9728407970001,508.9526707980003,,,,,,,,,,,,,,,,,,,,,,,,,,,,,,,,,,,,,,,,,,,,,,,,,,,,,012122,1,2,1,3,0,1,1,0,46,2022_Jan_21_1044,listening_fmri,3.2.4,59.90874137380064,
,1,parcelated_audio/14/14_29.ogg,,,,,,,,,0,0,0,0,0,1,1,1,0,0,0,0,,,,,,,,,0,0,0,0,0,28,28,28,,,,,,,,,,,,,,,,,,,,,,,,,,,,,,,,,,,,,,,,,,,,,,,,,,,,,,,,,,,,,,,,,,,,,,,,,,,,,,,,,,,,,,,,,,,,,,,,,,,,,,,,,,,,,,,,,,508.9529481120003,511.3211120250003,,,,,,,,,,,,,,,,,,,,,,,,,,,,,,,,,,,,,,,,,,,,,,,,,,,,,012122,1,2,1,3,0,1,1,0,46,2022_Jan_21_1044,listening_fmri,3.2.4,59.90874137380064,
,1,parcelated_audio/14/14_30.ogg,,,,,,,,,0,0,0,0,0,1,1,1,0,0,0,0,,,,,,,,,0,0,0,0,0,29,29,29,,,,,,,,,,,,,,,,,,,,,,,,,,,,,,,,,,,,,,,,,,,,,,,,,,,,,,,,,,,,,,,,,,,,,,,,,,,,,,,,,,,,,,,,,,,,,,,,,,,,,,,,,,,,,,,,,,511.32156906900036,515.5851641480003,,,,,,,,,,,,,,,,,,,,,,,,,,,,,,,,,,,,,,,,,,,,,,,,,,,,,012122,1,2,1,3,0,1,1,0,46,2022_Jan_21_1044,listening_fmri,3.2.4,59.90874137380064,
,1,parcelated_audio/14/14_31.ogg,,,,,,,,,0,0,0,0,0,1,1,1,0,0,0,0,,,,,,,,,0,0,0,0,0,30,30,30,,,,,,,,,,,,,,,,,,,,,,,,,,,,,,,,,,,,,,,,,,,,,,,,,,,,,,,,,,,,,,,,,,,,,,,,,,,,,,,,,,,,,,,,,,,,,,,,,,,,,,,,,,,,,,,,,,515.585726153,522.8593921480001,,,,,,,,,,,,,,,,,,,,,,,,,,,,,,,,,,,,,,,,,,,,,,,,,,,,,012122,1,2,1,3,0,1,1,0,46,2022_Jan_21_1044,listening_fmri,3.2.4,59.90874137380064,
,1,parcelated_audio/14/14_32.ogg,,,,,,,,,0,0,0,0,0,1,1,1,0,0,0,0,,,,,,,,,0,0,0,0,0,31,31,31,,,,,,,,,,,,,,,,,,,,,,,,,,,,,,,,,,,,,,,,,,,,,,,,,,,,,,,,,,,,,,,,,,,,,,,,,,,,,,,,,,,,,,,,,,,,,,,,,,,,,,,,,,,,,,,,,,522.8597456960001,530.0142417420002,,,,,,,,,,,,,,,,,,,,,,,,,,,,,,,,,,,,,,,,,,,,,,,,,,,,,012122,1,2,1,3,0,1,1,0,46,2022_Jan_21_1044,listening_fmri,3.2.4,59.90874137380064,
,1,parcelated_audio/14/14_33.ogg,,,,,,,,,0,0,0,0,0,1,1,1,0,0,0,0,,,,,,,,,0,0,0,0,0,32,32,32,,,,,,,,,,,,,,,,,,,,,,,,,,,,,,,,,,,,,,,,,,,,,,,,,,,,,,,,,,,,,,,,,,,,,,,,,,,,,,,,,,,,,,,,,,,,,,,,,,,,,,,,,,,,,,,,,,530.0145974240004,536.5760013020003,,,,,,,,,,,,,,,,,,,,,,,,,,,,,,,,,,,,,,,,,,,,,,,,,,,,,012122,1,2,1,3,0,1,1,0,46,2022_Jan_21_1044,listening_fmri,3.2.4,59.90874137380064,
,1,,,,,,,,,,0,0,0,0,0,1,1,1,0,0,0,0,,,,,,,,,0,0,0,0,,,,,,,,,,,,,,,,,,,,,,,,,,,,,,,,,,,,,,,,,,,,,,,,,,,,,,,,,,,,,,,,,,,,,,,,,,,,,,,,,,,,,,,,,,,,,,,,,,,,,,,,,,,,,,,,,,,,,,,,,,,,,,,,,,,,,,,,,,,,,,,,,,,,,,,,,,,,,,,,,,,,,,,,,,,,012122,1,2,1,3,0,1,1,0,46,2022_Jan_21_1044,listening_fmri,3.2.4,59.90874137380064,
,1,,,,,,,,,,0,0,0,0,0,1,1,1,0,0,0,0,,,,,,,,,,,,,,,,,,,,,,,,,,,,,,,,,,,,,,,,,,,,,,,,,,,,,,,,,,,,,,,,,,,,,,,,,,,,,,,,,,,,,,,,,,,,,,,,,,,,,,,,,,,,536.5764252680001,542.5667550750004,677.6070191009999,None,,,,,,,,,,,,,,,,,,,,,683.6070440590001,None,683.6070440590001,None,,,,,,,,,,,,,,,,,,,,,,,,,,,,,,,,,,,,,,,,,,,,,,,,,012122,1,2,1,3,0,1,1,0,46,2022_Jan_21_1044,listening_fmri,3.2.4,59.90874137380064,
,1,,,,,,,,,,0,0,0,0,0,1,1,1,,,,,,,,,,,,,,,,,,,,,,,,,,,,,,,,,,,,,,,,,,,,,,,,,,,,,,,,,,,,,,,,,,,,,,,,,,,,,,,,,,,,,,,,,,,,,,,,,,,,,,,,,,,,,,,,,,,,,,,,,,,,,,,,,,,,,,,,,,,,,,,,,,,,,,,,,,,,,,,,,,,,,,,,,,,,,,,,,,,,,,,,,,,,012122,1,2,1,3,0,1,1,0,46,2022_Jan_21_1044,listening_fmri,3.2.4,59.90874137380064,
,2,,,,,,,,,,0,0,0,0,0,2,2,2,0,0,0,0,0,0,0,0,,,,,,,,,,,,,,,,,0,0,0,0,,,,,,,,,,,,,,,,,,,,,,,,,,,,,,,,,,,,,,,,,,,,,,,,,,,,,,,,,,,,,,,,,,,,,,,,,,,,,,,,,,,,,,,,684.6227122330001,None,1,2.4667341790000137,684.6227122330001,None,684.6227122330001,None,684.6227122330001,None,,,,,,,,,,,,,,,687.1071326759998,None,2,1.1714711899999202,687.1071326759998,None,687.1071326759998,None,688.3224968209997,None,688.3224968209997,None,688.3224968209997,None,3,6.088095611999961,688.3224968209997,None,694.4403662549998,None,2,1.8452447120002944,694.4403662549998,None,694.4403662549998,None,696.3903296590001,None,696.3903296590001,None,696.3903296590001,None,696.3903296590001,None,696.3903296590001,None,696.3903296590001,None,696.3903296590001,None,,,,,,,,,012122,1,2,1,3,0,1,1,0,46,2022_Jan_21_1044,listening_fmri,3.2.4,59.90874137380064,
,2,,,,,,,,,,0,0,0,0,0,2,2,2,0,0,0,0,0,0,0,0,,,,,,,,,,,,,,,,,,,,,,,,,,,,,,,,,,,,,,,,,,,,,,,,,,,,,,,,,,,,,,,,,,,,,,,,,,,,,,,,,,,,,,,,,,,,,,,,,,,,,,,,,,,,,,,,,,,,,,,,,,,,,,,,,,,,,,,,,,,,725.6396322559999,None,725.6396322559999,None,725.6396322559999,None,3,1.6010146629996598,725.6396322559999,None,,,,,,,,,,,,,,,,,,,,,,,722.9892069019998,None,3,2.6012394790000144,722.9892069019998,None,722.9892069019998,None,012122,1,2,1,3,0,1,1,0,46,2022_Jan_21_1044,listening_fmri,3.2.4,59.90874137380064,
,2,parcelated_audio/23/23_1.ogg,,,,,,,,,0,0,0,0,0,2,2,2,0,0,0,0,,,,,,,,,0,0,0,0,0,0,0,0,,,,,,,,,,,,,,,,,,,,,,,,,,,,,,,,,,,,,,,,,,,,,,,,,,,,,,,,,,,,,,,,,,,,,,,,,,,,,,,,,,,,,,,,,,,,,,,,,,,,,,,,,,727.2723445629999,None,6,7.456259475000024,727.2723445629999,None,593.7226901550002,596.7329868520001,596.7427893360004,607.1403384700002,,,,,,,,,,,,,,,,,,,,,,,,,,,,,,,,,,,,,,,,,,,,,,,,,,,,,012122,1,2,1,3,0,1,1,0,46,2022_Jan_21_1044,listening_fmri,3.2.4,59.90874137380064,
,2,parcelated_audio/23/23_2.ogg,,,,,,,,,0,0,0,0,0,2,2,2,0,0,0,0,,,,,,,,,0,0,0,0,0,1,1,1,,,,,,,,,,,,,,,,,,,,,,,,,,,,,,,,,,,,,,,,,,,,,,,,,,,,,,,,,,,,,,,,,,,,,,,,,,,,,,,,,,,,,,,,,,,,,,,,,,,,,,,,,,,,,,,,,,607.1405960810002,614.0257286990004,,,,,,,,,,,,,,,,,,,,,,,,,,,,,,,,,,,,,,,,,,,,,,,,,,,,,012122,1,2,1,3,0,1,1,0,46,2022_Jan_21_1044,listening_fmri,3.2.4,59.90874137380064,
,2,parcelated_audio/23/23_3.ogg,,,,,,,,,0,0,0,0,0,2,2,2,0,0,0,0,,,,,,,,,0,0,0,0,0,2,2,2,,,,,,,,,,,,,,,,,,,,,,,,,,,,,,,,,,,,,,,,,,,,,,,,,,,,,,,,,,,,,,,,,,,,,,,,,,,,,,,,,,,,,,,,,,,,,,,,,,,,,,,,,,,,,,,,,,614.0262018100002,619.8031145540003,,,,,,,,,,,,,,,,,,,,,,,,,,,,,,,,,,,,,,,,,,,,,,,,,,,,,012122,1,2,1,3,0,1,1,0,46,2022_Jan_21_1044,listening_fmri,3.2.4,59.90874137380064,
,2,parcelated_audio/23/23_4.ogg,,,,,,,,,0,0,0,0,0,2,2,2,0,0,0,0,,,,,,,,,0,0,0,0,0,3,3,3,,,,,,,,,,,,,,,,,,,,,,,,,,,,,,,,,,,,,,,,,,,,,,,,,,,,,,,,,,,,,,,,,,,,,,,,,,,,,,,,,,,,,,,,,,,,,,,,,,,,,,,,,,,,,,,,,,619.8034650080003,631.0670323740001,,,,,,,,,,,,,,,,,,,,,,,,,,,,,,,,,,,,,,,,,,,,,,,,,,,,,012122,1,2,1,3,0,1,1,0,46,2022_Jan_21_1044,listening_fmri,3.2.4,59.90874137380064,
,2,parcelated_audio/23/23_5.ogg,,,,,,,,,0,0,0,0,0,2,2,2,0,0,0,0,,,,,,,,,0,0,0,0,0,4,4,4,,,,,,,,,,,,,,,,,,,,,,,,,,,,,,,,,,,,,,,,,,,,,,,,,,,,,,,,,,,,,,,,,,,,,,,,,,,,,,,,,,,,,,,,,,,,,,,,,,,,,,,,,,,,,,,,,,631.0673566180003,637.2883953380001,,,,,,,,,,,,,,,,,,,,,,,,,,,,,,,,,,,,,,,,,,,,,,,,,,,,,012122,1,2,1,3,0,1,1,0,46,2022_Jan_21_1044,listening_fmri,3.2.4,59.90874137380064,
,2,parcelated_audio/23/23_6.ogg,,,,,,,,,0,0,0,0,0,2,2,2,0,0,0,0,,,,,,,,,0,0,0,0,0,5,5,5,,,,,,,,,,,,,,,,,,,,,,,,,,,,,,,,,,,,,,,,,,,,,,,,,,,,,,,,,,,,,,,,,,,,,,,,,,,,,,,,,,,,,,,,,,,,,,,,,,,,,,,,,,,,,,,,,,637.2890211380004,644.7161899800003,,,,,,,,,,,,,,,,,,,,,,,,,,,,,,,,,,,,,,,,,,,,,,,,,,,,,012122,1,2,1,3,0,1,1,0,46,2022_Jan_21_1044,listening_fmri,3.2.4,59.90874137380064,
,2,parcelated_audio/23/23_7.ogg,,,,,,,,,0,0,0,0,0,2,2,2,0,0,0,0,,,,,,,,,0,0,0,0,0,6,6,6,,,,,,,,,,,,,,,,,,,,,,,,,,,,,,,,,,,,,,,,,,,,,,,,,,,,,,,,,,,,,,,,,,,,,,,,,,,,,,,,,,,,,,,,,,,,,,,,,,,,,,,,,,,,,,,,,,644.7175955260004,651.4795545010002,,,,,,,,,,,,,,,,,,,,,,,,,,,,,,,,,,,,,,,,,,,,,,,,,,,,,012122,1,2,1,3,0,1,1,0,46,2022_Jan_21_1044,listening_fmri,3.2.4,59.90874137380064,
,2,parcelated_audio/23/23_8.ogg,,,,,,,,,0,0,0,0,0,2,2,2,0,0,0,0,,,,,,,,,0,0,0,0,0,7,7,7,,,,,,,,,,,,,,,,,,,,,,,,,,,,,,,,,,,,,,,,,,,,,,,,,,,,,,,,,,,,,,,,,,,,,,,,,,,,,,,,,,,,,,,,,,,,,,,,,,,,,,,,,,,,,,,,,,651.4799185420002,656.903108167,,,,,,,,,,,,,,,,,,,,,,,,,,,,,,,,,,,,,,,,,,,,,,,,,,,,,012122,1,2,1,3,0,1,1,0,46,2022_Jan_21_1044,listening_fmri,3.2.4,59.90874137380064,
,2,parcelated_audio/23/23_9.ogg,,,,,,,,,0,0,0,0,0,2,2,2,0,0,0,0,,,,,,,,,0,0,0,0,0,8,8,8,,,,,,,,,,,,,,,,,,,,,,,,,,,,,,,,,,,,,,,,,,,,,,,,,,,,,,,,,,,,,,,,,,,,,,,,,,,,,,,,,,,,,,,,,,,,,,,,,,,,,,,,,,,,,,,,,,656.9034496000004,661.2878322370002,,,,,,,,,,,,,,,,,,,,,,,,,,,,,,,,,,,,,,,,,,,,,,,,,,,,,012122,1,2,1,3,0,1,1,0,46,2022_Jan_21_1044,listening_fmri,3.2.4,59.90874137380064,
,2,parcelated_audio/23/23_10.ogg,,,,,,,,,0,0,0,0,0,2,2,2,0,0,0,0,,,,,,,,,0,0,0,0,0,9,9,9,,,,,,,,,,,,,,,,,,,,,,,,,,,,,,,,,,,,,,,,,,,,,,,,,,,,,,,,,,,,,,,,,,,,,,,,,,,,,,,,,,,,,,,,,,,,,,,,,,,,,,,,,,,,,,,,,,661.2882966380002,665.2678339710001,,,,,,,,,,,,,,,,,,,,,,,,,,,,,,,,,,,,,,,,,,,,,,,,,,,,,012122,1,2,1,3,0,1,1,0,46,2022_Jan_21_1044,listening_fmri,3.2.4,59.90874137380064,
