instructText,count,trials_5.thisRepN,trials_5.thisTrialN,trials_5.thisN,trials_5.thisIndex,trials_6.thisRepN,trials_6.thisTrialN,trials_6.thisN,trials_6.thisIndex,trials.thisRepN,trials.thisTrialN,trials.thisN,trials.thisIndex,trials_8.thisRepN,trials_8.thisTrialN,trials_8.thisN,trials_8.thisIndex,story_list_block1,action_list_block1,story_list_block2,action_list_block2,key_resp_3.keys,key_resp_3.rt,key_resp_3.started,key_resp_3.stopped,text_13.started,text_13.stopped,text_23.started,text_23.stopped,text_43.started,text_43.stopped,key_resp_11.keys,key_resp_11.rt,key_resp_11.started,key_resp_11.stopped,text_44.started,text_44.stopped,text_53.started,text_53.stopped,image_10.started,image_10.stopped,text_22.started,text_22.stopped,recall,question1_answer,order of question,text_14.started,text_14.stopped,text_15.started,text_15.stopped,image_6.started,image_6.stopped,polygon_3.started,polygon_3.stopped,bottom_line_3.started,bottom_line_3.stopped,right_line_3.started,right_line_3.stopped,left_line_3.started,left_line_3.stopped,question2_answer,text_16.started,text_16.stopped,text_17.started,text_17.stopped,image_7.started,image_7.stopped,polygon_4.started,polygon_4.stopped,bottom_line_4.started,bottom_line_4.stopped,right_line_4.started,right_line_4.stopped,left_line_4.started,left_line_4.stopped,question3_answer,text_18.started,text_18.stopped,text_19.started,text_19.stopped,image_8.started,image_8.stopped,polygon_5.started,polygon_5.stopped,bottom_line_5.started,bottom_line_5.stopped,right_line_5.started,right_line_5.stopped,left_line_5.started,left_line_5.stopped,question4_answer,text_20.started,text_20.stopped,text_21.started,text_21.stopped,image_9.started,image_9.stopped,polygon_6.started,polygon_6.stopped,bottom_line_6.started,bottom_line_6.stopped,right_line_6.started,right_line_6.stopped,left_line_6.started,left_line_6.stopped,question5_answer,text_25.started,text_25.stopped,text_26.started,text_26.stopped,image_11.started,image_11.stopped,polygon_7.started,polygon_7.stopped,bottom_line_7.started,bottom_line_7.stopped,right_line_7.started,right_line_7.stopped,left_line_7.started,left_line_7.stopped,question6_answer,text_27.started,text_27.stopped,text_28.started,text_28.stopped,image_12.started,image_12.stopped,polygon_8.started,polygon_8.stopped,bottom_line_8.started,bottom_line_8.stopped,right_line_8.started,right_line_8.stopped,left_line_8.started,left_line_8.stopped,question7_answer,text_29.started,text_29.stopped,text_30.started,text_30.stopped,image_13.started,image_13.stopped,polygon_9.started,polygon_9.stopped,bottom_line_9.started,bottom_line_9.stopped,right_line_9.started,right_line_9.stopped,left_line_9.started,left_line_9.stopped,question8_answer,text_31.started,text_31.stopped,text_32.started,text_32.stopped,image_14.started,image_14.stopped,polygon_10.started,polygon_10.stopped,bottom_line_10.started,bottom_line_10.stopped,right_line_10.started,right_line_10.stopped,left_line_10.started,left_line_10.stopped,text_36.started,text_36.stopped,participant,sA,sB,lA,lB,block_struct,random_seed,date,expName,psychopyVersion,frameRate,
"In the final part of the experiment, please answer 8 questions about each story.",,0,0,0,0,,,,,,,,,,,,,[21 12 11 42 41 22 31 32],[3 4 2 1 3 1 2 4],[33 13 23 44 24 43 34 14],[2 2 3 1 1 3 4 4],space,4.911444051000217,7.078135558000213,None,7.078135558000213,None,7.078135558000213,None,,,,,,,,,,,,,,,,,,,,,,,,,,,,,,,,,,,,,,,,,,,,,,,,,,,,,,,,,,,,,,,,,,,,,,,,,,,,,,,,,,,,,,,,,,,,,,,,,,,,,,,,,,,,,,,,,,,,,,,,,,,,,,,,,,,,,,,,,,,030422,1,3,0,2,3,52,2022_Mar_04_1319,short_answer,3.2.4,60.018761023905014,
"We did not tell you to think of all or some of these questions during the story, but please do your best to answer them.",,0,1,1,1,,,,,,,,,,,,,,,,,space,4.944097800000236,12.028118422000261,None,12.028118422000261,None,12.028118422000261,None,,,,,,,,,,,,,,,,,,,,,,,,,,,,,,,,,,,,,,,,,,,,,,,,,,,,,,,,,,,,,,,,,,,,,,,,,,,,,,,,,,,,,,,,,,,,,,,,,,,,,,,,,,,,,,,,,,,,,,,,,,,,,,,,,,,,,,,,,,,030422,1,3,0,2,3,52,2022_Mar_04_1319,short_answer,3.2.4,60.018761023905014,
"Answer as much as you remember, and be specific and concrete in your answers. It is best to try to be as faithful as possible to what the story actually said.
",,0,2,2,2,,,,,,,,,,,,,,,,,space,7.345752437999181,17.010676762000003,None,17.010676762000003,None,17.010676762000003,None,,,,,,,,,,,,,,,,,,,,,,,,,,,,,,,,,,,,,,,,,,,,,,,,,,,,,,,,,,,,,,,,,,,,,,,,,,,,,,,,,,,,,,,,,,,,,,,,,,,,,,,,,,,,,,,,,,,,,,,,,,,,,,,,,,,,,,,,,,,030422,1,3,0,2,3,52,2022_Mar_04_1319,short_answer,3.2.4,60.018761023905014,
"When you have finished typing your answer, hit ‘return’ to submit your answer and move onto the next question. ",,0,3,3,3,,,,,,,,,,,,,,,,,space,4.693962893999924,24.39535940300084,None,24.39535940300084,None,24.39535940300084,None,,,,,,,,,,,,,,,,,,,,,,,,,,,,,,,,,,,,,,,,,,,,,,,,,,,,,,,,,,,,,,,,,,,,,,,,,,,,,,,,,,,,,,,,,,,,,,,,,,,,,,,,,,,,,,,,,,,,,,,,,,,,,,,,,,,,,,,,,,,030422,1,3,0,2,3,52,2022_Mar_04_1319,short_answer,3.2.4,60.018761023905014,
,0,,,,,0,0,0,0,,,,,,,,,,,,,,,,,,,,,,,,,,,,,,,,,,,,,,,,,,,,,,,,,,,,,,,,,,,,,,,,,,,,,,,,,,,,,,,,,,,,,,,,,,,,,,,,,,,,,,,,,,,,,,,,,,,,,,,,,,,,,,,,,,,,,,,,,,,,,,,,,,,,,,,,,,,,,,,030422,1,3,0,2,3,52,2022_Mar_04_1319,short_answer,3.2.4,60.018761023905014,
,1,,,,,0,1,1,1,0,0,0,0,,,,,,,,,,,,,,,,,29.128951676000725,None,space,19.964087865999318,29.128951676000725,None,29.128951676000725,None,29.128951676000725,None,49.179016593001506,None,49.179016593001506,None,Jessie wants her philosophy books back,45 minutes,"[2, 1]",51.21191310900031,None,51.21191310900031,None,51.21191310900031,None,51.21191310900031,None,51.21191310900031,None,51.21191310900031,None,51.21191310900031,None,Bad infrastructure,57.946293762001005,None,57.946293762001005,None,57.946293762001005,None,57.946293762001005,None,57.946293762001005,None,57.946293762001005,None,57.946293762001005,None,31a,77.64486842900078,None,77.64486842900078,None,77.64486842900078,None,77.64486842900078,None,77.64486842900078,None,77.64486842900078,None,77.64486842900078,None,33a is where jessie sits 36f is where calvin sits,83.06237735000104,None,83.06237735000104,None,83.06237735000104,None,83.06237735000104,None,83.06237735000104,None,83.06237735000104,None,83.06237735000104,None,6 weeks,107.67814997300047,None,107.67814997300047,None,107.67814997300047,None,107.67814997300047,None,107.67814997300047,None,107.67814997300047,None,107.67814997300047,None,Jessie thinks their personalities do not mesh well,113.04506412299997,None,113.04506412299997,None,113.04506412299997,None,113.04506412299997,None,113.04506412299997,None,113.04506412299997,None,113.04506412299997,None,No they dont want to break up but he says he agrees and he agrees because he has felt tension during their trip,128.694659924,None,128.694659924,None,128.694659924,None,128.694659924,None,128.694659924,None,128.694659924,None,128.694659924,None,Jessie wants her philosophy books back,151.79420398000002,None,151.79420398000002,None,151.79420398000002,None,151.79420398000002,None,151.79420398000002,None,151.79420398000002,None,151.79420398000002,None,,,030422,1,3,0,2,3,52,2022_Mar_04_1319,short_answer,3.2.4,60.018761023905014,
,1,,,,,0,1,1,1,,,,,,,,,,,,,,,,,,,,,,,,,,,,,,,,,,,,,,,,,,,,,,,,,,,,,,,,,,,,,,,,,,,,,,,,,,,,,,,,,,,,,,,,,,,,,,,,,,,,,,,,,,,,,,,,,,,,,,,,,,,,,,,,,,,,,,,,,,,,,,,,,,,,,,,,,,,,,,,030422,1,3,0,2,3,52,2022_Mar_04_1319,short_answer,3.2.4,60.018761023905014,
,2,,,,,0,2,2,2,0,0,0,0,,,,,,,,,,,,,,,,,164.94422243600093,None,space,2.112748069999725,164.94422243600093,None,164.94422243600093,None,164.94422243600093,None,167.09425587999976,None,167.09425587999976,None,"Sadie doesnt try hers, thomas does not like his burger",2 months,"[1, 2]",175.2935363739998,None,175.2935363739998,None,175.2935363739998,None,175.2935363739998,None,175.2935363739998,None,175.2935363739998,None,175.2935363739998,None,He wants to focus on his business goals ,187.326735947001,None,187.326735947001,None,187.326735947001,None,187.326735947001,None,187.326735947001,None,187.326735947001,None,187.326735947001,None,She does not want to break up. she thinks they get along well and likes spending time with him,197.82697506600016,None,197.82697506600016,None,197.82697506600016,None,197.82697506600016,None,197.82697506600016,None,197.82697506600016,None,197.82697506600016,None,,216.67713098100103,None,216.67713098100103,None,216.67713098100103,None,216.67713098100103,None,216.67713098100103,None,216.67713098100103,None,216.67713098100103,None,"Like a 70s themed diner with booths, bells, and a bar",226.74231982499987,None,226.74231982499987,None,226.74231982499987,None,226.74231982499987,None,226.74231982499987,None,226.74231982499987,None,226.74231982499987,None,"Classic diner food, reuben, cheeseburger",244.24362819900125,None,244.24362819900125,None,244.24362819900125,None,244.24362819900125,None,244.24362819900125,None,244.24362819900125,None,244.24362819900125,None,"Thomas has a burger, sadie has a reuben",253.00932473000103,None,253.00932473000103,None,253.00932473000103,None,253.00932473000103,None,253.00932473000103,None,253.00932473000103,None,253.00932473000103,None,"Sadie doesnt try hers, thomas does not like his burger",261.8752280440003,None,261.8752280440003,None,261.8752280440003,None,261.8752280440003,None,261.8752280440003,None,261.8752280440003,None,261.8752280440003,None,,,030422,1,3,0,2,3,52,2022_Mar_04_1319,short_answer,3.2.4,60.018761023905014,
,2,,,,,0,2,2,2,,,,,,,,,,,,,,,,,,,,,,,,,,,,,,,,,,,,,,,,,,,,,,,,,,,,,,,,,,,,,,,,,,,,,,,,,,,,,,,,,,,,,,,,,,,,,,,,,,,,,,,,,,,,,,,,,,,,,,,,,,,,,,,,,,,,,,,,,,,,,,,,,,,,,,,,,,,,,,,030422,1,3,0,2,3,52,2022_Mar_04_1319,short_answer,3.2.4,60.018761023905014,
,3,,,,,0,3,3,3,0,0,0,0,,,,,,,,,,,,,,,,,272.393100239,None,space,1.3935466170005384,272.393100239,None,272.393100239,None,272.393100239,None,273.8259217350005,None,273.8259217350005,None,10 50,,"[2, 1]",275.0432088380003,None,275.0432088380003,None,275.0432088380003,None,275.0432088380003,None,275.0432088380003,None,275.0432088380003,None,275.0432088380003,None,,291.5257528030015,None,291.5257528030015,None,291.5257528030015,None,291.5257528030015,None,291.5257528030015,None,291.5257528030015,None,291.5257528030015,None,,296.6425951130004,None,296.6425951130004,None,296.6425951130004,None,296.6425951130004,None,296.6425951130004,None,296.6425951130004,None,296.6425951130004,None,Anna is in economy,298.49294356300015,None,298.49294356300015,None,298.49294356300015,None,298.49294356300015,None,298.49294356300015,None,298.49294356300015,None,298.49294356300015,None,,309.2927491770006,None,309.2927491770006,None,309.2927491770006,None,309.2927491770006,None,309.2927491770006,None,309.2927491770006,None,309.2927491770006,None,David uses a pickup line along the lines of how was my save,317.6757785200007,None,317.6757785200007,None,317.6757785200007,None,317.6757785200007,None,317.6757785200007,None,317.6757785200007,None,317.6757785200007,None,Tuesday 8 pm dinner,346.6752779240014,None,346.6752779240014,None,346.6752779240014,None,346.6752779240014,None,346.6752779240014,None,346.6752779240014,None,346.6752779240014,None,10 50,354.1752001590012,None,354.1752001590012,None,354.1752001590012,None,354.1752001590012,None,354.1752001590012,None,354.1752001590012,None,354.1752001590012,None,,,030422,1,3,0,2,3,52,2022_Mar_04_1319,short_answer,3.2.4,60.018761023905014,
,3,,,,,0,3,3,3,,,,,,,,,,,,,,,,,,,,,,,,,,,,,,,,,,,,,,,,,,,,,,,,,,,,,,,,,,,,,,,,,,,,,,,,,,,,,,,,,,,,,,,,,,,,,,,,,,,,,,,,,,,,,,,,,,,,,,,,,,,,,,,,,,,,,,,,,,,,,,,,,,,,,,,,,,,,,,,030422,1,3,0,2,3,52,2022_Mar_04_1319,short_answer,3.2.4,60.018761023905014,
,4,,,,,0,4,4,4,,,,,,,,,,,,,,,,,,,,,,,,,,,,,,,,,,,,,,,,,,,,,,,,,,,,,,,,,,,,,,,,,,,,,,,,,,,,,,,,,,,,,,,,,,,,,,,,,,,,,,,,,,,,,,,,,,,,,,,,,,,,,,,,,,,,,,,,,,,,,,,,,,,,,,,,,,,,,,,030422,1,3,0,2,3,52,2022_Mar_04_1319,short_answer,3.2.4,60.018761023905014,
,5,,,,,0,5,5,5,0,0,0,0,,,,,,,,,,,,,,,,,359.9245398769999,None,space,1.3258847329998389,359.9245398769999,None,359.9245398769999,None,359.9245398769999,None,361.29125910699986,None,361.29125910699986,None,,1 hour 15 minutes,"[2, 1]",362.7250552020014,None,362.7250552020014,None,362.7250552020014,None,362.7250552020014,None,362.7250552020014,None,362.7250552020014,None,362.7250552020014,None,Sven has a wedding ring in his pocket,374.2910504720003,None,374.2910504720003,None,374.2910504720003,None,374.2910504720003,None,374.2910504720003,None,374.2910504720003,None,374.2910504720003,None,,384.4738221210009,None,384.4738221210009,None,384.4738221210009,None,384.4738221210009,None,384.4738221210009,None,384.4738221210009,None,384.4738221210009,None,"First class, 2a,2b",386.0413612800003,None,386.0413612800003,None,386.0413612800003,None,386.0413612800003,None,386.0413612800003,None,386.0413612800003,None,386.0413612800003,None,,392.8084438780006,None,392.8084438780006,None,392.8084438780006,None,392.8084438780006,None,392.8084438780006,None,392.8084438780006,None,392.8084438780006,None,"1diamond, standard",395.4080240270014,None,395.4080240270014,None,395.4080240270014,None,395.4080240270014,None,395.4080240270014,None,395.4080240270014,None,395.4080240270014,None,A red little box,407.37460826700044,None,407.37460826700044,None,407.37460826700044,None,407.37460826700044,None,407.37460826700044,None,407.37460826700044,None,407.37460826700044,None,,414.3249381630012,None,414.3249381630012,None,414.3249381630012,None,414.3249381630012,None,414.3249381630012,None,414.3249381630012,None,414.3249381630012,None,,,030422,1,3,0,2,3,52,2022_Mar_04_1319,short_answer,3.2.4,60.018761023905014,
,5,,,,,0,5,5,5,,,,,,,,,,,,,,,,,,,,,,,,,,,,,,,,,,,,,,,,,,,,,,,,,,,,,,,,,,,,,,,,,,,,,,,,,,,,,,,,,,,,,,,,,,,,,,,,,,,,,,,,,,,,,,,,,,,,,,,,,,,,,,,,,,,,,,,,,,,,,,,,,,,,,,,,,,,,,,,030422,1,3,0,2,3,52,2022_Mar_04_1319,short_answer,3.2.4,60.018761023905014,
,6,,,,,0,6,6,6,0,0,0,0,,,,,,,,,,,,,,,,,418.34039623900026,None,space,1.2482364340012282,418.34039623900026,None,418.34039623900026,None,418.34039623900026,None,419.62391326000034,None,419.62391326000034,None,,With taxidermy ,"[2, 1]",420.8243571110015,None,420.8243571110015,None,420.8243571110015,None,420.8243571110015,None,420.8243571110015,None,420.8243571110015,None,420.8243571110015,None,"Steaks, fancy",426.1566584310003,None,426.1566584310003,None,426.1566584310003,None,426.1566584310003,None,426.1566584310003,None,426.1566584310003,None,426.1566584310003,None,Both order steaks,431.8404774990013,None,431.8404774990013,None,431.8404774990013,None,431.8404774990013,None,431.8404774990013,None,431.8404774990013,None,431.8404774990013,None,They think its mediocre,436.05799678400035,None,436.05799678400035,None,436.05799678400035,None,436.05799678400035,None,436.05799678400035,None,436.05799678400035,None,436.05799678400035,None,,444.70744720100083,None,444.70744720100083,None,444.70744720100083,None,444.70744720100083,None,444.70744720100083,None,444.70744720100083,None,444.70744720100083,None,"600,000",448.4578980260012,None,448.4578980260012,None,448.4578980260012,None,448.4578980260012,None,448.4578980260012,None,448.4578980260012,None,448.4578980260012,None,Techjets,452.88991203000114,None,452.88991203000114,None,452.88991203000114,None,452.88991203000114,None,452.88991203000114,None,452.88991203000114,None,452.88991203000114,None,,470.3071601850006,None,470.3071601850006,None,470.3071601850006,None,470.3071601850006,None,470.3071601850006,None,470.3071601850006,None,470.3071601850006,None,,,030422,1,3,0,2,3,52,2022_Mar_04_1319,short_answer,3.2.4,60.018761023905014,
,6,,,,,0,6,6,6,,,,,,,,,,,,,,,,,,,,,,,,,,,,,,,,,,,,,,,,,,,,,,,,,,,,,,,,,,,,,,,,,,,,,,,,,,,,,,,,,,,,,,,,,,,,,,,,,,,,,,,,,,,,,,,,,,,,,,,,,,,,,,,,,,,,,,,,,,,,,,,,,,,,,,,,,,,,,,,030422,1,3,0,2,3,52,2022_Mar_04_1319,short_answer,3.2.4,60.018761023905014,
,7,,,,,0,7,7,7,0,0,0,0,,,,,,,,,,,,,,,,,476.3230300260002,None,space,1.385037005000413,476.3230300260002,None,476.3230300260002,None,476.3230300260002,None,477.75609288300075,None,477.75609288300075,None,,,"[1, 2]",479.324621189,None,479.324621189,None,479.324621189,None,479.324621189,None,479.324621189,None,479.324621189,None,479.324621189,None,600,486.6906950680004,None,486.6906950680004,None,486.6906950680004,None,486.6906950680004,None,486.6906950680004,None,486.6906950680004,None,486.6906950680004,None,,490.12332622100075,None,490.12332622100075,None,490.12332622100075,None,490.12332622100075,None,490.12332622100075,None,490.12332622100075,None,490.12332622100075,None,,492.45700591600144,None,492.45700591600144,None,492.45700591600144,None,492.45700591600144,None,492.45700591600144,None,492.45700591600144,None,492.45700591600144,None,1 hour 15 minutes,495.0733559600012,None,495.0733559600012,None,495.0733559600012,None,495.0733559600012,None,495.0733559600012,None,495.0733559600012,None,495.0733559600012,None,There was no hold up at security ,502.60677843800113,None,502.60677843800113,None,502.60677843800113,None,502.60677843800113,None,502.60677843800113,None,502.60677843800113,None,502.60677843800113,None,,510.3056375900014,None,510.3056375900014,None,510.3056375900014,None,510.3056375900014,None,510.3056375900014,None,510.3056375900014,None,510.3056375900014,None,,512.573219848,None,512.573219848,None,512.573219848,None,512.573219848,None,512.573219848,None,512.573219848,None,512.573219848,None,,,030422,1,3,0,2,3,52,2022_Mar_04_1319,short_answer,3.2.4,60.018761023905014,
,7,,,,,0,7,7,7,,,,,,,,,,,,,,,,,,,,,,,,,,,,,,,,,,,,,,,,,,,,,,,,,,,,,,,,,,,,,,,,,,,,,,,,,,,,,,,,,,,,,,,,,,,,,,,,,,,,,,,,,,,,,,,,,,,,,,,,,,,,,,,,,,,,,,,,,,,,,,,,,,,,,,,,,,,,,,,030422,1,3,0,2,3,52,2022_Mar_04_1319,short_answer,3.2.4,60.018761023905014,
,8,,,,,0,8,8,8,0,0,0,0,,,,,,,,,,,,,,,,,513.8067831300013,None,space,2.1124491579994356,513.8067831300013,None,513.8067831300013,None,513.8067831300013,None,515.9562795649999,None,515.9562795649999,None,"23 dollars, credit card",Ms bianchi works for an italian cheese company while ms morrison works for corporate for a grocery chain store in america,"[1, 2]",516.9564630720015,None,516.9564630720015,None,516.9564630720015,None,516.9564630720015,None,516.9564630720015,None,516.9564630720015,None,516.9564630720015,None,,551.7056224220014,None,551.7056224220014,None,551.7056224220014,None,551.7056224220014,None,551.7056224220014,None,551.7056224220014,None,551.7056224220014,None,Orange grocer,554.189052062,None,554.189052062,None,554.189052062,None,554.189052062,None,554.189052062,None,554.189052062,None,554.189052062,None,A pop of champagne,560.4391730019997,None,560.4391730019997,None,560.4391730019997,None,560.4391730019997,None,560.4391730019997,None,560.4391730019997,None,560.4391730019997,None,,567.0230475429998,None,567.0230475429998,None,567.0230475429998,None,567.0230475429998,None,567.0230475429998,None,567.0230475429998,None,567.0230475429998,None,"Crackers,sparkling water, and a third beverage",570.1883334300001,None,570.1883334300001,None,570.1883334300001,None,570.1883334300001,None,570.1883334300001,None,570.1883334300001,None,570.1883334300001,None,,584.6231622840005,None,584.6231622840005,None,584.6231622840005,None,584.6231622840005,None,584.6231622840005,None,584.6231622840005,None,584.6231622840005,None,"23 dollars, credit card",588.2888346290001,None,588.2888346290001,None,588.2888346290001,None,588.2888346290001,None,588.2888346290001,None,588.2888346290001,None,588.2888346290001,None,,,030422,1,3,0,2,3,52,2022_Mar_04_1319,short_answer,3.2.4,60.018761023905014,
,8,,,,,0,8,8,8,,,,,,,,,,,,,,,,,,,,,,,,,,,,,,,,,,,,,,,,,,,,,,,,,,,,,,,,,,,,,,,,,,,,,,,,,,,,,,,,,,,,,,,,,,,,,,,,,,,,,,,,,,,,,,,,,,,,,,,,,,,,,,,,,,,,,,,,,,,,,,,,,,,,,,,,,,,,,,,030422,1,3,0,2,3,52,2022_Mar_04_1319,short_answer,3.2.4,60.018761023905014,
,9,,,,,0,9,9,9,0,0,0,0,,,,,,,,,,,,,,,,,596.6215694480015,None,space,1.333026937001705,596.6215694480015,None,596.6215694480015,None,596.6215694480015,None,597.9888254699999,None,597.9888254699999,None,,5 months,"[1, 2]",598.8733384380012,None,598.8733384380012,None,598.8733384380012,None,598.8733384380012,None,598.8733384380012,None,598.8733384380012,None,598.8733384380012,None,,603.7054979639997,None,603.7054979639997,None,603.7054979639997,None,603.7054979639997,None,603.7054979639997,None,603.7054979639997,None,603.7054979639997,None,Liam agrees to break up and says he has also felt tension,606.5385944530008,None,606.5385944530008,None,606.5385944530008,None,606.5385944530008,None,606.5385944530008,None,606.5385944530008,None,606.5385944530008,None,"No one, liam wants the cat though but he claimed it was already his",621.7053789500005,None,621.7053789500005,None,621.7053789500005,None,621.7053789500005,None,621.7053789500005,None,621.7053789500005,None,621.7053789500005,None,,637.0381138490011,None,637.0381138490011,None,637.0381138490011,None,637.0381138490011,None,637.0381138490011,None,637.0381138490011,None,637.0381138490011,None,"Pasta, olives, vodka sauce",639.2211965960014,None,639.2211965960014,None,639.2211965960014,None,639.2211965960014,None,639.2211965960014,None,639.2211965960014,None,639.2211965960014,None,1 checkout lane is open,644.571539988001,None,644.571539988001,None,644.571539988001,None,644.571539988001,None,644.571539988001,None,644.571539988001,None,644.571539988001,None,,650.3716154070007,None,650.3716154070007,None,650.3716154070007,None,650.3716154070007,None,650.3716154070007,None,650.3716154070007,None,650.3716154070007,None,,,030422,1,3,0,2,3,52,2022_Mar_04_1319,short_answer,3.2.4,60.018761023905014,
,9,,,,,0,9,9,9,,,,,,,,,,,,,,,,,,,,,,,,,,,,,,,,,,,,,,,,,,,,,,,,,,,,,,,,,,,,,,,,,,,,,,,,,,,,,,,,,,,,,,,,,,,,,,,,,,,,,,,,,,,,,,,,,,,,,,,,,,,,,,,,,,,,,,,,,,,,,,,,,,,,,,,,,,,,,,,030422,1,3,0,2,3,52,2022_Mar_04_1319,short_answer,3.2.4,60.018761023905014,
,10,,,,,0,10,10,10,,,,,,,,,,,,,,,,,,,,,,,,,,,,,,,,,,,,,,,,,,,,,,,,,,,,,,,,,,,,,,,,,,,,,,,,,,,,,,,,,,,,,,,,,,,,,,,,,,,,,,,,,,,,,,,,,,,,,,,,,,,,,,,,,,,,,,,,,,,,,,,,,,,,,,,,,,,,,,,030422,1,3,0,2,3,52,2022_Mar_04_1319,short_answer,3.2.4,60.018761023905014,
,11,,,,,0,11,11,11,0,0,0,0,,,,,,,,,,,,,,,,,652.9717416150015,None,space,1.0632695309996052,652.9717416150015,None,652.9717416150015,None,652.9717416150015,None,654.0713555020011,None,654.0713555020011,None,Midterm next thursday,Eraser,"[1, 2]",655.3381916960006,None,655.3381916960006,None,655.3381916960006,None,655.3381916960006,None,655.3381916960006,None,655.3381916960006,None,655.3381916960006,None,Are you from la,665.4052808680008,None,665.4052808680008,None,665.4052808680008,None,665.4052808680008,None,665.4052808680008,None,665.4052808680008,None,665.4052808680008,None,Later that day for a walk at 8 ,672.3041004660008,None,672.3041004660008,None,672.3041004660008,None,672.3041004660008,None,672.3041004660008,None,672.3041004660008,None,672.3041004660008,None,12,679.2374483660005,None,679.2374483660005,None,679.2374483660005,None,679.2374483660005,None,679.2374483660005,None,679.2374483660005,None,679.2374483660005,None,Small,682.838434274001,None,682.838434274001,None,682.838434274001,None,682.838434274001,None,682.838434274001,None,682.838434274001,None,682.838434274001,None,History class - mummies in ancient egypt,687.1883213830006,None,687.1883213830006,None,687.1883213830006,None,687.1883213830006,None,687.1883213830006,None,687.1883213830006,None,687.1883213830006,None,Mummification is the most misunderstood thing about egyptian culture,696.2048542890007,None,696.2048542890007,None,696.2048542890007,None,696.2048542890007,None,696.2048542890007,None,696.2048542890007,None,696.2048542890007,None,Midterm next thursday,710.9881258220012,None,710.9881258220012,None,710.9881258220012,None,710.9881258220012,None,710.9881258220012,None,710.9881258220012,None,710.9881258220012,None,,,030422,1,3,0,2,3,52,2022_Mar_04_1319,short_answer,3.2.4,60.018761023905014,
,11,,,,,0,11,11,11,,,,,,,,,,,,,,,,,,,,,,,,,,,,,,,,,,,,,,,,,,,,,,,,,,,,,,,,,,,,,,,,,,,,,,,,,,,,,,,,,,,,,,,,,,,,,,,,,,,,,,,,,,,,,,,,,,,,,,,,,,,,,,,,,,,,,,,,,,,,,,,,,,,,,,,,,,,,,,,030422,1,3,0,2,3,52,2022_Mar_04_1319,short_answer,3.2.4,60.018761023905014,
,12,,,,,0,12,12,12,0,0,0,0,,,,,,,,,,,,,,,,,719.0030195640011,None,space,0.9763569039987487,719.0030195640011,None,719.0030195640011,None,719.0030195640011,None,720.0205920460012,None,720.0205920460012,None,Midterm next thursday,3 years,"[1, 2]",720.8882052080007,None,720.8882052080007,None,720.8882052080007,None,720.8882052080007,None,720.8882052080007,None,720.8882052080007,None,720.8882052080007,None,5 red diamonds,724.5202129469999,None,724.5202129469999,None,724.5202129469999,None,724.5202129469999,None,724.5202129469999,None,724.5202129469999,None,724.5202129469999,None,A box,729.1707702950007,None,729.1707702950007,None,729.1707702950007,None,729.1707702950007,None,729.1707702950007,None,729.1707702950007,None,729.1707702950007,None,Her best friend,732.7206733170005,None,732.7206733170005,None,732.7206733170005,None,732.7206733170005,None,732.7206733170005,None,732.7206733170005,None,732.7206733170005,None,Big,738.7704441350015,None,738.7704441350015,None,738.7704441350015,None,738.7704441350015,None,738.7704441350015,None,738.7704441350015,None,738.7704441350015,None,Introduction to chemistry - ions,741.7034134550013,None,741.7034134550013,None,741.7034134550013,None,741.7034134550013,None,741.7034134550013,None,741.7034134550013,None,741.7034134550013,None,The number of protons defines the type of atom,751.5199538289999,None,751.5199538289999,None,751.5199538289999,None,751.5199538289999,None,751.5199538289999,None,751.5199538289999,None,751.5199538289999,None,Midterm next thursday,763.8366100060011,None,763.8366100060011,None,763.8366100060011,None,763.8366100060011,None,763.8366100060011,None,763.8366100060011,None,763.8366100060011,None,,,030422,1,3,0,2,3,52,2022_Mar_04_1319,short_answer,3.2.4,60.018761023905014,
,12,,,,,0,12,12,12,,,,,,,,,,,,,,,,,,,,,,,,,,,,,,,,,,,,,,,,,,,,,,,,,,,,,,,,,,,,,,,,,,,,,,,,,,,,,,,,,,,,,,,,,,,,,,,,,,,,,,,,,,,,,,,,,,,,,,,,,,,,,,,,,,,,,,,,,,,,,,,,,,,,,,,,,,,,,,,030422,1,3,0,2,3,52,2022_Mar_04_1319,short_answer,3.2.4,60.018761023905014,
,13,,,,,0,13,13,13,,,,,,,,,,,,,,,,,,,,,,,,,,,,,,,,,,,,,,,,,,,,,,,,,,,,,,,,,,,,,,,,,,,,,,,,,,,,,,,,,,,,,,,,,,,,,,,,,,,,,,,,,,,,,,,,,,,,,,,,,,,,,,,,,,,,,,,,,,,,,,,,,,,,,,,,,,,,,,,030422,1,3,0,2,3,52,2022_Mar_04_1319,short_answer,3.2.4,60.018761023905014,
,14,,,,,0,14,14,14,0,0,0,0,,,,,,,,,,,,,,,,,773.7361068850005,None,space,0.9114410350011894,773.7361068850005,None,773.7361068850005,None,773.7361068850005,None,774.6863499280007,None,774.6863499280007,None,Midterm next thursday,,"[1, 2]",775.603516997,None,775.603516997,None,775.603516997,None,775.603516997,None,775.603516997,None,775.603516997,None,775.603516997,None,"28,000",778.070262348001,None,778.070262348001,None,778.070262348001,None,778.070262348001,None,778.070262348001,None,778.070262348001,None,778.070262348001,None,,781.887149483,None,781.887149483,None,781.887149483,None,781.887149483,None,781.887149483,None,781.887149483,None,781.887149483,None,,783.4532694879999,None,783.4532694879999,None,783.4532694879999,None,783.4532694879999,None,783.4532694879999,None,783.4532694879999,None,783.4532694879999,None,Small room,785.5868188510012,None,785.5868188510012,None,785.5868188510012,None,785.5868188510012,None,785.5868188510012,None,785.5868188510012,None,785.5868188510012,None,Philosophy - some ancient greek book,788.6861818240013,None,788.6861818240013,None,788.6861818240013,None,788.6861818240013,None,788.6861818240013,None,788.6861818240013,None,788.6861818240013,None,,797.8694311400013,None,797.8694311400013,None,797.8694311400013,None,797.8694311400013,None,797.8694311400013,None,797.8694311400013,None,797.8694311400013,None,Midterm next thursday,799.6197473740012,None,799.6197473740012,None,799.6197473740012,None,799.6197473740012,None,799.6197473740012,None,799.6197473740012,None,799.6197473740012,None,,,030422,1,3,0,2,3,52,2022_Mar_04_1319,short_answer,3.2.4,60.018761023905014,
,14,,,,,0,14,14,14,,,,,,,,,,,,,,,,,,,,,,,,,,,,,,,,,,,,,,,,,,,,,,,,,,,,,,,,,,,,,,,,,,,,,,,,,,,,,,,,,,,,,,,,,,,,,,,,,,,,,,,,,,,,,,,,,,,,,,,,,,,,,,,,,,,,,,,,,,,,,,,,,,,,,,,,,,,,,,,030422,1,3,0,2,3,52,2022_Mar_04_1319,short_answer,3.2.4,60.018761023905014,
,15,,,,,0,15,15,15,0,0,0,0,,,,,,,,,,,,,,,,,805.7359508980007,None,space,1.0105169660000684,805.7359508980007,None,805.7359508980007,None,805.7359508980007,None,806.7862085289999,None,806.7862085289999,None,Maria wants her alpaca sweater back,,"[2, 1]",807.8856122819998,None,807.8856122819998,None,807.8856122819998,None,807.8856122819998,None,807.8856122819998,None,807.8856122819998,None,807.8856122819998,None,,812.2702103219999,None,812.2702103219999,None,812.2702103219999,None,812.2702103219999,None,812.2702103219999,None,812.2702103219999,None,812.2702103219999,None,,818.1368344790008,None,818.1368344790008,None,818.1368344790008,None,818.1368344790008,None,818.1368344790008,None,818.1368344790008,None,818.1368344790008,None,Assignment due the following tuesday,819.503581682,None,819.503581682,None,819.503581682,None,819.503581682,None,819.503581682,None,819.503581682,None,819.503581682,None,,827.5206004290012,None,827.5206004290012,None,827.5206004290012,None,827.5206004290012,None,827.5206004290012,None,827.5206004290012,None,827.5206004290012,None,She is going to study abroad and thinks she will be too busy to keep in touch with henry,830.7867161140002,None,830.7867161140002,None,830.7867161140002,None,830.7867161140002,None,830.7867161140002,None,830.7867161140002,None,830.7867161140002,None,"Henry does not want to break up, he thinks they get along well and will come visit maria wherever she is studying abroad",856.4520750259999,None,856.4520750259999,None,856.4520750259999,None,856.4520750259999,None,856.4520750259999,None,856.4520750259999,None,856.4520750259999,None,Maria wants her alpaca sweater back,881.9020758790011,None,881.9020758790011,None,881.9020758790011,None,881.9020758790011,None,881.9020758790011,None,881.9020758790011,None,881.9020758790011,None,,,030422,1,3,0,2,3,52,2022_Mar_04_1319,short_answer,3.2.4,60.018761023905014,
,15,,,,,0,15,15,15,,,,,,,,,,,,,,,,,,,,,,,,,,,,,,,,,,,,,,,,,,,,,,,,,,,,,,,,,,,,,,,,,,,,,,,,,,,,,,,,,,,,,,,,,,,,,,,,,,,,,,,,,,,,,,,,,,,,,,,,,,,,,,,,,,,,,,,,,,,,,,,,,,,,,,,,,,,,,,,030422,1,3,0,2,3,52,2022_Mar_04_1319,short_answer,3.2.4,60.018761023905014,
,,,,,,,,,,,,,,0,0,0,0,,,,,,,,,,,,,,,,,,,,,,,,,,,,,,,,,,,,,,,,,,,,,,,,,,,,,,,,,,,,,,,,,,,,,,,,,,,,,,,,,,,,,,,,,,,,,,,,,,,,,,,,,,,,,,,,,,,,,,,,,,,,,,,,,,,,,,,,,,,,,,,,,,,,,889.6507946460006,None,030422,1,3,0,2,3,52,2022_Mar_04_1319,short_answer,3.2.4,60.018761023905014,
