count,audio,trials_14.thisRepN,trials_14.thisTrialN,trials_14.thisN,trials_14.thisIndex,trials_3.thisRepN,trials_3.thisTrialN,trials_3.thisN,trials_3.thisIndex,trials_4.thisRepN,trials_4.thisTrialN,trials_4.thisN,trials_4.thisIndex,trials_6.thisRepN,trials_6.thisTrialN,trials_6.thisN,trials_6.thisIndex,trials_9.thisRepN,trials_9.thisTrialN,trials_9.thisN,trials_9.thisIndex,trials_10.thisRepN,trials_10.thisTrialN,trials_10.thisN,trials_10.thisIndex,trials_11.thisRepN,trials_11.thisTrialN,trials_11.thisN,trials_11.thisIndex,trials_12.thisRepN,trials_12.thisTrialN,trials_12.thisN,trials_12.thisIndex,trials_25.thisRepN,trials_25.thisTrialN,trials_25.thisN,trials_25.thisIndex,trials_15.thisRepN,trials_15.thisTrialN,trials_15.thisN,trials_15.thisIndex,trials_26.thisRepN,trials_26.thisTrialN,trials_26.thisN,trials_26.thisIndex,story_list_block2,action_list_block2,textTrigger.started,textTrigger.stopped,getTrigger.keys,getTrigger.rt,getTrigger.started,getTrigger.stopped,triggerTime,text_76.started,text_76.stopped,text_77.started,text_77.stopped,startWait,endWait,image_23.started,image_23.stopped,text_55.started,text_55.stopped,text_56.started,text_56.stopped,key_resp_2.keys,key_resp_2.rt,key_resp_2.started,key_resp_2.stopped,text_82.started,text_82.stopped,text_57.started,text_57.stopped,key_resp_17.keys,key_resp_17.rt,key_resp_17.started,key_resp_17.stopped,text_83.started,text_83.stopped,text_60.started,text_60.stopped,image_2.started,image_2.stopped,text_58.started,text_58.stopped,key_resp_23.keys,key_resp_23.rt,key_resp_23.started,key_resp_23.stopped,text_62.started,text_62.stopped,key_resp_18.keys,key_resp_18.rt,key_resp_18.started,key_resp_18.stopped,text_84.started,text_84.stopped,question1_2.started,question1_2.stopped,question2_2.started,question2_2.stopped,question3_2.started,question3_2.stopped,question4_2.started,question4_2.stopped,question5_2.started,question5_2.stopped,question6_2.started,question6_2.stopped,image_15.started,image_15.stopped,key_resp.keys,key_resp.started,key_resp.stopped,text_59.started,text_59.stopped,key_resp_19.keys,key_resp_19.rt,key_resp_19.started,key_resp_19.stopped,text_85.started,text_85.stopped,text_61.started,text_61.stopped,image_17.started,image_17.stopped,text_63.started,text_63.stopped,key_resp_24.keys,key_resp_24.rt,key_resp_24.started,key_resp_24.stopped,text_64.started,text_64.stopped,key_resp_20.keys,key_resp_20.rt,key_resp_20.started,key_resp_20.stopped,storyImage_StartTime,storyImage_EndTime,clip_StartTime,clip_EndTime,text_67.started,text_67.stopped,text_68.started,text_68.stopped,participant,sA,sB,lA,lB,block_struct,play_stories,block,behavioral,random_seed,date,expName,psychopyVersion,frameRate,
0,,,,,,,,,,0,0,0,0,0,0,0,0,0,0,0,0,0,0,0,0,0,0,0,0,,,,,,,,,,,,,,,,,[33 13 23 44 24 43 34 14],[2 2 3 1 1 3 4 4],14.367595744999562,None,equal,23.673705662999964,14.367595744999562,None,23.708878114000072,14.367595744999562,None,14.367595744999562,None,0.0003822859998763306,5.994273909000185,38.06710751100036,None,44.07276155999989,None,44.07276155999989,None,1,1.190727292999327,44.07276155999989,None,44.07276155999989,None,45.2839390299996,None,1,0.8465562930005035,45.2839390299996,None,45.2839390299996,None,46.172496109999884,None,46.172496109999884,None,46.172496109999884,None,1,0.8600444950006931,46.172496109999884,None,47.051153188999706,None,1,0.876335100999313,47.051153188999706,None,47.051153188999706,None,48.033998863000306,None,48.033998863000306,None,48.033998863000306,None,48.033998863000306,None,48.033998863000306,None,48.033998863000306,None,48.033998863000306,None,None,48.033998863000306,None,,,,,,,,,,,,,,,,,,,,,,,,,,,,,,,,,030422,1,3,0,2,3,1,2,0,52,2022_Mar_04_1211,listening_fmri,3.2.4,60.20021483749956,
0,,,,,,,,,,0,0,0,0,0,0,0,0,0,0,0,0,0,0,0,0,,,,,,,,,,,,,,,,,,,,,,,,,,,,,,,,,,,,,,,,,,,,,,,,,,,,,,,,,,,,,,,,,,,,,,,,,,,,,,,,,,,,,,,,,,,65.28405733900036,None,1,0.7083244300001752,65.28405733900036,None,65.28405733900036,None,66.03499374500007,None,66.03499374500007,None,66.03499374500007,None,1,0.47549475000050734,66.03499374500007,None,,,,,,,,,,,,,,,030422,1,3,0,2,3,1,2,0,52,2022_Mar_04_1211,listening_fmri,3.2.4,60.20021483749956,
0,parcelated_audio/33/33_1.ogg,,,,,,,,,0,0,0,0,0,0,0,0,0,0,0,0,,,,,,,,,,,,,0,0,0,0,0,0,0,0,,,,,,,,,,,,,,,,,,,,,,,,,,,,,,,,,,,,,,,,,,,,,,,,,,,,,,,,,,,,,,,,,,,,,,,,,,,,,,,,,,,,,,,,,,,,,66.5335008359998,None,1,1.1219568679998702,66.5335008359998,None,29.63333443600004,32.64390460899995,32.64886707200003,42.63101109699983,,,,,030422,1,3,0,2,3,1,2,0,52,2022_Mar_04_1211,listening_fmri,3.2.4,60.20021483749956,
0,parcelated_audio/33/33_2.ogg,,,,,,,,,0,0,0,0,0,0,0,0,0,0,0,0,,,,,,,,,,,,,0,0,0,0,0,1,1,1,,,,,,,,,,,,,,,,,,,,,,,,,,,,,,,,,,,,,,,,,,,,,,,,,,,,,,,,,,,,,,,,,,,,,,,,,,,,,,,,,,,,,,,,,,,,,,,,,,,,,42.63134474399976,53.07686126800036,,,,,030422,1,3,0,2,3,1,2,0,52,2022_Mar_04_1211,listening_fmri,3.2.4,60.20021483749956,
0,parcelated_audio/33/33_3.ogg,,,,,,,,,0,0,0,0,0,0,0,0,0,0,0,0,,,,,,,,,,,,,0,0,0,0,0,2,2,2,,,,,,,,,,,,,,,,,,,,,,,,,,,,,,,,,,,,,,,,,,,,,,,,,,,,,,,,,,,,,,,,,,,,,,,,,,,,,,,,,,,,,,,,,,,,,,,,,,,,,53.077139736999925,59.625988851999864,,,,,030422,1,3,0,2,3,1,2,0,52,2022_Mar_04_1211,listening_fmri,3.2.4,60.20021483749956,
0,parcelated_audio/33/33_4.ogg,,,,,,,,,0,0,0,0,0,0,0,0,0,0,0,0,,,,,,,,,,,,,0,0,0,0,0,3,3,3,,,,,,,,,,,,,,,,,,,,,,,,,,,,,,,,,,,,,,,,,,,,,,,,,,,,,,,,,,,,,,,,,,,,,,,,,,,,,,,,,,,,,,,,,,,,,,,,,,,,,59.62626248900051,63.223520436999934,,,,,030422,1,3,0,2,3,1,2,0,52,2022_Mar_04_1211,listening_fmri,3.2.4,60.20021483749956,
0,parcelated_audio/33/33_5.ogg,,,,,,,,,0,0,0,0,0,0,0,0,0,0,0,0,,,,,,,,,,,,,0,0,0,0,0,4,4,4,,,,,,,,,,,,,,,,,,,,,,,,,,,,,,,,,,,,,,,,,,,,,,,,,,,,,,,,,,,,,,,,,,,,,,,,,,,,,,,,,,,,,,,,,,,,,,,,,,,,,63.22413297700041,74.48742183700051,,,,,030422,1,3,0,2,3,1,2,0,52,2022_Mar_04_1211,listening_fmri,3.2.4,60.20021483749956,
0,parcelated_audio/33/33_6.ogg,,,,,,,,,0,0,0,0,0,0,0,0,0,0,0,0,,,,,,,,,,,,,0,0,0,0,0,5,5,5,,,,,,,,,,,,,,,,,,,,,,,,,,,,,,,,,,,,,,,,,,,,,,,,,,,,,,,,,,,,,,,,,,,,,,,,,,,,,,,,,,,,,,,,,,,,,,,,,,,,,74.48769714900027,86.19088608400034,,,,,030422,1,3,0,2,3,1,2,0,52,2022_Mar_04_1211,listening_fmri,3.2.4,60.20021483749956,
0,parcelated_audio/33/33_7.ogg,,,,,,,,,0,0,0,0,0,0,0,0,0,0,0,0,,,,,,,,,,,,,0,0,0,0,0,6,6,6,,,,,,,,,,,,,,,,,,,,,,,,,,,,,,,,,,,,,,,,,,,,,,,,,,,,,,,,,,,,,,,,,,,,,,,,,,,,,,,,,,,,,,,,,,,,,,,,,,,,,86.19119200200021,100.73799408400009,,,,,030422,1,3,0,2,3,1,2,0,52,2022_Mar_04_1211,listening_fmri,3.2.4,60.20021483749956,
0,parcelated_audio/33/33_8.ogg,,,,,,,,,0,0,0,0,0,0,0,0,0,0,0,0,,,,,,,,,,,,,0,0,0,0,0,7,7,7,,,,,,,,,,,,,,,,,,,,,,,,,,,,,,,,,,,,,,,,,,,,,,,,,,,,,,,,,,,,,,,,,,,,,,,,,,,,,,,,,,,,,,,,,,,,,,,,,,,,,100.73826539899983,106.89272379500017,,,,,030422,1,3,0,2,3,1,2,0,52,2022_Mar_04_1211,listening_fmri,3.2.4,60.20021483749956,
0,parcelated_audio/33/33_9.ogg,,,,,,,,,0,0,0,0,0,0,0,0,0,0,0,0,,,,,,,,,,,,,0,0,0,0,0,8,8,8,,,,,,,,,,,,,,,,,,,,,,,,,,,,,,,,,,,,,,,,,,,,,,,,,,,,,,,,,,,,,,,,,,,,,,,,,,,,,,,,,,,,,,,,,,,,,,,,,,,,,106.89306737600054,110.60705949299972,,,,,030422,1,3,0,2,3,1,2,0,52,2022_Mar_04_1211,listening_fmri,3.2.4,60.20021483749956,
0,parcelated_audio/33/33_10.ogg,,,,,,,,,0,0,0,0,0,0,0,0,0,0,0,0,,,,,,,,,,,,,0,0,0,0,0,9,9,9,,,,,,,,,,,,,,,,,,,,,,,,,,,,,,,,,,,,,,,,,,,,,,,,,,,,,,,,,,,,,,,,,,,,,,,,,,,,,,,,,,,,,,,,,,,,,,,,,,,,,110.60736353900029,115.97743623800034,,,,,030422,1,3,0,2,3,1,2,0,52,2022_Mar_04_1211,listening_fmri,3.2.4,60.20021483749956,
0,parcelated_audio/33/33_11.ogg,,,,,,,,,0,0,0,0,0,0,0,0,0,0,0,0,,,,,,,,,,,,,0,0,0,0,0,10,10,10,,,,,,,,,,,,,,,,,,,,,,,,,,,,,,,,,,,,,,,,,,,,,,,,,,,,,,,,,,,,,,,,,,,,,,,,,,,,,,,,,,,,,,,,,,,,,,,,,,,,,115.9777153820005,130.40652759600016,,,,,030422,1,3,0,2,3,1,2,0,52,2022_Mar_04_1211,listening_fmri,3.2.4,60.20021483749956,
0,parcelated_audio/33/33_12.ogg,,,,,,,,,0,0,0,0,0,0,0,0,0,0,0,0,,,,,,,,,,,,,0,0,0,0,0,11,11,11,,,,,,,,,,,,,,,,,,,,,,,,,,,,,,,,,,,,,,,,,,,,,,,,,,,,,,,,,,,,,,,,,,,,,,,,,,,,,,,,,,,,,,,,,,,,,,,,,,,,,130.40693463800017,136.52791602199977,,,,,030422,1,3,0,2,3,1,2,0,52,2022_Mar_04_1211,listening_fmri,3.2.4,60.20021483749956,
0,parcelated_audio/33/33_13.ogg,,,,,,,,,0,0,0,0,0,0,0,0,0,0,0,0,,,,,,,,,,,,,0,0,0,0,0,12,12,12,,,,,,,,,,,,,,,,,,,,,,,,,,,,,,,,,,,,,,,,,,,,,,,,,,,,,,,,,,,,,,,,,,,,,,,,,,,,,,,,,,,,,,,,,,,,,,,,,,,,,136.5282171529998,143.93459709699982,,,,,030422,1,3,0,2,3,1,2,0,52,2022_Mar_04_1211,listening_fmri,3.2.4,60.20021483749956,
0,parcelated_audio/33/33_14.ogg,,,,,,,,,0,0,0,0,0,0,0,0,0,0,0,0,,,,,,,,,,,,,0,0,0,0,0,13,13,13,,,,,,,,,,,,,,,,,,,,,,,,,,,,,,,,,,,,,,,,,,,,,,,,,,,,,,,,,,,,,,,,,,,,,,,,,,,,,,,,,,,,,,,,,,,,,,,,,,,,,143.93494860900046,156.37407476099997,,,,,030422,1,3,0,2,3,1,2,0,52,2022_Mar_04_1211,listening_fmri,3.2.4,60.20021483749956,
0,parcelated_audio/33/33_15.ogg,,,,,,,,,0,0,0,0,0,0,0,0,0,0,0,0,,,,,,,,,,,,,0,0,0,0,0,14,14,14,,,,,,,,,,,,,,,,,,,,,,,,,,,,,,,,,,,,,,,,,,,,,,,,,,,,,,,,,,,,,,,,,,,,,,,,,,,,,,,,,,,,,,,,,,,,,,,,,,,,,156.37435186099992,174.92098839899973,,,,,030422,1,3,0,2,3,1,2,0,52,2022_Mar_04_1211,listening_fmri,3.2.4,60.20021483749956,
0,parcelated_audio/33/33_16.ogg,,,,,,,,,0,0,0,0,0,0,0,0,0,0,0,0,,,,,,,,,,,,,0,0,0,0,0,15,15,15,,,,,,,,,,,,,,,,,,,,,,,,,,,,,,,,,,,,,,,,,,,,,,,,,,,,,,,,,,,,,,,,,,,,,,,,,,,,,,,,,,,,,,,,,,,,,,,,,,,,,174.921268004,187.15909436000038,,,,,030422,1,3,0,2,3,1,2,0,52,2022_Mar_04_1211,listening_fmri,3.2.4,60.20021483749956,
0,parcelated_audio/33/33_17.ogg,,,,,,,,,0,0,0,0,0,0,0,0,0,0,0,0,,,,,,,,,,,,,0,0,0,0,0,16,16,16,,,,,,,,,,,,,,,,,,,,,,,,,,,,,,,,,,,,,,,,,,,,,,,,,,,,,,,,,,,,,,,,,,,,,,,,,,,,,,,,,,,,,,,,,,,,,,,,,,,,,187.1593686670003,198.39713919899987,,,,,030422,1,3,0,2,3,1,2,0,52,2022_Mar_04_1211,listening_fmri,3.2.4,60.20021483749956,
0,parcelated_audio/33/33_18.ogg,,,,,,,,,0,0,0,0,0,0,0,0,0,0,0,0,,,,,,,,,,,,,0,0,0,0,0,17,17,17,,,,,,,,,,,,,,,,,,,,,,,,,,,,,,,,,,,,,,,,,,,,,,,,,,,,,,,,,,,,,,,,,,,,,,,,,,,,,,,,,,,,,,,,,,,,,,,,,,,,,198.3974146620003,206.87433163900005,,,,,030422,1,3,0,2,3,1,2,0,52,2022_Mar_04_1211,listening_fmri,3.2.4,60.20021483749956,
0,parcelated_audio/33/33_19.ogg,,,,,,,,,0,0,0,0,0,0,0,0,0,0,0,0,,,,,,,,,,,,,0,0,0,0,0,18,18,18,,,,,,,,,,,,,,,,,,,,,,,,,,,,,,,,,,,,,,,,,,,,,,,,,,,,,,,,,,,,,,,,,,,,,,,,,,,,,,,,,,,,,,,,,,,,,,,,,,,,,206.87463259600008,210.32486691600025,,,,,030422,1,3,0,2,3,1,2,0,52,2022_Mar_04_1211,listening_fmri,3.2.4,60.20021483749956,
0,parcelated_audio/33/33_20.ogg,,,,,,,,,0,0,0,0,0,0,0,0,0,0,0,0,,,,,,,,,,,,,0,0,0,0,0,19,19,19,,,,,,,,,,,,,,,,,,,,,,,,,,,,,,,,,,,,,,,,,,,,,,,,,,,,,,,,,,,,,,,,,,,,,,,,,,,,,,,,,,,,,,,,,,,,,,,,,,,,,210.32514691600045,217.22277845200006,,,,,030422,1,3,0,2,3,1,2,0,52,2022_Mar_04_1211,listening_fmri,3.2.4,60.20021483749956,
0,parcelated_audio/33/33_21.ogg,,,,,,,,,0,0,0,0,0,0,0,0,0,0,0,0,,,,,,,,,,,,,0,0,0,0,0,20,20,20,,,,,,,,,,,,,,,,,,,,,,,,,,,,,,,,,,,,,,,,,,,,,,,,,,,,,,,,,,,,,,,,,,,,,,,,,,,,,,,,,,,,,,,,,,,,,,,,,,,,,217.2230793280005,221.37014343700048,,,,,030422,1,3,0,2,3,1,2,0,52,2022_Mar_04_1211,listening_fmri,3.2.4,60.20021483749956,
0,parcelated_audio/33/33_22.ogg,,,,,,,,,0,0,0,0,0,0,0,0,0,0,0,0,,,,,,,,,,,,,0,0,0,0,0,21,21,21,,,,,,,,,,,,,,,,,,,,,,,,,,,,,,,,,,,,,,,,,,,,,,,,,,,,,,,,,,,,,,,,,,,,,,,,,,,,,,,,,,,,,,,,,,,,,,,,,,,,,221.37042227999973,233.19116678000046,,,,,030422,1,3,0,2,3,1,2,0,52,2022_Mar_04_1211,listening_fmri,3.2.4,60.20021483749956,
0,parcelated_audio/33/33_23.ogg,,,,,,,,,0,0,0,0,0,0,0,0,0,0,0,0,,,,,,,,,,,,,0,0,0,0,0,22,22,22,,,,,,,,,,,,,,,,,,,,,,,,,,,,,,,,,,,,,,,,,,,,,,,,,,,,,,,,,,,,,,,,,,,,,,,,,,,,,,,,,,,,,,,,,,,,,,,,,,,,,233.1914598610001,243.67368088000057,,,,,030422,1,3,0,2,3,1,2,0,52,2022_Mar_04_1211,listening_fmri,3.2.4,60.20021483749956,
0,parcelated_audio/33/33_24.ogg,,,,,,,,,0,0,0,0,0,0,0,0,0,0,0,0,,,,,,,,,,,,,0,0,0,0,0,23,23,23,,,,,,,,,,,,,,,,,,,,,,,,,,,,,,,,,,,,,,,,,,,,,,,,,,,,,,,,,,,,,,,,,,,,,,,,,,,,,,,,,,,,,,,,,,,,,,,,,,,,,243.67402155200034,249.93554495599983,,,,,030422,1,3,0,2,3,1,2,0,52,2022_Mar_04_1211,listening_fmri,3.2.4,60.20021483749956,
0,parcelated_audio/33/33_25.ogg,,,,,,,,,0,0,0,0,0,0,0,0,0,0,0,0,,,,,,,,,,,,,0,0,0,0,0,24,24,24,,,,,,,,,,,,,,,,,,,,,,,,,,,,,,,,,,,,,,,,,,,,,,,,,,,,,,,,,,,,,,,,,,,,,,,,,,,,,,,,,,,,,,,,,,,,,,,,,,,,,249.93634223299978,258.14027070500015,,,,,030422,1,3,0,2,3,1,2,0,52,2022_Mar_04_1211,listening_fmri,3.2.4,60.20021483749956,
0,parcelated_audio/33/33_26.ogg,,,,,,,,,0,0,0,0,0,0,0,0,0,0,0,0,,,,,,,,,,,,,0,0,0,0,0,25,25,25,,,,,,,,,,,,,,,,,,,,,,,,,,,,,,,,,,,,,,,,,,,,,,,,,,,,,,,,,,,,,,,,,,,,,,,,,,,,,,,,,,,,,,,,,,,,,,,,,,,,,258.14054058500005,265.2091838670003,,,,,030422,1,3,0,2,3,1,2,0,52,2022_Mar_04_1211,listening_fmri,3.2.4,60.20021483749956,
0,parcelated_audio/33/33_27.ogg,,,,,,,,,0,0,0,0,0,0,0,0,0,0,0,0,,,,,,,,,,,,,0,0,0,0,0,26,26,26,,,,,,,,,,,,,,,,,,,,,,,,,,,,,,,,,,,,,,,,,,,,,,,,,,,,,,,,,,,,,,,,,,,,,,,,,,,,,,,,,,,,,,,,,,,,,,,,,,,,,265.20945936499993,272.75521399900026,,,,,030422,1,3,0,2,3,1,2,0,52,2022_Mar_04_1211,listening_fmri,3.2.4,60.20021483749956,
0,parcelated_audio/33/33_28.ogg,,,,,,,,,0,0,0,0,0,0,0,0,0,0,0,0,,,,,,,,,,,,,0,0,0,0,0,27,27,27,,,,,,,,,,,,,,,,,,,,,,,,,,,,,,,,,,,,,,,,,,,,,,,,,,,,,,,,,,,,,,,,,,,,,,,,,,,,,,,,,,,,,,,,,,,,,,,,,,,,,272.7560092800004,278.4542223389999,,,,,030422,1,3,0,2,3,1,2,0,52,2022_Mar_04_1211,listening_fmri,3.2.4,60.20021483749956,
0,parcelated_audio/33/33_29.ogg,,,,,,,,,0,0,0,0,0,0,0,0,0,0,0,0,,,,,,,,,,,,,0,0,0,0,0,28,28,28,,,,,,,,,,,,,,,,,,,,,,,,,,,,,,,,,,,,,,,,,,,,,,,,,,,,,,,,,,,,,,,,,,,,,,,,,,,,,,,,,,,,,,,,,,,,,,,,,,,,,278.4544937090004,286.37906289200055,,,,,030422,1,3,0,2,3,1,2,0,52,2022_Mar_04_1211,listening_fmri,3.2.4,60.20021483749956,
0,parcelated_audio/33/33_30.ogg,,,,,,,,,0,0,0,0,0,0,0,0,0,0,0,0,,,,,,,,,,,,,0,0,0,0,0,29,29,29,,,,,,,,,,,,,,,,,,,,,,,,,,,,,,,,,,,,,,,,,,,,,,,,,,,,,,,,,,,,,,,,,,,,,,,,,,,,,,,,,,,,,,,,,,,,,,,,,,,,,286.3793391979998,301.3539128230004,,,,,030422,1,3,0,2,3,1,2,0,52,2022_Mar_04_1211,listening_fmri,3.2.4,60.20021483749956,
0,parcelated_audio/33/33_31.ogg,,,,,,,,,0,0,0,0,0,0,0,0,0,0,0,0,,,,,,,,,,,,,0,0,0,0,0,30,30,30,,,,,,,,,,,,,,,,,,,,,,,,,,,,,,,,,,,,,,,,,,,,,,,,,,,,,,,,,,,,,,,,,,,,,,,,,,,,,,,,,,,,,,,,,,,,,,,,,,,,,301.3543012420005,311.10680552400026,,,,,030422,1,3,0,2,3,1,2,0,52,2022_Mar_04_1211,listening_fmri,3.2.4,60.20021483749956,
0,parcelated_audio/33/33_32.ogg,,,,,,,,,0,0,0,0,0,0,0,0,0,0,0,0,,,,,,,,,,,,,0,0,0,0,0,31,31,31,,,,,,,,,,,,,,,,,,,,,,,,,,,,,,,,,,,,,,,,,,,,,,,,,,,,,,,,,,,,,,,,,,,,,,,,,,,,,,,,,,,,,,,,,,,,,,,,,,,,,311.10725480200017,316.7387831420001,,,,,030422,1,3,0,2,3,1,2,0,52,2022_Mar_04_1211,listening_fmri,3.2.4,60.20021483749956,
0,,,,,,,,,,0,0,0,0,0,0,0,0,0,0,0,0,,,,,,,,,,,,,0,0,0,0,,,,,,,,,,,,,,,,,,,,,,,,,,,,,,,,,,,,,,,,,,,,,,,,,,,,,,,,,,,,,,,,,,,,,,,,,,,,,,,,,,,,,,,,,,,,,,,,,,,,,,,,,,,,,,,030422,1,3,0,2,3,1,2,0,52,2022_Mar_04_1211,listening_fmri,3.2.4,60.20021483749956,
,,,,,,,,,,,,,,,,,,,,,,,,,,,,,,,,,,,,,,,,,,,,,,,,,,,,,,,,,,,316.7391696710001,322.7434951760006,354.80189227899973,None,,,,,,,,,,,,,,,,,,,,,,,,,,,,,,,,,,,,,,,,,,,,,,,,,,,,,,,,,,,,,,,,,,,,,,,,,,,,,,,,,,360.8172871119996,None,360.8172871119996,None,,,,,,,,,,,,,,,
﻿count,audio,trials_14.thisRepN,trials_14.thisTrialN,trials_14.thisN,trials_14.thisIndex,trials_3.thisRepN,trials_3.thisTrialN,trials_3.thisN,trials_3.thisIndex,trials_4.thisRepN,trials_4.thisTrialN,trials_4.thisN,trials_4.thisIndex,trials_6.thisRepN,trials_6.thisTrialN,trials_6.thisN,trials_6.thisIndex,trials_9.thisRepN,trials_9.thisTrialN,trials_9.thisN,trials_9.thisIndex,trials_10.thisRepN,trials_10.thisTrialN,trials_10.thisN,trials_10.thisIndex,trials_11.thisRepN,trials_11.thisTrialN,trials_11.thisN,trials_11.thisIndex,trials_12.thisRepN,trials_12.thisTrialN,trials_12.thisN,trials_12.thisIndex,trials_25.thisRepN,trials_25.thisTrialN,trials_25.thisN,trials_25.thisIndex,trials_15.thisRepN,trials_15.thisTrialN,trials_15.thisN,trials_15.thisIndex,trials_26.thisRepN,trials_26.thisTrialN,trials_26.thisN,trials_26.thisIndex,story_list_block2,action_list_block2,textTrigger.started,textTrigger.stopped,getTrigger.keys,getTrigger.rt,getTrigger.started,getTrigger.stopped,triggerTime,text_76.started,text_76.stopped,text_77.started,text_77.stopped,startWait,endWait,image_23.started,image_23.stopped,text_55.started,text_55.stopped,text_56.started,text_56.stopped,key_resp_2.keys,key_resp_2.rt,key_resp_2.started,key_resp_2.stopped,text_82.started,text_82.stopped,text_57.started,text_57.stopped,key_resp_17.keys,key_resp_17.rt,key_resp_17.started,key_resp_17.stopped,text_83.started,text_83.stopped,text_60.started,text_60.stopped,image_2.started,image_2.stopped,text_58.started,text_58.stopped,key_resp_23.keys,key_resp_23.rt,key_resp_23.started,key_resp_23.stopped,text_62.started,text_62.stopped,key_resp_18.keys,key_resp_18.rt,key_resp_18.started,key_resp_18.stopped,text_84.started,text_84.stopped,question1_2.started,question1_2.stopped,question2_2.started,question2_2.stopped,question3_2.started,question3_2.stopped,question4_2.started,question4_2.stopped,question5_2.started,question5_2.stopped,question6_2.started,question6_2.stopped,image_15.started,image_15.stopped,key_resp.keys,key_resp.started,key_resp.stopped,text_59.started,text_59.stopped,key_resp_19.keys,key_resp_19.rt,key_resp_19.started,key_resp_19.stopped,text_85.started,text_85.stopped,text_61.started,text_61.stopped,image_17.started,image_17.stopped,text_63.started,text_63.stopped,key_resp_24.keys,key_resp_24.rt,key_resp_24.started,key_resp_24.stopped,text_64.started,text_64.stopped,key_resp_20.keys,key_resp_20.rt,key_resp_20.started,key_resp_20.stopped,storyImage_StartTime,storyImage_EndTime,clip_StartTime,clip_EndTime,text_67.started,text_67.stopped,text_68.started,text_68.stopped,participant,sA,sB,lA,lB,block_struct,play_stories,block,behavioral,random_seed,date,expName,psychopyVersion,frameRate,
0,,,,,,,,,,0,0,0,0,0,0,0,0,0,0,0,0,0,0,0,0,0,0,0,0,,,,,,,,,,,,,,,,,[33 13 23 44 24 43 34 14],[2 2 3 1 1 3 4 4],14.367595744999562,None,equal,23.673705662999964,14.367595744999562,None,23.708878114000072,14.367595744999562,None,14.367595744999562,None,0.0003822859998763306,5.994273909000185,38.06710751100036,None,44.07276155999989,None,44.07276155999989,None,1,1.190727292999327,44.07276155999989,None,44.07276155999989,None,45.2839390299996,None,1,0.8465562930005035,45.2839390299996,None,45.2839390299996,None,46.172496109999884,None,46.172496109999884,None,46.172496109999884,None,1,0.8600444950006931,46.172496109999884,None,47.051153188999706,None,1,0.876335100999313,47.051153188999706,None,47.051153188999706,None,48.033998863000306,None,48.033998863000306,None,48.033998863000306,None,48.033998863000306,None,48.033998863000306,None,48.033998863000306,None,48.033998863000306,None,None,48.033998863000306,None,,,,,,,,,,,,,,,,,,,,,,,,,,,,,,,,,030422,1,3,0,2,3,1,2,0,52,2022_Mar_04_1211,listening_fmri,3.2.4,60.20021483749956,
0,,,,,,,,,,0,0,0,0,0,0,0,0,0,0,0,0,0,0,0,0,,,,,,,,,,,,,,,,,,,,,,,,,,,,,,,,,,,,,,,,,,,,,,,,,,,,,,,,,,,,,,,,,,,,,,,,,,,,,,,,,,,,,,,,,,,65.28405733900036,None,1,0.7083244300001752,65.28405733900036,None,65.28405733900036,None,66.03499374500007,None,66.03499374500007,None,66.03499374500007,None,1,0.47549475000050734,66.03499374500007,None,,,,,,,,,,,,,,,030422,1,3,0,2,3,1,2,0,52,2022_Mar_04_1211,listening_fmri,3.2.4,60.20021483749956,
0,parcelated_audio/33/33_1.ogg,,,,,,,,,0,0,0,0,0,0,0,0,0,0,0,0,,,,,,,,,,,,,0,0,0,0,0,0,0,0,,,,,,,,,,,,,,,,,,,,,,,,,,,,,,,,,,,,,,,,,,,,,,,,,,,,,,,,,,,,,,,,,,,,,,,,,,,,,,,,,,,,,,,,,,,,,66.5335008359998,None,1,1.1219568679998702,66.5335008359998,None,29.63333443600004,32.64390460899995,32.64886707200003,42.63101109699983,,,,,030422,1,3,0,2,3,1,2,0,52,2022_Mar_04_1211,listening_fmri,3.2.4,60.20021483749956,
0,parcelated_audio/33/33_2.ogg,,,,,,,,,0,0,0,0,0,0,0,0,0,0,0,0,,,,,,,,,,,,,0,0,0,0,0,1,1,1,,,,,,,,,,,,,,,,,,,,,,,,,,,,,,,,,,,,,,,,,,,,,,,,,,,,,,,,,,,,,,,,,,,,,,,,,,,,,,,,,,,,,,,,,,,,,,,,,,,,,42.63134474399976,53.07686126800036,,,,,030422,1,3,0,2,3,1,2,0,52,2022_Mar_04_1211,listening_fmri,3.2.4,60.20021483749956,
0,parcelated_audio/33/33_3.ogg,,,,,,,,,0,0,0,0,0,0,0,0,0,0,0,0,,,,,,,,,,,,,0,0,0,0,0,2,2,2,,,,,,,,,,,,,,,,,,,,,,,,,,,,,,,,,,,,,,,,,,,,,,,,,,,,,,,,,,,,,,,,,,,,,,,,,,,,,,,,,,,,,,,,,,,,,,,,,,,,,53.077139736999925,59.625988851999864,,,,,030422,1,3,0,2,3,1,2,0,52,2022_Mar_04_1211,listening_fmri,3.2.4,60.20021483749956,
0,parcelated_audio/33/33_4.ogg,,,,,,,,,0,0,0,0,0,0,0,0,0,0,0,0,,,,,,,,,,,,,0,0,0,0,0,3,3,3,,,,,,,,,,,,,,,,,,,,,,,,,,,,,,,,,,,,,,,,,,,,,,,,,,,,,,,,,,,,,,,,,,,,,,,,,,,,,,,,,,,,,,,,,,,,,,,,,,,,,59.62626248900051,63.223520436999934,,,,,030422,1,3,0,2,3,1,2,0,52,2022_Mar_04_1211,listening_fmri,3.2.4,60.20021483749956,
0,parcelated_audio/33/33_5.ogg,,,,,,,,,0,0,0,0,0,0,0,0,0,0,0,0,,,,,,,,,,,,,0,0,0,0,0,4,4,4,,,,,,,,,,,,,,,,,,,,,,,,,,,,,,,,,,,,,,,,,,,,,,,,,,,,,,,,,,,,,,,,,,,,,,,,,,,,,,,,,,,,,,,,,,,,,,,,,,,,,63.22413297700041,74.48742183700051,,,,,030422,1,3,0,2,3,1,2,0,52,2022_Mar_04_1211,listening_fmri,3.2.4,60.20021483749956,
0,parcelated_audio/33/33_6.ogg,,,,,,,,,0,0,0,0,0,0,0,0,0,0,0,0,,,,,,,,,,,,,0,0,0,0,0,5,5,5,,,,,,,,,,,,,,,,,,,,,,,,,,,,,,,,,,,,,,,,,,,,,,,,,,,,,,,,,,,,,,,,,,,,,,,,,,,,,,,,,,,,,,,,,,,,,,,,,,,,,74.48769714900027,86.19088608400034,,,,,030422,1,3,0,2,3,1,2,0,52,2022_Mar_04_1211,listening_fmri,3.2.4,60.20021483749956,
0,parcelated_audio/33/33_7.ogg,,,,,,,,,0,0,0,0,0,0,0,0,0,0,0,0,,,,,,,,,,,,,0,0,0,0,0,6,6,6,,,,,,,,,,,,,,,,,,,,,,,,,,,,,,,,,,,,,,,,,,,,,,,,,,,,,,,,,,,,,,,,,,,,,,,,,,,,,,,,,,,,,,,,,,,,,,,,,,,,,86.19119200200021,100.73799408400009,,,,,030422,1,3,0,2,3,1,2,0,52,2022_Mar_04_1211,listening_fmri,3.2.4,60.20021483749956,
0,parcelated_audio/33/33_8.ogg,,,,,,,,,0,0,0,0,0,0,0,0,0,0,0,0,,,,,,,,,,,,,0,0,0,0,0,7,7,7,,,,,,,,,,,,,,,,,,,,,,,,,,,,,,,,,,,,,,,,,,,,,,,,,,,,,,,,,,,,,,,,,,,,,,,,,,,,,,,,,,,,,,,,,,,,,,,,,,,,,100.73826539899983,106.89272379500017,,,,,030422,1,3,0,2,3,1,2,0,52,2022_Mar_04_1211,listening_fmri,3.2.4,60.20021483749956,
0,parcelated_audio/33/33_9.ogg,,,,,,,,,0,0,0,0,0,0,0,0,0,0,0,0,,,,,,,,,,,,,0,0,0,0,0,8,8,8,,,,,,,,,,,,,,,,,,,,,,,,,,,,,,,,,,,,,,,,,,,,,,,,,,,,,,,,,,,,,,,,,,,,,,,,,,,,,,,,,,,,,,,,,,,,,,,,,,,,,106.89306737600054,110.60705949299972,,,,,030422,1,3,0,2,3,1,2,0,52,2022_Mar_04_1211,listening_fmri,3.2.4,60.20021483749956,
0,parcelated_audio/33/33_10.ogg,,,,,,,,,0,0,0,0,0,0,0,0,0,0,0,0,,,,,,,,,,,,,0,0,0,0,0,9,9,9,,,,,,,,,,,,,,,,,,,,,,,,,,,,,,,,,,,,,,,,,,,,,,,,,,,,,,,,,,,,,,,,,,,,,,,,,,,,,,,,,,,,,,,,,,,,,,,,,,,,,110.60736353900029,115.97743623800034,,,,,030422,1,3,0,2,3,1,2,0,52,2022_Mar_04_1211,listening_fmri,3.2.4,60.20021483749956,
0,parcelated_audio/33/33_11.ogg,,,,,,,,,0,0,0,0,0,0,0,0,0,0,0,0,,,,,,,,,,,,,0,0,0,0,0,10,10,10,,,,,,,,,,,,,,,,,,,,,,,,,,,,,,,,,,,,,,,,,,,,,,,,,,,,,,,,,,,,,,,,,,,,,,,,,,,,,,,,,,,,,,,,,,,,,,,,,,,,,115.9777153820005,130.40652759600016,,,,,030422,1,3,0,2,3,1,2,0,52,2022_Mar_04_1211,listening_fmri,3.2.4,60.20021483749956,
0,parcelated_audio/33/33_12.ogg,,,,,,,,,0,0,0,0,0,0,0,0,0,0,0,0,,,,,,,,,,,,,0,0,0,0,0,11,11,11,,,,,,,,,,,,,,,,,,,,,,,,,,,,,,,,,,,,,,,,,,,,,,,,,,,,,,,,,,,,,,,,,,,,,,,,,,,,,,,,,,,,,,,,,,,,,,,,,,,,,130.40693463800017,136.52791602199977,,,,,030422,1,3,0,2,3,1,2,0,52,2022_Mar_04_1211,listening_fmri,3.2.4,60.20021483749956,
0,parcelated_audio/33/33_13.ogg,,,,,,,,,0,0,0,0,0,0,0,0,0,0,0,0,,,,,,,,,,,,,0,0,0,0,0,12,12,12,,,,,,,,,,,,,,,,,,,,,,,,,,,,,,,,,,,,,,,,,,,,,,,,,,,,,,,,,,,,,,,,,,,,,,,,,,,,,,,,,,,,,,,,,,,,,,,,,,,,,136.5282171529998,143.93459709699982,,,,,030422,1,3,0,2,3,1,2,0,52,2022_Mar_04_1211,listening_fmri,3.2.4,60.20021483749956,
0,parcelated_audio/33/33_14.ogg,,,,,,,,,0,0,0,0,0,0,0,0,0,0,0,0,,,,,,,,,,,,,0,0,0,0,0,13,13,13,,,,,,,,,,,,,,,,,,,,,,,,,,,,,,,,,,,,,,,,,,,,,,,,,,,,,,,,,,,,,,,,,,,,,,,,,,,,,,,,,,,,,,,,,,,,,,,,,,,,,143.93494860900046,156.37407476099997,,,,,030422,1,3,0,2,3,1,2,0,52,2022_Mar_04_1211,listening_fmri,3.2.4,60.20021483749956,
0,parcelated_audio/33/33_15.ogg,,,,,,,,,0,0,0,0,0,0,0,0,0,0,0,0,,,,,,,,,,,,,0,0,0,0,0,14,14,14,,,,,,,,,,,,,,,,,,,,,,,,,,,,,,,,,,,,,,,,,,,,,,,,,,,,,,,,,,,,,,,,,,,,,,,,,,,,,,,,,,,,,,,,,,,,,,,,,,,,,156.37435186099992,174.92098839899973,,,,,030422,1,3,0,2,3,1,2,0,52,2022_Mar_04_1211,listening_fmri,3.2.4,60.20021483749956,
0,parcelated_audio/33/33_16.ogg,,,,,,,,,0,0,0,0,0,0,0,0,0,0,0,0,,,,,,,,,,,,,0,0,0,0,0,15,15,15,,,,,,,,,,,,,,,,,,,,,,,,,,,,,,,,,,,,,,,,,,,,,,,,,,,,,,,,,,,,,,,,,,,,,,,,,,,,,,,,,,,,,,,,,,,,,,,,,,,,,174.921268004,187.15909436000038,,,,,030422,1,3,0,2,3,1,2,0,52,2022_Mar_04_1211,listening_fmri,3.2.4,60.20021483749956,
0,parcelated_audio/33/33_17.ogg,,,,,,,,,0,0,0,0,0,0,0,0,0,0,0,0,,,,,,,,,,,,,0,0,0,0,0,16,16,16,,,,,,,,,,,,,,,,,,,,,,,,,,,,,,,,,,,,,,,,,,,,,,,,,,,,,,,,,,,,,,,,,,,,,,,,,,,,,,,,,,,,,,,,,,,,,,,,,,,,,187.1593686670003,198.39713919899987,,,,,030422,1,3,0,2,3,1,2,0,52,2022_Mar_04_1211,listening_fmri,3.2.4,60.20021483749956,
0,parcelated_audio/33/33_18.ogg,,,,,,,,,0,0,0,0,0,0,0,0,0,0,0,0,,,,,,,,,,,,,0,0,0,0,0,17,17,17,,,,,,,,,,,,,,,,,,,,,,,,,,,,,,,,,,,,,,,,,,,,,,,,,,,,,,,,,,,,,,,,,,,,,,,,,,,,,,,,,,,,,,,,,,,,,,,,,,,,,198.3974146620003,206.87433163900005,,,,,030422,1,3,0,2,3,1,2,0,52,2022_Mar_04_1211,listening_fmri,3.2.4,60.20021483749956,
0,parcelated_audio/33/33_19.ogg,,,,,,,,,0,0,0,0,0,0,0,0,0,0,0,0,,,,,,,,,,,,,0,0,0,0,0,18,18,18,,,,,,,,,,,,,,,,,,,,,,,,,,,,,,,,,,,,,,,,,,,,,,,,,,,,,,,,,,,,,,,,,,,,,,,,,,,,,,,,,,,,,,,,,,,,,,,,,,,,,206.87463259600008,210.32486691600025,,,,,030422,1,3,0,2,3,1,2,0,52,2022_Mar_04_1211,listening_fmri,3.2.4,60.20021483749956,
0,parcelated_audio/33/33_20.ogg,,,,,,,,,0,0,0,0,0,0,0,0,0,0,0,0,,,,,,,,,,,,,0,0,0,0,0,19,19,19,,,,,,,,,,,,,,,,,,,,,,,,,,,,,,,,,,,,,,,,,,,,,,,,,,,,,,,,,,,,,,,,,,,,,,,,,,,,,,,,,,,,,,,,,,,,,,,,,,,,,210.32514691600045,217.22277845200006,,,,,030422,1,3,0,2,3,1,2,0,52,2022_Mar_04_1211,listening_fmri,3.2.4,60.20021483749956,
0,parcelated_audio/33/33_21.ogg,,,,,,,,,0,0,0,0,0,0,0,0,0,0,0,0,,,,,,,,,,,,,0,0,0,0,0,20,20,20,,,,,,,,,,,,,,,,,,,,,,,,,,,,,,,,,,,,,,,,,,,,,,,,,,,,,,,,,,,,,,,,,,,,,,,,,,,,,,,,,,,,,,,,,,,,,,,,,,,,,217.2230793280005,221.37014343700048,,,,,030422,1,3,0,2,3,1,2,0,52,2022_Mar_04_1211,listening_fmri,3.2.4,60.20021483749956,
0,parcelated_audio/33/33_22.ogg,,,,,,,,,0,0,0,0,0,0,0,0,0,0,0,0,,,,,,,,,,,,,0,0,0,0,0,21,21,21,,,,,,,,,,,,,,,,,,,,,,,,,,,,,,,,,,,,,,,,,,,,,,,,,,,,,,,,,,,,,,,,,,,,,,,,,,,,,,,,,,,,,,,,,,,,,,,,,,,,,221.37042227999973,233.19116678000046,,,,,030422,1,3,0,2,3,1,2,0,52,2022_Mar_04_1211,listening_fmri,3.2.4,60.20021483749956,
0,parcelated_audio/33/33_23.ogg,,,,,,,,,0,0,0,0,0,0,0,0,0,0,0,0,,,,,,,,,,,,,0,0,0,0,0,22,22,22,,,,,,,,,,,,,,,,,,,,,,,,,,,,,,,,,,,,,,,,,,,,,,,,,,,,,,,,,,,,,,,,,,,,,,,,,,,,,,,,,,,,,,,,,,,,,,,,,,,,,233.1914598610001,243.67368088000057,,,,,030422,1,3,0,2,3,1,2,0,52,2022_Mar_04_1211,listening_fmri,3.2.4,60.20021483749956,
0,parcelated_audio/33/33_24.ogg,,,,,,,,,0,0,0,0,0,0,0,0,0,0,0,0,,,,,,,,,,,,,0,0,0,0,0,23,23,23,,,,,,,,,,,,,,,,,,,,,,,,,,,,,,,,,,,,,,,,,,,,,,,,,,,,,,,,,,,,,,,,,,,,,,,,,,,,,,,,,,,,,,,,,,,,,,,,,,,,,243.67402155200034,249.93554495599983,,,,,030422,1,3,0,2,3,1,2,0,52,2022_Mar_04_1211,listening_fmri,3.2.4,60.20021483749956,
0,parcelated_audio/33/33_25.ogg,,,,,,,,,0,0,0,0,0,0,0,0,0,0,0,0,,,,,,,,,,,,,0,0,0,0,0,24,24,24,,,,,,,,,,,,,,,,,,,,,,,,,,,,,,,,,,,,,,,,,,,,,,,,,,,,,,,,,,,,,,,,,,,,,,,,,,,,,,,,,,,,,,,,,,,,,,,,,,,,,249.93634223299978,258.14027070500015,,,,,030422,1,3,0,2,3,1,2,0,52,2022_Mar_04_1211,listening_fmri,3.2.4,60.20021483749956,
0,parcelated_audio/33/33_26.ogg,,,,,,,,,0,0,0,0,0,0,0,0,0,0,0,0,,,,,,,,,,,,,0,0,0,0,0,25,25,25,,,,,,,,,,,,,,,,,,,,,,,,,,,,,,,,,,,,,,,,,,,,,,,,,,,,,,,,,,,,,,,,,,,,,,,,,,,,,,,,,,,,,,,,,,,,,,,,,,,,,258.14054058500005,265.2091838670003,,,,,030422,1,3,0,2,3,1,2,0,52,2022_Mar_04_1211,listening_fmri,3.2.4,60.20021483749956,
0,parcelated_audio/33/33_27.ogg,,,,,,,,,0,0,0,0,0,0,0,0,0,0,0,0,,,,,,,,,,,,,0,0,0,0,0,26,26,26,,,,,,,,,,,,,,,,,,,,,,,,,,,,,,,,,,,,,,,,,,,,,,,,,,,,,,,,,,,,,,,,,,,,,,,,,,,,,,,,,,,,,,,,,,,,,,,,,,,,,265.20945936499993,272.75521399900026,,,,,030422,1,3,0,2,3,1,2,0,52,2022_Mar_04_1211,listening_fmri,3.2.4,60.20021483749956,
0,parcelated_audio/33/33_28.ogg,,,,,,,,,0,0,0,0,0,0,0,0,0,0,0,0,,,,,,,,,,,,,0,0,0,0,0,27,27,27,,,,,,,,,,,,,,,,,,,,,,,,,,,,,,,,,,,,,,,,,,,,,,,,,,,,,,,,,,,,,,,,,,,,,,,,,,,,,,,,,,,,,,,,,,,,,,,,,,,,,272.7560092800004,278.4542223389999,,,,,030422,1,3,0,2,3,1,2,0,52,2022_Mar_04_1211,listening_fmri,3.2.4,60.20021483749956,
0,parcelated_audio/33/33_29.ogg,,,,,,,,,0,0,0,0,0,0,0,0,0,0,0,0,,,,,,,,,,,,,0,0,0,0,0,28,28,28,,,,,,,,,,,,,,,,,,,,,,,,,,,,,,,,,,,,,,,,,,,,,,,,,,,,,,,,,,,,,,,,,,,,,,,,,,,,,,,,,,,,,,,,,,,,,,,,,,,,,278.4544937090004,286.37906289200055,,,,,030422,1,3,0,2,3,1,2,0,52,2022_Mar_04_1211,listening_fmri,3.2.4,60.20021483749956,
0,parcelated_audio/33/33_30.ogg,,,,,,,,,0,0,0,0,0,0,0,0,0,0,0,0,,,,,,,,,,,,,0,0,0,0,0,29,29,29,,,,,,,,,,,,,,,,,,,,,,,,,,,,,,,,,,,,,,,,,,,,,,,,,,,,,,,,,,,,,,,,,,,,,,,,,,,,,,,,,,,,,,,,,,,,,,,,,,,,,286.3793391979998,301.3539128230004,,,,,030422,1,3,0,2,3,1,2,0,52,2022_Mar_04_1211,listening_fmri,3.2.4,60.20021483749956,
0,parcelated_audio/33/33_31.ogg,,,,,,,,,0,0,0,0,0,0,0,0,0,0,0,0,,,,,,,,,,,,,0,0,0,0,0,30,30,30,,,,,,,,,,,,,,,,,,,,,,,,,,,,,,,,,,,,,,,,,,,,,,,,,,,,,,,,,,,,,,,,,,,,,,,,,,,,,,,,,,,,,,,,,,,,,,,,,,,,,301.3543012420005,311.10680552400026,,,,,030422,1,3,0,2,3,1,2,0,52,2022_Mar_04_1211,listening_fmri,3.2.4,60.20021483749956,
0,parcelated_audio/33/33_32.ogg,,,,,,,,,0,0,0,0,0,0,0,0,0,0,0,0,,,,,,,,,,,,,0,0,0,0,0,31,31,31,,,,,,,,,,,,,,,,,,,,,,,,,,,,,,,,,,,,,,,,,,,,,,,,,,,,,,,,,,,,,,,,,,,,,,,,,,,,,,,,,,,,,,,,,,,,,,,,,,,,,311.10725480200017,316.7387831420001,,,,,030422,1,3,0,2,3,1,2,0,52,2022_Mar_04_1211,listening_fmri,3.2.4,60.20021483749956,
0,,,,,,,,,,0,0,0,0,0,0,0,0,0,0,0,0,,,,,,,,,,,,,0,0,0,0,,,,,,,,,,,,,,,,,,,,,,,,,,,,,,,,,,,,,,,,,,,,,,,,,,,,,,,,,,,,,,,,,,,,,,,,,,,,,,,,,,,,,,,,,,,,,,,,,,,,,,,,,,,,,,,030422,1,3,0,2,3,1,2,0,52,2022_Mar_04_1211,listening_fmri,3.2.4,60.20021483749956,
0,,,,,,,,,,0,0,0,0,0,0,0,0,0,0,0,0,,,,,,,,,,,,,,,,,,,,,,,,,,,,,,,,,,,,,,316.7391696710001,322.7434951760006,354.80189227899973,None,,,,,,,,,,,,,,,,,,,,,,,,,,,,,,,,,,,,,,,,,,,,,,,,,,,,,,,,,,,,,,,,,,,,,,,,,,,,,,,,,,360.8172871119996,None,360.8172871119996,None,030422,1,3,0,2,3,1,2,0,52,2022_Mar_04_1211,listening_fmri,3.2.4,60.20021483749956,
0,,,,,,,,,,0,0,0,0,0,0,0,0,,,,,,,,,,,,,,,,,,,,,,,,,,,,,,,,,,,,,,,,,,,,,,,,,,,,,,,,,,,,,,,,,,,,,,,,,,,,,,,,,,,,,,,,,,,,,,,,,,,,,,,,,,,,,,,,,,,,,,,,,,,,,,,,,,,030422,1,3,0,2,3,1,2,0,52,2022_Mar_04_1211,listening_fmri,3.2.4,60.20021483749956,
1,,,,,,,,,,0,0,0,0,0,1,1,1,0,0,0,0,0,0,0,0,0,0,0,0,,,,,,,,,,,,,,,,,,,,,,,,,,,,,,,,,,361.8179879290001,None,361.8179879290001,None,1,0.9154361020000579,361.8179879290001,None,361.8179879290001,None,362.7520049049999,None,1,0.8464976049999677,362.7520049049999,None,362.7520049049999,None,363.6348540460003,None,363.6348540460003,None,363.6348540460003,None,6,1.2586475699999937,363.6348540460003,None,364.9184063700004,None,6,1.471992083999794,364.9184063700004,None,364.9184063700004,None,366.5018709699998,None,366.5018709699998,None,366.5018709699998,None,366.5018709699998,None,366.5018709699998,None,366.5018709699998,None,366.5018709699998,None,None,366.5018709699998,None,,,,,,,,,,,,,,,,,,,,,,,,,,,,,,,,,030422,1,3,0,2,3,1,2,0,52,2022_Mar_04_1211,listening_fmri,3.2.4,60.20021483749956,
1,,,,,,,,,,0,0,0,0,0,1,1,1,0,0,0,0,0,0,0,0,,,,,,,,,,,,,,,,,,,,,,,,,,,,,,,,,,,,,,,,,,,,,,,,,,,,,,,,,,,,,,,,,,,,,,,,,,,,,,,,,,,,,,,,,,,385.86708177200035,None,1,2.076420735999818,385.86708177200035,None,385.86708177200035,None,387.98476175999986,None,387.98476175999986,None,387.98476175999986,None,1,0.4407571049996477,387.98476175999986,None,,,,,,,,,,,,,,,030422,1,3,0,2,3,1,2,0,52,2022_Mar_04_1211,listening_fmri,3.2.4,60.20021483749956,
1,parcelated_audio/13/13_1.ogg,,,,,,,,,0,0,0,0,0,1,1,1,0,0,0,0,,,,,,,,,,,,,0,0,0,0,0,0,0,0,,,,,,,,,,,,,,,,,,,,,,,,,,,,,,,,,,,,,,,,,,,,,,,,,,,,,,,,,,,,,,,,,,,,,,,,,,,,,,,,,,,,,,,,,,,,,388.45094881800014,None,1,0.8245520489999763,388.45094881800014,None,351.23823311700016,354.24445555200055,354.2526315390005,365.9504909699999,,,,,030422,1,3,0,2,3,1,2,0,52,2022_Mar_04_1211,listening_fmri,3.2.4,60.20021483749956,
1,parcelated_audio/13/13_2.ogg,,,,,,,,,0,0,0,0,0,1,1,1,0,0,0,0,,,,,,,,,,,,,0,0,0,0,0,1,1,1,,,,,,,,,,,,,,,,,,,,,,,,,,,,,,,,,,,,,,,,,,,,,,,,,,,,,,,,,,,,,,,,,,,,,,,,,,,,,,,,,,,,,,,,,,,,,,,,,,,,,365.95122025300043,372.0738952370002,,,,,030422,1,3,0,2,3,1,2,0,52,2022_Mar_04_1211,listening_fmri,3.2.4,60.20021483749956,
1,parcelated_audio/13/13_3.ogg,,,,,,,,,0,0,0,0,0,1,1,1,0,0,0,0,,,,,,,,,,,,,0,0,0,0,0,2,2,2,,,,,,,,,,,,,,,,,,,,,,,,,,,,,,,,,,,,,,,,,,,,,,,,,,,,,,,,,,,,,,,,,,,,,,,,,,,,,,,,,,,,,,,,,,,,,,,,,,,,,372.0741830670004,380.4404639710001,,,,,030422,1,3,0,2,3,1,2,0,52,2022_Mar_04_1211,listening_fmri,3.2.4,60.20021483749956,
1,parcelated_audio/13/13_4.ogg,,,,,,,,,0,0,0,0,0,1,1,1,0,0,0,0,,,,,,,,,,,,,0,0,0,0,0,3,3,3,,,,,,,,,,,,,,,,,,,,,,,,,,,,,,,,,,,,,,,,,,,,,,,,,,,,,,,,,,,,,,,,,,,,,,,,,,,,,,,,,,,,,,,,,,,,,,,,,,,,,380.440884699,390.6911132739997,,,,,030422,1,3,0,2,3,1,2,0,52,2022_Mar_04_1211,listening_fmri,3.2.4,60.20021483749956,
1,parcelated_audio/13/13_5.ogg,,,,,,,,,0,0,0,0,0,1,1,1,0,0,0,0,,,,,,,,,,,,,0,0,0,0,0,4,4,4,,,,,,,,,,,,,,,,,,,,,,,,,,,,,,,,,,,,,,,,,,,,,,,,,,,,,,,,,,,,,,,,,,,,,,,,,,,,,,,,,,,,,,,,,,,,,,,,,,,,,390.6913917239999,396.74285123000027,,,,,030422,1,3,0,2,3,1,2,0,52,2022_Mar_04_1211,listening_fmri,3.2.4,60.20021483749956,
1,parcelated_audio/13/13_6.ogg,,,,,,,,,0,0,0,0,0,1,1,1,0,0,0,0,,,,,,,,,,,,,0,0,0,0,0,5,5,5,,,,,,,,,,,,,,,,,,,,,,,,,,,,,,,,,,,,,,,,,,,,,,,,,,,,,,,,,,,,,,,,,,,,,,,,,,,,,,,,,,,,,,,,,,,,,,,,,,,,,396.74312934499994,401.46078459,,,,,030422,1,3,0,2,3,1,2,0,52,2022_Mar_04_1211,listening_fmri,3.2.4,60.20021483749956,
1,parcelated_audio/13/13_7.ogg,,,,,,,,,0,0,0,0,0,1,1,1,0,0,0,0,,,,,,,,,,,,,0,0,0,0,0,6,6,6,,,,,,,,,,,,,,,,,,,,,,,,,,,,,,,,,,,,,,,,,,,,,,,,,,,,,,,,,,,,,,,,,,,,,,,,,,,,,,,,,,,,,,,,,,,,,,,,,,,,,401.4610612260003,409.1224605240004,,,,,030422,1,3,0,2,3,1,2,0,52,2022_Mar_04_1211,listening_fmri,3.2.4,60.20021483749956,
1,parcelated_audio/13/13_8.ogg,,,,,,,,,0,0,0,0,0,1,1,1,0,0,0,0,,,,,,,,,,,,,0,0,0,0,0,7,7,7,,,,,,,,,,,,,,,,,,,,,,,,,,,,,,,,,,,,,,,,,,,,,,,,,,,,,,,,,,,,,,,,,,,,,,,,,,,,,,,,,,,,,,,,,,,,,,,,,,,,,409.1229186090004,414.42578122600025,,,,,030422,1,3,0,2,3,1,2,0,52,2022_Mar_04_1211,listening_fmri,3.2.4,60.20021483749956,
1,parcelated_audio/13/13_9.ogg,,,,,,,,,0,0,0,0,0,1,1,1,0,0,0,0,,,,,,,,,,,,,0,0,0,0,0,8,8,8,,,,,,,,,,,,,,,,,,,,,,,,,,,,,,,,,,,,,,,,,,,,,,,,,,,,,,,,,,,,,,,,,,,,,,,,,,,,,,,,,,,,,,,,,,,,,,,,,,,,,414.4260589450005,419.03991498600044,,,,,030422,1,3,0,2,3,1,2,0,52,2022_Mar_04_1211,listening_fmri,3.2.4,60.20021483749956,
1,parcelated_audio/13/13_10.ogg,,,,,,,,,0,0,0,0,0,1,1,1,0,0,0,0,,,,,,,,,,,,,0,0,0,0,0,9,9,9,,,,,,,,,,,,,,,,,,,,,,,,,,,,,,,,,,,,,,,,,,,,,,,,,,,,,,,,,,,,,,,,,,,,,,,,,,,,,,,,,,,,,,,,,,,,,,,,,,,,,419.04019055699973,424.8506339639998,,,,,030422,1,3,0,2,3,1,2,0,52,2022_Mar_04_1211,listening_fmri,3.2.4,60.20021483749956,
1,parcelated_audio/13/13_11.ogg,,,,,,,,,0,0,0,0,0,1,1,1,0,0,0,0,,,,,,,,,,,,,0,0,0,0,0,10,10,10,,,,,,,,,,,,,,,,,,,,,,,,,,,,,,,,,,,,,,,,,,,,,,,,,,,,,,,,,,,,,,,,,,,,,,,,,,,,,,,,,,,,,,,,,,,,,,,,,,,,,424.85108003500045,429.37754513799973,,,,,030422,1,3,0,2,3,1,2,0,52,2022_Mar_04_1211,listening_fmri,3.2.4,60.20021483749956,
1,parcelated_audio/13/13_12.ogg,,,,,,,,,0,0,0,0,0,1,1,1,0,0,0,0,,,,,,,,,,,,,0,0,0,0,0,11,11,11,,,,,,,,,,,,,,,,,,,,,,,,,,,,,,,,,,,,,,,,,,,,,,,,,,,,,,,,,,,,,,,,,,,,,,,,,,,,,,,,,,,,,,,,,,,,,,,,,,,,,429.3778908989998,437.85036396099986,,,,,030422,1,3,0,2,3,1,2,0,52,2022_Mar_04_1211,listening_fmri,3.2.4,60.20021483749956,
1,parcelated_audio/13/13_13.ogg,,,,,,,,,0,0,0,0,0,1,1,1,0,0,0,0,,,,,,,,,,,,,0,0,0,0,0,12,12,12,,,,,,,,,,,,,,,,,,,,,,,,,,,,,,,,,,,,,,,,,,,,,,,,,,,,,,,,,,,,,,,,,,,,,,,,,,,,,,,,,,,,,,,,,,,,,,,,,,,,,437.8506365100002,447.7654537360004,,,,,030422,1,3,0,2,3,1,2,0,52,2022_Mar_04_1211,listening_fmri,3.2.4,60.20021483749956,
1,parcelated_audio/13/13_14.ogg,,,,,,,,,0,0,0,0,0,1,1,1,0,0,0,0,,,,,,,,,,,,,0,0,0,0,0,13,13,13,,,,,,,,,,,,,,,,,,,,,,,,,,,,,,,,,,,,,,,,,,,,,,,,,,,,,,,,,,,,,,,,,,,,,,,,,,,,,,,,,,,,,,,,,,,,,,,,,,,,,447.765767289,455.9406780119998,,,,,030422,1,3,0,2,3,1,2,0,52,2022_Mar_04_1211,listening_fmri,3.2.4,60.20021483749956,
1,parcelated_audio/13/13_15.ogg,,,,,,,,,0,0,0,0,0,1,1,1,0,0,0,0,,,,,,,,,,,,,0,0,0,0,0,14,14,14,,,,,,,,,,,,,,,,,,,,,,,,,,,,,,,,,,,,,,,,,,,,,,,,,,,,,,,,,,,,,,,,,,,,,,,,,,,,,,,,,,,,,,,,,,,,,,,,,,,,,455.9410090090005,464.617906681,,,,,030422,1,3,0,2,3,1,2,0,52,2022_Mar_04_1211,listening_fmri,3.2.4,60.20021483749956,
1,parcelated_audio/13/13_16.ogg,,,,,,,,,0,0,0,0,0,1,1,1,0,0,0,0,,,,,,,,,,,,,0,0,0,0,0,15,15,15,,,,,,,,,,,,,,,,,,,,,,,,,,,,,,,,,,,,,,,,,,,,,,,,,,,,,,,,,,,,,,,,,,,,,,,,,,,,,,,,,,,,,,,,,,,,,,,,,,,,,464.61818429899995,466.95881903400004,,,,,030422,1,3,0,2,3,1,2,0,52,2022_Mar_04_1211,listening_fmri,3.2.4,60.20021483749956,
1,parcelated_audio/13/13_17.ogg,,,,,,,,,0,0,0,0,0,1,1,1,0,0,0,0,,,,,,,,,,,,,0,0,0,0,0,16,16,16,,,,,,,,,,,,,,,,,,,,,,,,,,,,,,,,,,,,,,,,,,,,,,,,,,,,,,,,,,,,,,,,,,,,,,,,,,,,,,,,,,,,,,,,,,,,,,,,,,,,,466.9591435250004,474.54207829700044,,,,,030422,1,3,0,2,3,1,2,0,52,2022_Mar_04_1211,listening_fmri,3.2.4,60.20021483749956,
1,parcelated_audio/13/13_18.ogg,,,,,,,,,0,0,0,0,0,1,1,1,0,0,0,0,,,,,,,,,,,,,0,0,0,0,0,17,17,17,,,,,,,,,,,,,,,,,,,,,,,,,,,,,,,,,,,,,,,,,,,,,,,,,,,,,,,,,,,,,,,,,,,,,,,,,,,,,,,,,,,,,,,,,,,,,,,,,,,,,474.5423710690002,484.73977849899984,,,,,030422,1,3,0,2,3,1,2,0,52,2022_Mar_04_1211,listening_fmri,3.2.4,60.20021483749956,
1,parcelated_audio/13/13_19.ogg,,,,,,,,,0,0,0,0,0,1,1,1,0,0,0,0,,,,,,,,,,,,,0,0,0,0,0,18,18,18,,,,,,,,,,,,,,,,,,,,,,,,,,,,,,,,,,,,,,,,,,,,,,,,,,,,,,,,,,,,,,,,,,,,,,,,,,,,,,,,,,,,,,,,,,,,,,,,,,,,,484.7400545729997,492.7082653140005,,,,,030422,1,3,0,2,3,1,2,0,52,2022_Mar_04_1211,listening_fmri,3.2.4,60.20021483749956,
1,parcelated_audio/13/13_20.ogg,,,,,,,,,0,0,0,0,0,1,1,1,0,0,0,0,,,,,,,,,,,,,0,0,0,0,0,19,19,19,,,,,,,,,,,,,,,,,,,,,,,,,,,,,,,,,,,,,,,,,,,,,,,,,,,,,,,,,,,,,,,,,,,,,,,,,,,,,,,,,,,,,,,,,,,,,,,,,,,,,492.7085499630002,497.8751958540006,,,,,030422,1,3,0,2,3,1,2,0,52,2022_Mar_04_1211,listening_fmri,3.2.4,60.20021483749956,
1,parcelated_audio/13/13_21.ogg,,,,,,,,,0,0,0,0,0,1,1,1,0,0,0,0,,,,,,,,,,,,,0,0,0,0,0,20,20,20,,,,,,,,,,,,,,,,,,,,,,,,,,,,,,,,,,,,,,,,,,,,,,,,,,,,,,,,,,,,,,,,,,,,,,,,,,,,,,,,,,,,,,,,,,,,,,,,,,,,,497.87555803899977,501.19324416700056,,,,,030422,1,3,0,2,3,1,2,0,52,2022_Mar_04_1211,listening_fmri,3.2.4,60.20021483749956,
1,parcelated_audio/13/13_22.ogg,,,,,,,,,0,0,0,0,0,1,1,1,0,0,0,0,,,,,,,,,,,,,0,0,0,0,0,21,21,21,,,,,,,,,,,,,,,,,,,,,,,,,,,,,,,,,,,,,,,,,,,,,,,,,,,,,,,,,,,,,,,,,,,,,,,,,,,,,,,,,,,,,,,,,,,,,,,,,,,,,501.1935068700004,504.6083559079998,,,,,030422,1,3,0,2,3,1,2,0,52,2022_Mar_04_1211,listening_fmri,3.2.4,60.20021483749956,
1,parcelated_audio/13/13_23.ogg,,,,,,,,,0,0,0,0,0,1,1,1,0,0,0,0,,,,,,,,,,,,,0,0,0,0,0,22,22,22,,,,,,,,,,,,,,,,,,,,,,,,,,,,,,,,,,,,,,,,,,,,,,,,,,,,,,,,,,,,,,,,,,,,,,,,,,,,,,,,,,,,,,,,,,,,,,,,,,,,,504.60863077500017,509.87071649100017,,,,,030422,1,3,0,2,3,1,2,0,52,2022_Mar_04_1211,listening_fmri,3.2.4,60.20021483749956,
1,parcelated_audio/13/13_24.ogg,,,,,,,,,0,0,0,0,0,1,1,1,0,0,0,0,,,,,,,,,,,,,0,0,0,0,0,23,23,23,,,,,,,,,,,,,,,,,,,,,,,,,,,,,,,,,,,,,,,,,,,,,,,,,,,,,,,,,,,,,,,,,,,,,,,,,,,,,,,,,,,,,,,,,,,,,,,,,,,,,509.87099545100045,519.6037708029999,,,,,030422,1,3,0,2,3,1,2,0,52,2022_Mar_04_1211,listening_fmri,3.2.4,60.20021483749956,
1,parcelated_audio/13/13_25.ogg,,,,,,,,,0,0,0,0,0,1,1,1,0,0,0,0,,,,,,,,,,,,,0,0,0,0,0,24,24,24,,,,,,,,,,,,,,,,,,,,,,,,,,,,,,,,,,,,,,,,,,,,,,,,,,,,,,,,,,,,,,,,,,,,,,,,,,,,,,,,,,,,,,,,,,,,,,,,,,,,,519.6041230649998,526.8897859509998,,,,,030422,1,3,0,2,3,1,2,0,52,2022_Mar_04_1211,listening_fmri,3.2.4,60.20021483749956,
1,parcelated_audio/13/13_26.ogg,,,,,,,,,0,0,0,0,0,1,1,1,0,0,0,0,,,,,,,,,,,,,0,0,0,0,0,25,25,25,,,,,,,,,,,,,,,,,,,,,,,,,,,,,,,,,,,,,,,,,,,,,,,,,,,,,,,,,,,,,,,,,,,,,,,,,,,,,,,,,,,,,,,,,,,,,,,,,,,,,526.8900637819997,533.0902714470003,,,,,030422,1,3,0,2,3,1,2,0,52,2022_Mar_04_1211,listening_fmri,3.2.4,60.20021483749956,
1,parcelated_audio/13/13_27.ogg,,,,,,,,,0,0,0,0,0,1,1,1,0,0,0,0,,,,,,,,,,,,,0,0,0,0,0,26,26,26,,,,,,,,,,,,,,,,,,,,,,,,,,,,,,,,,,,,,,,,,,,,,,,,,,,,,,,,,,,,,,,,,,,,,,,,,,,,,,,,,,,,,,,,,,,,,,,,,,,,,533.0927544220003,538.3330444190005,,,,,030422,1,3,0,2,3,1,2,0,52,2022_Mar_04_1211,listening_fmri,3.2.4,60.20021483749956,
1,parcelated_audio/13/13_28.ogg,,,,,,,,,0,0,0,0,0,1,1,1,0,0,0,0,,,,,,,,,,,,,0,0,0,0,0,27,27,27,,,,,,,,,,,,,,,,,,,,,,,,,,,,,,,,,,,,,,,,,,,,,,,,,,,,,,,,,,,,,,,,,,,,,,,,,,,,,,,,,,,,,,,,,,,,,,,,,,,,,538.3333180159998,543.7731089509998,,,,,030422,1,3,0,2,3,1,2,0,52,2022_Mar_04_1211,listening_fmri,3.2.4,60.20021483749956,
1,parcelated_audio/13/13_29.ogg,,,,,,,,,0,0,0,0,0,1,1,1,0,0,0,0,,,,,,,,,,,,,0,0,0,0,0,28,28,28,,,,,,,,,,,,,,,,,,,,,,,,,,,,,,,,,,,,,,,,,,,,,,,,,,,,,,,,,,,,,,,,,,,,,,,,,,,,,,,,,,,,,,,,,,,,,,,,,,,,,543.7733860819999,547.0885193240001,,,,,030422,1,3,0,2,3,1,2,0,52,2022_Mar_04_1211,listening_fmri,3.2.4,60.20021483749956,
1,parcelated_audio/13/13_30.ogg,,,,,,,,,0,0,0,0,0,1,1,1,0,0,0,0,,,,,,,,,,,,,0,0,0,0,0,29,29,29,,,,,,,,,,,,,,,,,,,,,,,,,,,,,,,,,,,,,,,,,,,,,,,,,,,,,,,,,,,,,,,,,,,,,,,,,,,,,,,,,,,,,,,,,,,,,,,,,,,,,547.0888514500002,550.5566800309998,,,,,030422,1,3,0,2,3,1,2,0,52,2022_Mar_04_1211,listening_fmri,3.2.4,60.20021483749956,
1,parcelated_audio/13/13_31.ogg,,,,,,,,,0,0,0,0,0,1,1,1,0,0,0,0,,,,,,,,,,,,,0,0,0,0,0,30,30,30,,,,,,,,,,,,,,,,,,,,,,,,,,,,,,,,,,,,,,,,,,,,,,,,,,,,,,,,,,,,,,,,,,,,,,,,,,,,,,,,,,,,,,,,,,,,,,,,,,,,,550.5574396170005,556.5231005920004,,,,,030422,1,3,0,2,3,1,2,0,52,2022_Mar_04_1211,listening_fmri,3.2.4,60.20021483749956,
1,,,,,,,,,,0,0,0,0,0,1,1,1,0,0,0,0,,,,,,,,,,,,,0,0,0,0,,,,,,,,,,,,,,,,,,,,,,,,,,,,,,,,,,,,,,,,,,,,,,,,,,,,,,,,,,,,,,,,,,,,,,,,,,,,,,,,,,,,,,,,,,,,,,,,,,,,,,,,,,,,,,,030422,1,3,0,2,3,1,2,0,52,2022_Mar_04_1211,listening_fmri,3.2.4,60.20021483749956,
,,,,,,,,,,,,,,,,,,,,,,,,,,,,,,,,,,,,,,,,,,,,,,,,,,,,,,,,,,,556.5234615580002,562.5107295730004,594.5847680670004,None,,,,,,,,,,,,,,,,,,,,,,,,,,,,,,,,,,,,,,,,,,,,,,,,,,,,,,,,,,,,,,,,,,,,,,,,,,,,,,,,,,600.5850226829998,None,600.5850226829998,None,,,,,,,,,,,,,,,
﻿count,audio,trials_14.thisRepN,trials_14.thisTrialN,trials_14.thisN,trials_14.thisIndex,trials_3.thisRepN,trials_3.thisTrialN,trials_3.thisN,trials_3.thisIndex,trials_4.thisRepN,trials_4.thisTrialN,trials_4.thisN,trials_4.thisIndex,trials_6.thisRepN,trials_6.thisTrialN,trials_6.thisN,trials_6.thisIndex,trials_9.thisRepN,trials_9.thisTrialN,trials_9.thisN,trials_9.thisIndex,trials_10.thisRepN,trials_10.thisTrialN,trials_10.thisN,trials_10.thisIndex,trials_11.thisRepN,trials_11.thisTrialN,trials_11.thisN,trials_11.thisIndex,trials_12.thisRepN,trials_12.thisTrialN,trials_12.thisN,trials_12.thisIndex,trials_25.thisRepN,trials_25.thisTrialN,trials_25.thisN,trials_25.thisIndex,trials_15.thisRepN,trials_15.thisTrialN,trials_15.thisN,trials_15.thisIndex,trials_26.thisRepN,trials_26.thisTrialN,trials_26.thisN,trials_26.thisIndex,story_list_block2,action_list_block2,textTrigger.started,textTrigger.stopped,getTrigger.keys,getTrigger.rt,getTrigger.started,getTrigger.stopped,triggerTime,text_76.started,text_76.stopped,text_77.started,text_77.stopped,startWait,endWait,image_23.started,image_23.stopped,text_55.started,text_55.stopped,text_56.started,text_56.stopped,key_resp_2.keys,key_resp_2.rt,key_resp_2.started,key_resp_2.stopped,text_82.started,text_82.stopped,text_57.started,text_57.stopped,key_resp_17.keys,key_resp_17.rt,key_resp_17.started,key_resp_17.stopped,text_83.started,text_83.stopped,text_60.started,text_60.stopped,image_2.started,image_2.stopped,text_58.started,text_58.stopped,key_resp_23.keys,key_resp_23.rt,key_resp_23.started,key_resp_23.stopped,text_62.started,text_62.stopped,key_resp_18.keys,key_resp_18.rt,key_resp_18.started,key_resp_18.stopped,text_84.started,text_84.stopped,question1_2.started,question1_2.stopped,question2_2.started,question2_2.stopped,question3_2.started,question3_2.stopped,question4_2.started,question4_2.stopped,question5_2.started,question5_2.stopped,question6_2.started,question6_2.stopped,image_15.started,image_15.stopped,key_resp.keys,key_resp.started,key_resp.stopped,text_59.started,text_59.stopped,key_resp_19.keys,key_resp_19.rt,key_resp_19.started,key_resp_19.stopped,text_85.started,text_85.stopped,text_61.started,text_61.stopped,image_17.started,image_17.stopped,text_63.started,text_63.stopped,key_resp_24.keys,key_resp_24.rt,key_resp_24.started,key_resp_24.stopped,text_64.started,text_64.stopped,key_resp_20.keys,key_resp_20.rt,key_resp_20.started,key_resp_20.stopped,storyImage_StartTime,storyImage_EndTime,clip_StartTime,clip_EndTime,text_67.started,text_67.stopped,text_68.started,text_68.stopped,participant,sA,sB,lA,lB,block_struct,play_stories,block,behavioral,random_seed,date,expName,psychopyVersion,frameRate,
0,,,,,,,,,,0,0,0,0,0,0,0,0,0,0,0,0,0,0,0,0,0,0,0,0,,,,,,,,,,,,,,,,,[33 13 23 44 24 43 34 14],[2 2 3 1 1 3 4 4],14.367595744999562,None,equal,23.673705662999964,14.367595744999562,None,23.708878114000072,14.367595744999562,None,14.367595744999562,None,0.0003822859998763306,5.994273909000185,38.06710751100036,None,44.07276155999989,None,44.07276155999989,None,1,1.190727292999327,44.07276155999989,None,44.07276155999989,None,45.2839390299996,None,1,0.8465562930005035,45.2839390299996,None,45.2839390299996,None,46.172496109999884,None,46.172496109999884,None,46.172496109999884,None,1,0.8600444950006931,46.172496109999884,None,47.051153188999706,None,1,0.876335100999313,47.051153188999706,None,47.051153188999706,None,48.033998863000306,None,48.033998863000306,None,48.033998863000306,None,48.033998863000306,None,48.033998863000306,None,48.033998863000306,None,48.033998863000306,None,None,48.033998863000306,None,,,,,,,,,,,,,,,,,,,,,,,,,,,,,,,,,030422,1,3,0,2,3,1,2,0,52,2022_Mar_04_1211,listening_fmri,3.2.4,60.20021483749956,
0,,,,,,,,,,0,0,0,0,0,0,0,0,0,0,0,0,0,0,0,0,,,,,,,,,,,,,,,,,,,,,,,,,,,,,,,,,,,,,,,,,,,,,,,,,,,,,,,,,,,,,,,,,,,,,,,,,,,,,,,,,,,,,,,,,,,65.28405733900036,None,1,0.7083244300001752,65.28405733900036,None,65.28405733900036,None,66.03499374500007,None,66.03499374500007,None,66.03499374500007,None,1,0.47549475000050734,66.03499374500007,None,,,,,,,,,,,,,,,030422,1,3,0,2,3,1,2,0,52,2022_Mar_04_1211,listening_fmri,3.2.4,60.20021483749956,
0,parcelated_audio/33/33_1.ogg,,,,,,,,,0,0,0,0,0,0,0,0,0,0,0,0,,,,,,,,,,,,,0,0,0,0,0,0,0,0,,,,,,,,,,,,,,,,,,,,,,,,,,,,,,,,,,,,,,,,,,,,,,,,,,,,,,,,,,,,,,,,,,,,,,,,,,,,,,,,,,,,,,,,,,,,,66.5335008359998,None,1,1.1219568679998702,66.5335008359998,None,29.63333443600004,32.64390460899995,32.64886707200003,42.63101109699983,,,,,030422,1,3,0,2,3,1,2,0,52,2022_Mar_04_1211,listening_fmri,3.2.4,60.20021483749956,
0,parcelated_audio/33/33_2.ogg,,,,,,,,,0,0,0,0,0,0,0,0,0,0,0,0,,,,,,,,,,,,,0,0,0,0,0,1,1,1,,,,,,,,,,,,,,,,,,,,,,,,,,,,,,,,,,,,,,,,,,,,,,,,,,,,,,,,,,,,,,,,,,,,,,,,,,,,,,,,,,,,,,,,,,,,,,,,,,,,,42.63134474399976,53.07686126800036,,,,,030422,1,3,0,2,3,1,2,0,52,2022_Mar_04_1211,listening_fmri,3.2.4,60.20021483749956,
0,parcelated_audio/33/33_3.ogg,,,,,,,,,0,0,0,0,0,0,0,0,0,0,0,0,,,,,,,,,,,,,0,0,0,0,0,2,2,2,,,,,,,,,,,,,,,,,,,,,,,,,,,,,,,,,,,,,,,,,,,,,,,,,,,,,,,,,,,,,,,,,,,,,,,,,,,,,,,,,,,,,,,,,,,,,,,,,,,,,53.077139736999925,59.625988851999864,,,,,030422,1,3,0,2,3,1,2,0,52,2022_Mar_04_1211,listening_fmri,3.2.4,60.20021483749956,
0,parcelated_audio/33/33_4.ogg,,,,,,,,,0,0,0,0,0,0,0,0,0,0,0,0,,,,,,,,,,,,,0,0,0,0,0,3,3,3,,,,,,,,,,,,,,,,,,,,,,,,,,,,,,,,,,,,,,,,,,,,,,,,,,,,,,,,,,,,,,,,,,,,,,,,,,,,,,,,,,,,,,,,,,,,,,,,,,,,,59.62626248900051,63.223520436999934,,,,,030422,1,3,0,2,3,1,2,0,52,2022_Mar_04_1211,listening_fmri,3.2.4,60.20021483749956,
0,parcelated_audio/33/33_5.ogg,,,,,,,,,0,0,0,0,0,0,0,0,0,0,0,0,,,,,,,,,,,,,0,0,0,0,0,4,4,4,,,,,,,,,,,,,,,,,,,,,,,,,,,,,,,,,,,,,,,,,,,,,,,,,,,,,,,,,,,,,,,,,,,,,,,,,,,,,,,,,,,,,,,,,,,,,,,,,,,,,63.22413297700041,74.48742183700051,,,,,030422,1,3,0,2,3,1,2,0,52,2022_Mar_04_1211,listening_fmri,3.2.4,60.20021483749956,
0,parcelated_audio/33/33_6.ogg,,,,,,,,,0,0,0,0,0,0,0,0,0,0,0,0,,,,,,,,,,,,,0,0,0,0,0,5,5,5,,,,,,,,,,,,,,,,,,,,,,,,,,,,,,,,,,,,,,,,,,,,,,,,,,,,,,,,,,,,,,,,,,,,,,,,,,,,,,,,,,,,,,,,,,,,,,,,,,,,,74.48769714900027,86.19088608400034,,,,,030422,1,3,0,2,3,1,2,0,52,2022_Mar_04_1211,listening_fmri,3.2.4,60.20021483749956,
0,parcelated_audio/33/33_7.ogg,,,,,,,,,0,0,0,0,0,0,0,0,0,0,0,0,,,,,,,,,,,,,0,0,0,0,0,6,6,6,,,,,,,,,,,,,,,,,,,,,,,,,,,,,,,,,,,,,,,,,,,,,,,,,,,,,,,,,,,,,,,,,,,,,,,,,,,,,,,,,,,,,,,,,,,,,,,,,,,,,86.19119200200021,100.73799408400009,,,,,030422,1,3,0,2,3,1,2,0,52,2022_Mar_04_1211,listening_fmri,3.2.4,60.20021483749956,
0,parcelated_audio/33/33_8.ogg,,,,,,,,,0,0,0,0,0,0,0,0,0,0,0,0,,,,,,,,,,,,,0,0,0,0,0,7,7,7,,,,,,,,,,,,,,,,,,,,,,,,,,,,,,,,,,,,,,,,,,,,,,,,,,,,,,,,,,,,,,,,,,,,,,,,,,,,,,,,,,,,,,,,,,,,,,,,,,,,,100.73826539899983,106.89272379500017,,,,,030422,1,3,0,2,3,1,2,0,52,2022_Mar_04_1211,listening_fmri,3.2.4,60.20021483749956,
0,parcelated_audio/33/33_9.ogg,,,,,,,,,0,0,0,0,0,0,0,0,0,0,0,0,,,,,,,,,,,,,0,0,0,0,0,8,8,8,,,,,,,,,,,,,,,,,,,,,,,,,,,,,,,,,,,,,,,,,,,,,,,,,,,,,,,,,,,,,,,,,,,,,,,,,,,,,,,,,,,,,,,,,,,,,,,,,,,,,106.89306737600054,110.60705949299972,,,,,030422,1,3,0,2,3,1,2,0,52,2022_Mar_04_1211,listening_fmri,3.2.4,60.20021483749956,
0,parcelated_audio/33/33_10.ogg,,,,,,,,,0,0,0,0,0,0,0,0,0,0,0,0,,,,,,,,,,,,,0,0,0,0,0,9,9,9,,,,,,,,,,,,,,,,,,,,,,,,,,,,,,,,,,,,,,,,,,,,,,,,,,,,,,,,,,,,,,,,,,,,,,,,,,,,,,,,,,,,,,,,,,,,,,,,,,,,,110.60736353900029,115.97743623800034,,,,,030422,1,3,0,2,3,1,2,0,52,2022_Mar_04_1211,listening_fmri,3.2.4,60.20021483749956,
0,parcelated_audio/33/33_11.ogg,,,,,,,,,0,0,0,0,0,0,0,0,0,0,0,0,,,,,,,,,,,,,0,0,0,0,0,10,10,10,,,,,,,,,,,,,,,,,,,,,,,,,,,,,,,,,,,,,,,,,,,,,,,,,,,,,,,,,,,,,,,,,,,,,,,,,,,,,,,,,,,,,,,,,,,,,,,,,,,,,115.9777153820005,130.40652759600016,,,,,030422,1,3,0,2,3,1,2,0,52,2022_Mar_04_1211,listening_fmri,3.2.4,60.20021483749956,
0,parcelated_audio/33/33_12.ogg,,,,,,,,,0,0,0,0,0,0,0,0,0,0,0,0,,,,,,,,,,,,,0,0,0,0,0,11,11,11,,,,,,,,,,,,,,,,,,,,,,,,,,,,,,,,,,,,,,,,,,,,,,,,,,,,,,,,,,,,,,,,,,,,,,,,,,,,,,,,,,,,,,,,,,,,,,,,,,,,,130.40693463800017,136.52791602199977,,,,,030422,1,3,0,2,3,1,2,0,52,2022_Mar_04_1211,listening_fmri,3.2.4,60.20021483749956,
0,parcelated_audio/33/33_13.ogg,,,,,,,,,0,0,0,0,0,0,0,0,0,0,0,0,,,,,,,,,,,,,0,0,0,0,0,12,12,12,,,,,,,,,,,,,,,,,,,,,,,,,,,,,,,,,,,,,,,,,,,,,,,,,,,,,,,,,,,,,,,,,,,,,,,,,,,,,,,,,,,,,,,,,,,,,,,,,,,,,136.5282171529998,143.93459709699982,,,,,030422,1,3,0,2,3,1,2,0,52,2022_Mar_04_1211,listening_fmri,3.2.4,60.20021483749956,
0,parcelated_audio/33/33_14.ogg,,,,,,,,,0,0,0,0,0,0,0,0,0,0,0,0,,,,,,,,,,,,,0,0,0,0,0,13,13,13,,,,,,,,,,,,,,,,,,,,,,,,,,,,,,,,,,,,,,,,,,,,,,,,,,,,,,,,,,,,,,,,,,,,,,,,,,,,,,,,,,,,,,,,,,,,,,,,,,,,,143.93494860900046,156.37407476099997,,,,,030422,1,3,0,2,3,1,2,0,52,2022_Mar_04_1211,listening_fmri,3.2.4,60.20021483749956,
0,parcelated_audio/33/33_15.ogg,,,,,,,,,0,0,0,0,0,0,0,0,0,0,0,0,,,,,,,,,,,,,0,0,0,0,0,14,14,14,,,,,,,,,,,,,,,,,,,,,,,,,,,,,,,,,,,,,,,,,,,,,,,,,,,,,,,,,,,,,,,,,,,,,,,,,,,,,,,,,,,,,,,,,,,,,,,,,,,,,156.37435186099992,174.92098839899973,,,,,030422,1,3,0,2,3,1,2,0,52,2022_Mar_04_1211,listening_fmri,3.2.4,60.20021483749956,
0,parcelated_audio/33/33_16.ogg,,,,,,,,,0,0,0,0,0,0,0,0,0,0,0,0,,,,,,,,,,,,,0,0,0,0,0,15,15,15,,,,,,,,,,,,,,,,,,,,,,,,,,,,,,,,,,,,,,,,,,,,,,,,,,,,,,,,,,,,,,,,,,,,,,,,,,,,,,,,,,,,,,,,,,,,,,,,,,,,,174.921268004,187.15909436000038,,,,,030422,1,3,0,2,3,1,2,0,52,2022_Mar_04_1211,listening_fmri,3.2.4,60.20021483749956,
0,parcelated_audio/33/33_17.ogg,,,,,,,,,0,0,0,0,0,0,0,0,0,0,0,0,,,,,,,,,,,,,0,0,0,0,0,16,16,16,,,,,,,,,,,,,,,,,,,,,,,,,,,,,,,,,,,,,,,,,,,,,,,,,,,,,,,,,,,,,,,,,,,,,,,,,,,,,,,,,,,,,,,,,,,,,,,,,,,,,187.1593686670003,198.39713919899987,,,,,030422,1,3,0,2,3,1,2,0,52,2022_Mar_04_1211,listening_fmri,3.2.4,60.20021483749956,
0,parcelated_audio/33/33_18.ogg,,,,,,,,,0,0,0,0,0,0,0,0,0,0,0,0,,,,,,,,,,,,,0,0,0,0,0,17,17,17,,,,,,,,,,,,,,,,,,,,,,,,,,,,,,,,,,,,,,,,,,,,,,,,,,,,,,,,,,,,,,,,,,,,,,,,,,,,,,,,,,,,,,,,,,,,,,,,,,,,,198.3974146620003,206.87433163900005,,,,,030422,1,3,0,2,3,1,2,0,52,2022_Mar_04_1211,listening_fmri,3.2.4,60.20021483749956,
0,parcelated_audio/33/33_19.ogg,,,,,,,,,0,0,0,0,0,0,0,0,0,0,0,0,,,,,,,,,,,,,0,0,0,0,0,18,18,18,,,,,,,,,,,,,,,,,,,,,,,,,,,,,,,,,,,,,,,,,,,,,,,,,,,,,,,,,,,,,,,,,,,,,,,,,,,,,,,,,,,,,,,,,,,,,,,,,,,,,206.87463259600008,210.32486691600025,,,,,030422,1,3,0,2,3,1,2,0,52,2022_Mar_04_1211,listening_fmri,3.2.4,60.20021483749956,
0,parcelated_audio/33/33_20.ogg,,,,,,,,,0,0,0,0,0,0,0,0,0,0,0,0,,,,,,,,,,,,,0,0,0,0,0,19,19,19,,,,,,,,,,,,,,,,,,,,,,,,,,,,,,,,,,,,,,,,,,,,,,,,,,,,,,,,,,,,,,,,,,,,,,,,,,,,,,,,,,,,,,,,,,,,,,,,,,,,,210.32514691600045,217.22277845200006,,,,,030422,1,3,0,2,3,1,2,0,52,2022_Mar_04_1211,listening_fmri,3.2.4,60.20021483749956,
0,parcelated_audio/33/33_21.ogg,,,,,,,,,0,0,0,0,0,0,0,0,0,0,0,0,,,,,,,,,,,,,0,0,0,0,0,20,20,20,,,,,,,,,,,,,,,,,,,,,,,,,,,,,,,,,,,,,,,,,,,,,,,,,,,,,,,,,,,,,,,,,,,,,,,,,,,,,,,,,,,,,,,,,,,,,,,,,,,,,217.2230793280005,221.37014343700048,,,,,030422,1,3,0,2,3,1,2,0,52,2022_Mar_04_1211,listening_fmri,3.2.4,60.20021483749956,
0,parcelated_audio/33/33_22.ogg,,,,,,,,,0,0,0,0,0,0,0,0,0,0,0,0,,,,,,,,,,,,,0,0,0,0,0,21,21,21,,,,,,,,,,,,,,,,,,,,,,,,,,,,,,,,,,,,,,,,,,,,,,,,,,,,,,,,,,,,,,,,,,,,,,,,,,,,,,,,,,,,,,,,,,,,,,,,,,,,,221.37042227999973,233.19116678000046,,,,,030422,1,3,0,2,3,1,2,0,52,2022_Mar_04_1211,listening_fmri,3.2.4,60.20021483749956,
0,parcelated_audio/33/33_23.ogg,,,,,,,,,0,0,0,0,0,0,0,0,0,0,0,0,,,,,,,,,,,,,0,0,0,0,0,22,22,22,,,,,,,,,,,,,,,,,,,,,,,,,,,,,,,,,,,,,,,,,,,,,,,,,,,,,,,,,,,,,,,,,,,,,,,,,,,,,,,,,,,,,,,,,,,,,,,,,,,,,233.1914598610001,243.67368088000057,,,,,030422,1,3,0,2,3,1,2,0,52,2022_Mar_04_1211,listening_fmri,3.2.4,60.20021483749956,
0,parcelated_audio/33/33_24.ogg,,,,,,,,,0,0,0,0,0,0,0,0,0,0,0,0,,,,,,,,,,,,,0,0,0,0,0,23,23,23,,,,,,,,,,,,,,,,,,,,,,,,,,,,,,,,,,,,,,,,,,,,,,,,,,,,,,,,,,,,,,,,,,,,,,,,,,,,,,,,,,,,,,,,,,,,,,,,,,,,,243.67402155200034,249.93554495599983,,,,,030422,1,3,0,2,3,1,2,0,52,2022_Mar_04_1211,listening_fmri,3.2.4,60.20021483749956,
0,parcelated_audio/33/33_25.ogg,,,,,,,,,0,0,0,0,0,0,0,0,0,0,0,0,,,,,,,,,,,,,0,0,0,0,0,24,24,24,,,,,,,,,,,,,,,,,,,,,,,,,,,,,,,,,,,,,,,,,,,,,,,,,,,,,,,,,,,,,,,,,,,,,,,,,,,,,,,,,,,,,,,,,,,,,,,,,,,,,249.93634223299978,258.14027070500015,,,,,030422,1,3,0,2,3,1,2,0,52,2022_Mar_04_1211,listening_fmri,3.2.4,60.20021483749956,
0,parcelated_audio/33/33_26.ogg,,,,,,,,,0,0,0,0,0,0,0,0,0,0,0,0,,,,,,,,,,,,,0,0,0,0,0,25,25,25,,,,,,,,,,,,,,,,,,,,,,,,,,,,,,,,,,,,,,,,,,,,,,,,,,,,,,,,,,,,,,,,,,,,,,,,,,,,,,,,,,,,,,,,,,,,,,,,,,,,,258.14054058500005,265.2091838670003,,,,,030422,1,3,0,2,3,1,2,0,52,2022_Mar_04_1211,listening_fmri,3.2.4,60.20021483749956,
0,parcelated_audio/33/33_27.ogg,,,,,,,,,0,0,0,0,0,0,0,0,0,0,0,0,,,,,,,,,,,,,0,0,0,0,0,26,26,26,,,,,,,,,,,,,,,,,,,,,,,,,,,,,,,,,,,,,,,,,,,,,,,,,,,,,,,,,,,,,,,,,,,,,,,,,,,,,,,,,,,,,,,,,,,,,,,,,,,,,265.20945936499993,272.75521399900026,,,,,030422,1,3,0,2,3,1,2,0,52,2022_Mar_04_1211,listening_fmri,3.2.4,60.20021483749956,
0,parcelated_audio/33/33_28.ogg,,,,,,,,,0,0,0,0,0,0,0,0,0,0,0,0,,,,,,,,,,,,,0,0,0,0,0,27,27,27,,,,,,,,,,,,,,,,,,,,,,,,,,,,,,,,,,,,,,,,,,,,,,,,,,,,,,,,,,,,,,,,,,,,,,,,,,,,,,,,,,,,,,,,,,,,,,,,,,,,,272.7560092800004,278.4542223389999,,,,,030422,1,3,0,2,3,1,2,0,52,2022_Mar_04_1211,listening_fmri,3.2.4,60.20021483749956,
0,parcelated_audio/33/33_29.ogg,,,,,,,,,0,0,0,0,0,0,0,0,0,0,0,0,,,,,,,,,,,,,0,0,0,0,0,28,28,28,,,,,,,,,,,,,,,,,,,,,,,,,,,,,,,,,,,,,,,,,,,,,,,,,,,,,,,,,,,,,,,,,,,,,,,,,,,,,,,,,,,,,,,,,,,,,,,,,,,,,278.4544937090004,286.37906289200055,,,,,030422,1,3,0,2,3,1,2,0,52,2022_Mar_04_1211,listening_fmri,3.2.4,60.20021483749956,
0,parcelated_audio/33/33_30.ogg,,,,,,,,,0,0,0,0,0,0,0,0,0,0,0,0,,,,,,,,,,,,,0,0,0,0,0,29,29,29,,,,,,,,,,,,,,,,,,,,,,,,,,,,,,,,,,,,,,,,,,,,,,,,,,,,,,,,,,,,,,,,,,,,,,,,,,,,,,,,,,,,,,,,,,,,,,,,,,,,,286.3793391979998,301.3539128230004,,,,,030422,1,3,0,2,3,1,2,0,52,2022_Mar_04_1211,listening_fmri,3.2.4,60.20021483749956,
0,parcelated_audio/33/33_31.ogg,,,,,,,,,0,0,0,0,0,0,0,0,0,0,0,0,,,,,,,,,,,,,0,0,0,0,0,30,30,30,,,,,,,,,,,,,,,,,,,,,,,,,,,,,,,,,,,,,,,,,,,,,,,,,,,,,,,,,,,,,,,,,,,,,,,,,,,,,,,,,,,,,,,,,,,,,,,,,,,,,301.3543012420005,311.10680552400026,,,,,030422,1,3,0,2,3,1,2,0,52,2022_Mar_04_1211,listening_fmri,3.2.4,60.20021483749956,
0,parcelated_audio/33/33_32.ogg,,,,,,,,,0,0,0,0,0,0,0,0,0,0,0,0,,,,,,,,,,,,,0,0,0,0,0,31,31,31,,,,,,,,,,,,,,,,,,,,,,,,,,,,,,,,,,,,,,,,,,,,,,,,,,,,,,,,,,,,,,,,,,,,,,,,,,,,,,,,,,,,,,,,,,,,,,,,,,,,,311.10725480200017,316.7387831420001,,,,,030422,1,3,0,2,3,1,2,0,52,2022_Mar_04_1211,listening_fmri,3.2.4,60.20021483749956,
0,,,,,,,,,,0,0,0,0,0,0,0,0,0,0,0,0,,,,,,,,,,,,,0,0,0,0,,,,,,,,,,,,,,,,,,,,,,,,,,,,,,,,,,,,,,,,,,,,,,,,,,,,,,,,,,,,,,,,,,,,,,,,,,,,,,,,,,,,,,,,,,,,,,,,,,,,,,,,,,,,,,,030422,1,3,0,2,3,1,2,0,52,2022_Mar_04_1211,listening_fmri,3.2.4,60.20021483749956,
0,,,,,,,,,,0,0,0,0,0,0,0,0,0,0,0,0,,,,,,,,,,,,,,,,,,,,,,,,,,,,,,,,,,,,,,316.7391696710001,322.7434951760006,354.80189227899973,None,,,,,,,,,,,,,,,,,,,,,,,,,,,,,,,,,,,,,,,,,,,,,,,,,,,,,,,,,,,,,,,,,,,,,,,,,,,,,,,,,,360.8172871119996,None,360.8172871119996,None,030422,1,3,0,2,3,1,2,0,52,2022_Mar_04_1211,listening_fmri,3.2.4,60.20021483749956,
0,,,,,,,,,,0,0,0,0,0,0,0,0,,,,,,,,,,,,,,,,,,,,,,,,,,,,,,,,,,,,,,,,,,,,,,,,,,,,,,,,,,,,,,,,,,,,,,,,,,,,,,,,,,,,,,,,,,,,,,,,,,,,,,,,,,,,,,,,,,,,,,,,,,,,,,,,,,,030422,1,3,0,2,3,1,2,0,52,2022_Mar_04_1211,listening_fmri,3.2.4,60.20021483749956,
1,,,,,,,,,,0,0,0,0,0,1,1,1,0,0,0,0,0,0,0,0,0,0,0,0,,,,,,,,,,,,,,,,,,,,,,,,,,,,,,,,,,361.8179879290001,None,361.8179879290001,None,1,0.9154361020000579,361.8179879290001,None,361.8179879290001,None,362.7520049049999,None,1,0.8464976049999677,362.7520049049999,None,362.7520049049999,None,363.6348540460003,None,363.6348540460003,None,363.6348540460003,None,6,1.2586475699999937,363.6348540460003,None,364.9184063700004,None,6,1.471992083999794,364.9184063700004,None,364.9184063700004,None,366.5018709699998,None,366.5018709699998,None,366.5018709699998,None,366.5018709699998,None,366.5018709699998,None,366.5018709699998,None,366.5018709699998,None,None,366.5018709699998,None,,,,,,,,,,,,,,,,,,,,,,,,,,,,,,,,,030422,1,3,0,2,3,1,2,0,52,2022_Mar_04_1211,listening_fmri,3.2.4,60.20021483749956,
1,,,,,,,,,,0,0,0,0,0,1,1,1,0,0,0,0,0,0,0,0,,,,,,,,,,,,,,,,,,,,,,,,,,,,,,,,,,,,,,,,,,,,,,,,,,,,,,,,,,,,,,,,,,,,,,,,,,,,,,,,,,,,,,,,,,,385.86708177200035,None,1,2.076420735999818,385.86708177200035,None,385.86708177200035,None,387.98476175999986,None,387.98476175999986,None,387.98476175999986,None,1,0.4407571049996477,387.98476175999986,None,,,,,,,,,,,,,,,030422,1,3,0,2,3,1,2,0,52,2022_Mar_04_1211,listening_fmri,3.2.4,60.20021483749956,
1,parcelated_audio/13/13_1.ogg,,,,,,,,,0,0,0,0,0,1,1,1,0,0,0,0,,,,,,,,,,,,,0,0,0,0,0,0,0,0,,,,,,,,,,,,,,,,,,,,,,,,,,,,,,,,,,,,,,,,,,,,,,,,,,,,,,,,,,,,,,,,,,,,,,,,,,,,,,,,,,,,,,,,,,,,,388.45094881800014,None,1,0.8245520489999763,388.45094881800014,None,351.23823311700016,354.24445555200055,354.2526315390005,365.9504909699999,,,,,030422,1,3,0,2,3,1,2,0,52,2022_Mar_04_1211,listening_fmri,3.2.4,60.20021483749956,
1,parcelated_audio/13/13_2.ogg,,,,,,,,,0,0,0,0,0,1,1,1,0,0,0,0,,,,,,,,,,,,,0,0,0,0,0,1,1,1,,,,,,,,,,,,,,,,,,,,,,,,,,,,,,,,,,,,,,,,,,,,,,,,,,,,,,,,,,,,,,,,,,,,,,,,,,,,,,,,,,,,,,,,,,,,,,,,,,,,,365.95122025300043,372.0738952370002,,,,,030422,1,3,0,2,3,1,2,0,52,2022_Mar_04_1211,listening_fmri,3.2.4,60.20021483749956,
1,parcelated_audio/13/13_3.ogg,,,,,,,,,0,0,0,0,0,1,1,1,0,0,0,0,,,,,,,,,,,,,0,0,0,0,0,2,2,2,,,,,,,,,,,,,,,,,,,,,,,,,,,,,,,,,,,,,,,,,,,,,,,,,,,,,,,,,,,,,,,,,,,,,,,,,,,,,,,,,,,,,,,,,,,,,,,,,,,,,372.0741830670004,380.4404639710001,,,,,030422,1,3,0,2,3,1,2,0,52,2022_Mar_04_1211,listening_fmri,3.2.4,60.20021483749956,
1,parcelated_audio/13/13_4.ogg,,,,,,,,,0,0,0,0,0,1,1,1,0,0,0,0,,,,,,,,,,,,,0,0,0,0,0,3,3,3,,,,,,,,,,,,,,,,,,,,,,,,,,,,,,,,,,,,,,,,,,,,,,,,,,,,,,,,,,,,,,,,,,,,,,,,,,,,,,,,,,,,,,,,,,,,,,,,,,,,,380.440884699,390.6911132739997,,,,,030422,1,3,0,2,3,1,2,0,52,2022_Mar_04_1211,listening_fmri,3.2.4,60.20021483749956,
1,parcelated_audio/13/13_5.ogg,,,,,,,,,0,0,0,0,0,1,1,1,0,0,0,0,,,,,,,,,,,,,0,0,0,0,0,4,4,4,,,,,,,,,,,,,,,,,,,,,,,,,,,,,,,,,,,,,,,,,,,,,,,,,,,,,,,,,,,,,,,,,,,,,,,,,,,,,,,,,,,,,,,,,,,,,,,,,,,,,390.6913917239999,396.74285123000027,,,,,030422,1,3,0,2,3,1,2,0,52,2022_Mar_04_1211,listening_fmri,3.2.4,60.20021483749956,
1,parcelated_audio/13/13_6.ogg,,,,,,,,,0,0,0,0,0,1,1,1,0,0,0,0,,,,,,,,,,,,,0,0,0,0,0,5,5,5,,,,,,,,,,,,,,,,,,,,,,,,,,,,,,,,,,,,,,,,,,,,,,,,,,,,,,,,,,,,,,,,,,,,,,,,,,,,,,,,,,,,,,,,,,,,,,,,,,,,,396.74312934499994,401.46078459,,,,,030422,1,3,0,2,3,1,2,0,52,2022_Mar_04_1211,listening_fmri,3.2.4,60.20021483749956,
1,parcelated_audio/13/13_7.ogg,,,,,,,,,0,0,0,0,0,1,1,1,0,0,0,0,,,,,,,,,,,,,0,0,0,0,0,6,6,6,,,,,,,,,,,,,,,,,,,,,,,,,,,,,,,,,,,,,,,,,,,,,,,,,,,,,,,,,,,,,,,,,,,,,,,,,,,,,,,,,,,,,,,,,,,,,,,,,,,,,401.4610612260003,409.1224605240004,,,,,030422,1,3,0,2,3,1,2,0,52,2022_Mar_04_1211,listening_fmri,3.2.4,60.20021483749956,
1,parcelated_audio/13/13_8.ogg,,,,,,,,,0,0,0,0,0,1,1,1,0,0,0,0,,,,,,,,,,,,,0,0,0,0,0,7,7,7,,,,,,,,,,,,,,,,,,,,,,,,,,,,,,,,,,,,,,,,,,,,,,,,,,,,,,,,,,,,,,,,,,,,,,,,,,,,,,,,,,,,,,,,,,,,,,,,,,,,,409.1229186090004,414.42578122600025,,,,,030422,1,3,0,2,3,1,2,0,52,2022_Mar_04_1211,listening_fmri,3.2.4,60.20021483749956,
1,parcelated_audio/13/13_9.ogg,,,,,,,,,0,0,0,0,0,1,1,1,0,0,0,0,,,,,,,,,,,,,0,0,0,0,0,8,8,8,,,,,,,,,,,,,,,,,,,,,,,,,,,,,,,,,,,,,,,,,,,,,,,,,,,,,,,,,,,,,,,,,,,,,,,,,,,,,,,,,,,,,,,,,,,,,,,,,,,,,414.4260589450005,419.03991498600044,,,,,030422,1,3,0,2,3,1,2,0,52,2022_Mar_04_1211,listening_fmri,3.2.4,60.20021483749956,
1,parcelated_audio/13/13_10.ogg,,,,,,,,,0,0,0,0,0,1,1,1,0,0,0,0,,,,,,,,,,,,,0,0,0,0,0,9,9,9,,,,,,,,,,,,,,,,,,,,,,,,,,,,,,,,,,,,,,,,,,,,,,,,,,,,,,,,,,,,,,,,,,,,,,,,,,,,,,,,,,,,,,,,,,,,,,,,,,,,,419.04019055699973,424.8506339639998,,,,,030422,1,3,0,2,3,1,2,0,52,2022_Mar_04_1211,listening_fmri,3.2.4,60.20021483749956,
1,parcelated_audio/13/13_11.ogg,,,,,,,,,0,0,0,0,0,1,1,1,0,0,0,0,,,,,,,,,,,,,0,0,0,0,0,10,10,10,,,,,,,,,,,,,,,,,,,,,,,,,,,,,,,,,,,,,,,,,,,,,,,,,,,,,,,,,,,,,,,,,,,,,,,,,,,,,,,,,,,,,,,,,,,,,,,,,,,,,424.85108003500045,429.37754513799973,,,,,030422,1,3,0,2,3,1,2,0,52,2022_Mar_04_1211,listening_fmri,3.2.4,60.20021483749956,
1,parcelated_audio/13/13_12.ogg,,,,,,,,,0,0,0,0,0,1,1,1,0,0,0,0,,,,,,,,,,,,,0,0,0,0,0,11,11,11,,,,,,,,,,,,,,,,,,,,,,,,,,,,,,,,,,,,,,,,,,,,,,,,,,,,,,,,,,,,,,,,,,,,,,,,,,,,,,,,,,,,,,,,,,,,,,,,,,,,,429.3778908989998,437.85036396099986,,,,,030422,1,3,0,2,3,1,2,0,52,2022_Mar_04_1211,listening_fmri,3.2.4,60.20021483749956,
1,parcelated_audio/13/13_13.ogg,,,,,,,,,0,0,0,0,0,1,1,1,0,0,0,0,,,,,,,,,,,,,0,0,0,0,0,12,12,12,,,,,,,,,,,,,,,,,,,,,,,,,,,,,,,,,,,,,,,,,,,,,,,,,,,,,,,,,,,,,,,,,,,,,,,,,,,,,,,,,,,,,,,,,,,,,,,,,,,,,437.8506365100002,447.7654537360004,,,,,030422,1,3,0,2,3,1,2,0,52,2022_Mar_04_1211,listening_fmri,3.2.4,60.20021483749956,
1,parcelated_audio/13/13_14.ogg,,,,,,,,,0,0,0,0,0,1,1,1,0,0,0,0,,,,,,,,,,,,,0,0,0,0,0,13,13,13,,,,,,,,,,,,,,,,,,,,,,,,,,,,,,,,,,,,,,,,,,,,,,,,,,,,,,,,,,,,,,,,,,,,,,,,,,,,,,,,,,,,,,,,,,,,,,,,,,,,,447.765767289,455.9406780119998,,,,,030422,1,3,0,2,3,1,2,0,52,2022_Mar_04_1211,listening_fmri,3.2.4,60.20021483749956,
1,parcelated_audio/13/13_15.ogg,,,,,,,,,0,0,0,0,0,1,1,1,0,0,0,0,,,,,,,,,,,,,0,0,0,0,0,14,14,14,,,,,,,,,,,,,,,,,,,,,,,,,,,,,,,,,,,,,,,,,,,,,,,,,,,,,,,,,,,,,,,,,,,,,,,,,,,,,,,,,,,,,,,,,,,,,,,,,,,,,455.9410090090005,464.617906681,,,,,030422,1,3,0,2,3,1,2,0,52,2022_Mar_04_1211,listening_fmri,3.2.4,60.20021483749956,
1,parcelated_audio/13/13_16.ogg,,,,,,,,,0,0,0,0,0,1,1,1,0,0,0,0,,,,,,,,,,,,,0,0,0,0,0,15,15,15,,,,,,,,,,,,,,,,,,,,,,,,,,,,,,,,,,,,,,,,,,,,,,,,,,,,,,,,,,,,,,,,,,,,,,,,,,,,,,,,,,,,,,,,,,,,,,,,,,,,,464.61818429899995,466.95881903400004,,,,,030422,1,3,0,2,3,1,2,0,52,2022_Mar_04_1211,listening_fmri,3.2.4,60.20021483749956,
1,parcelated_audio/13/13_17.ogg,,,,,,,,,0,0,0,0,0,1,1,1,0,0,0,0,,,,,,,,,,,,,0,0,0,0,0,16,16,16,,,,,,,,,,,,,,,,,,,,,,,,,,,,,,,,,,,,,,,,,,,,,,,,,,,,,,,,,,,,,,,,,,,,,,,,,,,,,,,,,,,,,,,,,,,,,,,,,,,,,466.9591435250004,474.54207829700044,,,,,030422,1,3,0,2,3,1,2,0,52,2022_Mar_04_1211,listening_fmri,3.2.4,60.20021483749956,
1,parcelated_audio/13/13_18.ogg,,,,,,,,,0,0,0,0,0,1,1,1,0,0,0,0,,,,,,,,,,,,,0,0,0,0,0,17,17,17,,,,,,,,,,,,,,,,,,,,,,,,,,,,,,,,,,,,,,,,,,,,,,,,,,,,,,,,,,,,,,,,,,,,,,,,,,,,,,,,,,,,,,,,,,,,,,,,,,,,,474.5423710690002,484.73977849899984,,,,,030422,1,3,0,2,3,1,2,0,52,2022_Mar_04_1211,listening_fmri,3.2.4,60.20021483749956,
1,parcelated_audio/13/13_19.ogg,,,,,,,,,0,0,0,0,0,1,1,1,0,0,0,0,,,,,,,,,,,,,0,0,0,0,0,18,18,18,,,,,,,,,,,,,,,,,,,,,,,,,,,,,,,,,,,,,,,,,,,,,,,,,,,,,,,,,,,,,,,,,,,,,,,,,,,,,,,,,,,,,,,,,,,,,,,,,,,,,484.7400545729997,492.7082653140005,,,,,030422,1,3,0,2,3,1,2,0,52,2022_Mar_04_1211,listening_fmri,3.2.4,60.20021483749956,
1,parcelated_audio/13/13_20.ogg,,,,,,,,,0,0,0,0,0,1,1,1,0,0,0,0,,,,,,,,,,,,,0,0,0,0,0,19,19,19,,,,,,,,,,,,,,,,,,,,,,,,,,,,,,,,,,,,,,,,,,,,,,,,,,,,,,,,,,,,,,,,,,,,,,,,,,,,,,,,,,,,,,,,,,,,,,,,,,,,,492.7085499630002,497.8751958540006,,,,,030422,1,3,0,2,3,1,2,0,52,2022_Mar_04_1211,listening_fmri,3.2.4,60.20021483749956,
1,parcelated_audio/13/13_21.ogg,,,,,,,,,0,0,0,0,0,1,1,1,0,0,0,0,,,,,,,,,,,,,0,0,0,0,0,20,20,20,,,,,,,,,,,,,,,,,,,,,,,,,,,,,,,,,,,,,,,,,,,,,,,,,,,,,,,,,,,,,,,,,,,,,,,,,,,,,,,,,,,,,,,,,,,,,,,,,,,,,497.87555803899977,501.19324416700056,,,,,030422,1,3,0,2,3,1,2,0,52,2022_Mar_04_1211,listening_fmri,3.2.4,60.20021483749956,
1,parcelated_audio/13/13_22.ogg,,,,,,,,,0,0,0,0,0,1,1,1,0,0,0,0,,,,,,,,,,,,,0,0,0,0,0,21,21,21,,,,,,,,,,,,,,,,,,,,,,,,,,,,,,,,,,,,,,,,,,,,,,,,,,,,,,,,,,,,,,,,,,,,,,,,,,,,,,,,,,,,,,,,,,,,,,,,,,,,,501.1935068700004,504.6083559079998,,,,,030422,1,3,0,2,3,1,2,0,52,2022_Mar_04_1211,listening_fmri,3.2.4,60.20021483749956,
1,parcelated_audio/13/13_23.ogg,,,,,,,,,0,0,0,0,0,1,1,1,0,0,0,0,,,,,,,,,,,,,0,0,0,0,0,22,22,22,,,,,,,,,,,,,,,,,,,,,,,,,,,,,,,,,,,,,,,,,,,,,,,,,,,,,,,,,,,,,,,,,,,,,,,,,,,,,,,,,,,,,,,,,,,,,,,,,,,,,504.60863077500017,509.87071649100017,,,,,030422,1,3,0,2,3,1,2,0,52,2022_Mar_04_1211,listening_fmri,3.2.4,60.20021483749956,
1,parcelated_audio/13/13_24.ogg,,,,,,,,,0,0,0,0,0,1,1,1,0,0,0,0,,,,,,,,,,,,,0,0,0,0,0,23,23,23,,,,,,,,,,,,,,,,,,,,,,,,,,,,,,,,,,,,,,,,,,,,,,,,,,,,,,,,,,,,,,,,,,,,,,,,,,,,,,,,,,,,,,,,,,,,,,,,,,,,,509.87099545100045,519.6037708029999,,,,,030422,1,3,0,2,3,1,2,0,52,2022_Mar_04_1211,listening_fmri,3.2.4,60.20021483749956,
1,parcelated_audio/13/13_25.ogg,,,,,,,,,0,0,0,0,0,1,1,1,0,0,0,0,,,,,,,,,,,,,0,0,0,0,0,24,24,24,,,,,,,,,,,,,,,,,,,,,,,,,,,,,,,,,,,,,,,,,,,,,,,,,,,,,,,,,,,,,,,,,,,,,,,,,,,,,,,,,,,,,,,,,,,,,,,,,,,,,519.6041230649998,526.8897859509998,,,,,030422,1,3,0,2,3,1,2,0,52,2022_Mar_04_1211,listening_fmri,3.2.4,60.20021483749956,
1,parcelated_audio/13/13_26.ogg,,,,,,,,,0,0,0,0,0,1,1,1,0,0,0,0,,,,,,,,,,,,,0,0,0,0,0,25,25,25,,,,,,,,,,,,,,,,,,,,,,,,,,,,,,,,,,,,,,,,,,,,,,,,,,,,,,,,,,,,,,,,,,,,,,,,,,,,,,,,,,,,,,,,,,,,,,,,,,,,,526.8900637819997,533.0902714470003,,,,,030422,1,3,0,2,3,1,2,0,52,2022_Mar_04_1211,listening_fmri,3.2.4,60.20021483749956,
1,parcelated_audio/13/13_27.ogg,,,,,,,,,0,0,0,0,0,1,1,1,0,0,0,0,,,,,,,,,,,,,0,0,0,0,0,26,26,26,,,,,,,,,,,,,,,,,,,,,,,,,,,,,,,,,,,,,,,,,,,,,,,,,,,,,,,,,,,,,,,,,,,,,,,,,,,,,,,,,,,,,,,,,,,,,,,,,,,,,533.0927544220003,538.3330444190005,,,,,030422,1,3,0,2,3,1,2,0,52,2022_Mar_04_1211,listening_fmri,3.2.4,60.20021483749956,
1,parcelated_audio/13/13_28.ogg,,,,,,,,,0,0,0,0,0,1,1,1,0,0,0,0,,,,,,,,,,,,,0,0,0,0,0,27,27,27,,,,,,,,,,,,,,,,,,,,,,,,,,,,,,,,,,,,,,,,,,,,,,,,,,,,,,,,,,,,,,,,,,,,,,,,,,,,,,,,,,,,,,,,,,,,,,,,,,,,,538.3333180159998,543.7731089509998,,,,,030422,1,3,0,2,3,1,2,0,52,2022_Mar_04_1211,listening_fmri,3.2.4,60.20021483749956,
1,parcelated_audio/13/13_29.ogg,,,,,,,,,0,0,0,0,0,1,1,1,0,0,0,0,,,,,,,,,,,,,0,0,0,0,0,28,28,28,,,,,,,,,,,,,,,,,,,,,,,,,,,,,,,,,,,,,,,,,,,,,,,,,,,,,,,,,,,,,,,,,,,,,,,,,,,,,,,,,,,,,,,,,,,,,,,,,,,,,543.7733860819999,547.0885193240001,,,,,030422,1,3,0,2,3,1,2,0,52,2022_Mar_04_1211,listening_fmri,3.2.4,60.20021483749956,
1,parcelated_audio/13/13_30.ogg,,,,,,,,,0,0,0,0,0,1,1,1,0,0,0,0,,,,,,,,,,,,,0,0,0,0,0,29,29,29,,,,,,,,,,,,,,,,,,,,,,,,,,,,,,,,,,,,,,,,,,,,,,,,,,,,,,,,,,,,,,,,,,,,,,,,,,,,,,,,,,,,,,,,,,,,,,,,,,,,,547.0888514500002,550.5566800309998,,,,,030422,1,3,0,2,3,1,2,0,52,2022_Mar_04_1211,listening_fmri,3.2.4,60.20021483749956,
1,parcelated_audio/13/13_31.ogg,,,,,,,,,0,0,0,0,0,1,1,1,0,0,0,0,,,,,,,,,,,,,0,0,0,0,0,30,30,30,,,,,,,,,,,,,,,,,,,,,,,,,,,,,,,,,,,,,,,,,,,,,,,,,,,,,,,,,,,,,,,,,,,,,,,,,,,,,,,,,,,,,,,,,,,,,,,,,,,,,550.5574396170005,556.5231005920004,,,,,030422,1,3,0,2,3,1,2,0,52,2022_Mar_04_1211,listening_fmri,3.2.4,60.20021483749956,
1,,,,,,,,,,0,0,0,0,0,1,1,1,0,0,0,0,,,,,,,,,,,,,0,0,0,0,,,,,,,,,,,,,,,,,,,,,,,,,,,,,,,,,,,,,,,,,,,,,,,,,,,,,,,,,,,,,,,,,,,,,,,,,,,,,,,,,,,,,,,,,,,,,,,,,,,,,,,,,,,,,,,030422,1,3,0,2,3,1,2,0,52,2022_Mar_04_1211,listening_fmri,3.2.4,60.20021483749956,
1,,,,,,,,,,0,0,0,0,0,1,1,1,0,0,0,0,,,,,,,,,,,,,,,,,,,,,,,,,,,,,,,,,,,,,,556.5234615580002,562.5107295730004,594.5847680670004,None,,,,,,,,,,,,,,,,,,,,,,,,,,,,,,,,,,,,,,,,,,,,,,,,,,,,,,,,,,,,,,,,,,,,,,,,,,,,,,,,,,600.5850226829998,None,600.5850226829998,None,030422,1,3,0,2,3,1,2,0,52,2022_Mar_04_1211,listening_fmri,3.2.4,60.20021483749956,
1,,,,,,,,,,0,0,0,0,0,1,1,1,,,,,,,,,,,,,,,,,,,,,,,,,,,,,,,,,,,,,,,,,,,,,,,,,,,,,,,,,,,,,,,,,,,,,,,,,,,,,,,,,,,,,,,,,,,,,,,,,,,,,,,,,,,,,,,,,,,,,,,,,,,,,,,,,,,030422,1,3,0,2,3,1,2,0,52,2022_Mar_04_1211,listening_fmri,3.2.4,60.20021483749956,
2,,,,,,,,,,0,0,0,0,0,2,2,2,,,,,,,,,,,,,,,,,,,,,,,,,,,,,,,,,,,,,,,,,,,,,,,,,,,,,,,,,,,,,,,,,,,,,,,,,,,,,,,,,,,,,,,,,,,,,,,,,,,,,,,,,,,,,,,,,,,,,,,,,,,,,,,,,,,030422,1,3,0,2,3,1,2,0,52,2022_Mar_04_1211,listening_fmri,3.2.4,60.20021483749956,
3,,,,,,,,,,0,0,0,0,0,3,3,3,0,0,0,0,0,0,0,0,0,0,0,0,,,,,,,,,,,,,,,,,,,,,,,,,,,,,,,,,,601.5991766269999,None,601.5991766269999,None,1,0.7413097499993455,601.5991766269999,None,601.5991766269999,None,602.3691693299997,None,1,0.7623348500001157,602.3691693299997,None,602.3691693299997,None,603.1651014489998,None,603.1651014489998,None,603.1651014489998,None,1,0.7504054470000483,603.1651014489998,None,603.934589728,None,1,0.7819288509999751,603.934589728,None,603.934589728,None,604.8158964920003,None,604.8158964920003,None,604.8158964920003,None,604.8158964920003,None,604.8158964920003,None,604.8158964920003,None,604.8158964920003,None,None,604.8158964920003,None,,,,,,,,,,,,,,,,,,,,,,,,,,,,,,,,,030422,1,3,0,2,3,1,2,0,52,2022_Mar_04_1211,listening_fmri,3.2.4,60.20021483749956,
3,,,,,,,,,,0,0,0,0,0,3,3,3,0,0,0,0,0,0,0,0,,,,,,,,,,,,,,,,,,,,,,,,,,,,,,,,,,,,,,,,,,,,,,,,,,,,,,,,,,,,,,,,,,,,,,,,,,,,,,,,,,,,,,,,,,,621.8817309999995,None,1,1.007770182000968,621.8817309999995,None,621.8817309999995,None,622.9321226560005,None,622.9321226560005,None,622.9321226560005,None,1,0.34934067399990454,622.9321226560005,None,,,,,,,,,,,,,,,030422,1,3,0,2,3,1,2,0,52,2022_Mar_04_1211,listening_fmri,3.2.4,60.20021483749956,
3,parcelated_audio/44/44_1.ogg,,,,,,,,,0,0,0,0,0,3,3,3,0,0,0,0,,,,,,,,,,,,,0,0,0,0,0,0,0,0,,,,,,,,,,,,,,,,,,,,,,,,,,,,,,,,,,,,,,,,,,,,,,,,,,,,,,,,,,,,,,,,,,,,,,,,,,,,,,,,,,,,,,,,,,,,,623.3028965049998,None,1,0.6195847879989742,623.3028965049998,None,585.9126963489998,588.9283832820001,588.9334055849995,596.8555832670008,,,,,030422,1,3,0,2,3,1,2,0,52,2022_Mar_04_1211,listening_fmri,3.2.4,60.20021483749956,
3,parcelated_audio/44/44_2.ogg,,,,,,,,,0,0,0,0,0,3,3,3,0,0,0,0,,,,,,,,,,,,,0,0,0,0,0,1,1,1,,,,,,,,,,,,,,,,,,,,,,,,,,,,,,,,,,,,,,,,,,,,,,,,,,,,,,,,,,,,,,,,,,,,,,,,,,,,,,,,,,,,,,,,,,,,,,,,,,,,,596.8560246460002,605.992097417,,,,,030422,1,3,0,2,3,1,2,0,52,2022_Mar_04_1211,listening_fmri,3.2.4,60.20021483749956,
3,parcelated_audio/44/44_3.ogg,,,,,,,,,0,0,0,0,0,3,3,3,0,0,0,0,,,,,,,,,,,,,0,0,0,0,0,2,2,2,,,,,,,,,,,,,,,,,,,,,,,,,,,,,,,,,,,,,,,,,,,,,,,,,,,,,,,,,,,,,,,,,,,,,,,,,,,,,,,,,,,,,,,,,,,,,,,,,,,,,605.9923647409996,611.4535564359994,,,,,030422,1,3,0,2,3,1,2,0,52,2022_Mar_04_1211,listening_fmri,3.2.4,60.20021483749956,
3,parcelated_audio/44/44_4.ogg,,,,,,,,,0,0,0,0,0,3,3,3,0,0,0,0,,,,,,,,,,,,,0,0,0,0,0,3,3,3,,,,,,,,,,,,,,,,,,,,,,,,,,,,,,,,,,,,,,,,,,,,,,,,,,,,,,,,,,,,,,,,,,,,,,,,,,,,,,,,,,,,,,,,,,,,,,,,,,,,,611.4538335239995,616.5445612549993,,,,,030422,1,3,0,2,3,1,2,0,52,2022_Mar_04_1211,listening_fmri,3.2.4,60.20021483749956,
3,parcelated_audio/44/44_5.ogg,,,,,,,,,0,0,0,0,0,3,3,3,0,0,0,0,,,,,,,,,,,,,0,0,0,0,0,4,4,4,,,,,,,,,,,,,,,,,,,,,,,,,,,,,,,,,,,,,,,,,,,,,,,,,,,,,,,,,,,,,,,,,,,,,,,,,,,,,,,,,,,,,,,,,,,,,,,,,,,,,616.5448569159998,622.7910978920008,,,,,030422,1,3,0,2,3,1,2,0,52,2022_Mar_04_1211,listening_fmri,3.2.4,60.20021483749956,
3,parcelated_audio/44/44_6.ogg,,,,,,,,,0,0,0,0,0,3,3,3,0,0,0,0,,,,,,,,,,,,,0,0,0,0,0,5,5,5,,,,,,,,,,,,,,,,,,,,,,,,,,,,,,,,,,,,,,,,,,,,,,,,,,,,,,,,,,,,,,,,,,,,,,,,,,,,,,,,,,,,,,,,,,,,,,,,,,,,,622.7913764660007,629.7412059889994,,,,,030422,1,3,0,2,3,1,2,0,52,2022_Mar_04_1211,listening_fmri,3.2.4,60.20021483749956,
3,parcelated_audio/44/44_7.ogg,,,,,,,,,0,0,0,0,0,3,3,3,0,0,0,0,,,,,,,,,,,,,0,0,0,0,0,6,6,6,,,,,,,,,,,,,,,,,,,,,,,,,,,,,,,,,,,,,,,,,,,,,,,,,,,,,,,,,,,,,,,,,,,,,,,,,,,,,,,,,,,,,,,,,,,,,,,,,,,,,629.7416210110005,635.7693953109992,,,,,030422,1,3,0,2,3,1,2,0,52,2022_Mar_04_1211,listening_fmri,3.2.4,60.20021483749956,
3,parcelated_audio/44/44_8.ogg,,,,,,,,,0,0,0,0,0,3,3,3,0,0,0,0,,,,,,,,,,,,,0,0,0,0,0,7,7,7,,,,,,,,,,,,,,,,,,,,,,,,,,,,,,,,,,,,,,,,,,,,,,,,,,,,,,,,,,,,,,,,,,,,,,,,,,,,,,,,,,,,,,,,,,,,,,,,,,,,,635.7696726710001,640.042721881,,,,,030422,1,3,0,2,3,1,2,0,52,2022_Mar_04_1211,listening_fmri,3.2.4,60.20021483749956,
3,parcelated_audio/44/44_9.ogg,,,,,,,,,0,0,0,0,0,3,3,3,0,0,0,0,,,,,,,,,,,,,0,0,0,0,0,8,8,8,,,,,,,,,,,,,,,,,,,,,,,,,,,,,,,,,,,,,,,,,,,,,,,,,,,,,,,,,,,,,,,,,,,,,,,,,,,,,,,,,,,,,,,,,,,,,,,,,,,,,640.0430391820009,643.7438396199996,,,,,030422,1,3,0,2,3,1,2,0,52,2022_Mar_04_1211,listening_fmri,3.2.4,60.20021483749956,
3,parcelated_audio/44/44_10.ogg,,,,,,,,,0,0,0,0,0,3,3,3,0,0,0,0,,,,,,,,,,,,,0,0,0,0,0,9,9,9,,,,,,,,,,,,,,,,,,,,,,,,,,,,,,,,,,,,,,,,,,,,,,,,,,,,,,,,,,,,,,,,,,,,,,,,,,,,,,,,,,,,,,,,,,,,,,,,,,,,,643.7441173250008,653.872862051001,,,,,030422,1,3,0,2,3,1,2,0,52,2022_Mar_04_1211,listening_fmri,3.2.4,60.20021483749956,
3,parcelated_audio/44/44_11.ogg,,,,,,,,,0,0,0,0,0,3,3,3,0,0,0,0,,,,,,,,,,,,,0,0,0,0,0,10,10,10,,,,,,,,,,,,,,,,,,,,,,,,,,,,,,,,,,,,,,,,,,,,,,,,,,,,,,,,,,,,,,,,,,,,,,,,,,,,,,,,,,,,,,,,,,,,,,,,,,,,,653.8731144989997,657.4224657590003,,,,,030422,1,3,0,2,3,1,2,0,52,2022_Mar_04_1211,listening_fmri,3.2.4,60.20021483749956,
3,parcelated_audio/44/44_12.ogg,,,,,,,,,0,0,0,0,0,3,3,3,0,0,0,0,,,,,,,,,,,,,0,0,0,0,0,11,11,11,,,,,,,,,,,,,,,,,,,,,,,,,,,,,,,,,,,,,,,,,,,,,,,,,,,,,,,,,,,,,,,,,,,,,,,,,,,,,,,,,,,,,,,,,,,,,,,,,,,,,657.4227403770001,668.0220480030002,,,,,030422,1,3,0,2,3,1,2,0,52,2022_Mar_04_1211,listening_fmri,3.2.4,60.20021483749956,
3,parcelated_audio/44/44_13.ogg,,,,,,,,,0,0,0,0,0,3,3,3,0,0,0,0,,,,,,,,,,,,,0,0,0,0,0,12,12,12,,,,,,,,,,,,,,,,,,,,,,,,,,,,,,,,,,,,,,,,,,,,,,,,,,,,,,,,,,,,,,,,,,,,,,,,,,,,,,,,,,,,,,,,,,,,,,,,,,,,,668.0230077220003,675.1895553659997,,,,,030422,1,3,0,2,3,1,2,0,52,2022_Mar_04_1211,listening_fmri,3.2.4,60.20021483749956,
3,parcelated_audio/44/44_14.ogg,,,,,,,,,0,0,0,0,0,3,3,3,0,0,0,0,,,,,,,,,,,,,0,0,0,0,0,13,13,13,,,,,,,,,,,,,,,,,,,,,,,,,,,,,,,,,,,,,,,,,,,,,,,,,,,,,,,,,,,,,,,,,,,,,,,,,,,,,,,,,,,,,,,,,,,,,,,,,,,,,675.1898128169996,681.5178186110006,,,,,030422,1,3,0,2,3,1,2,0,52,2022_Mar_04_1211,listening_fmri,3.2.4,60.20021483749956,
3,parcelated_audio/44/44_15.ogg,,,,,,,,,0,0,0,0,0,3,3,3,0,0,0,0,,,,,,,,,,,,,0,0,0,0,0,14,14,14,,,,,,,,,,,,,,,,,,,,,,,,,,,,,,,,,,,,,,,,,,,,,,,,,,,,,,,,,,,,,,,,,,,,,,,,,,,,,,,,,,,,,,,,,,,,,,,,,,,,,681.5180944250005,685.6114235919995,,,,,030422,1,3,0,2,3,1,2,0,52,2022_Mar_04_1211,listening_fmri,3.2.4,60.20021483749956,
3,parcelated_audio/44/44_16.ogg,,,,,,,,,0,0,0,0,0,3,3,3,0,0,0,0,,,,,,,,,,,,,0,0,0,0,0,15,15,15,,,,,,,,,,,,,,,,,,,,,,,,,,,,,,,,,,,,,,,,,,,,,,,,,,,,,,,,,,,,,,,,,,,,,,,,,,,,,,,,,,,,,,,,,,,,,,,,,,,,,685.6117268090002,689.6376786960009,,,,,030422,1,3,0,2,3,1,2,0,52,2022_Mar_04_1211,listening_fmri,3.2.4,60.20021483749956,
3,parcelated_audio/44/44_17.ogg,,,,,,,,,0,0,0,0,0,3,3,3,0,0,0,0,,,,,,,,,,,,,0,0,0,0,0,16,16,16,,,,,,,,,,,,,,,,,,,,,,,,,,,,,,,,,,,,,,,,,,,,,,,,,,,,,,,,,,,,,,,,,,,,,,,,,,,,,,,,,,,,,,,,,,,,,,,,,,,,,689.6379339030009,698.1147506830002,,,,,030422,1,3,0,2,3,1,2,0,52,2022_Mar_04_1211,listening_fmri,3.2.4,60.20021483749956,
3,parcelated_audio/44/44_18.ogg,,,,,,,,,0,0,0,0,0,3,3,3,0,0,0,0,,,,,,,,,,,,,0,0,0,0,0,17,17,17,,,,,,,,,,,,,,,,,,,,,,,,,,,,,,,,,,,,,,,,,,,,,,,,,,,,,,,,,,,,,,,,,,,,,,,,,,,,,,,,,,,,,,,,,,,,,,,,,,,,,698.1157105750008,707.9703213510002,,,,,030422,1,3,0,2,3,1,2,0,52,2022_Mar_04_1211,listening_fmri,3.2.4,60.20021483749956,
3,parcelated_audio/44/44_19.ogg,,,,,,,,,0,0,0,0,0,3,3,3,0,0,0,0,,,,,,,,,,,,,0,0,0,0,0,18,18,18,,,,,,,,,,,,,,,,,,,,,,,,,,,,,,,,,,,,,,,,,,,,,,,,,,,,,,,,,,,,,,,,,,,,,,,,,,,,,,,,,,,,,,,,,,,,,,,,,,,,,707.9705723980005,718.95832161,,,,,030422,1,3,0,2,3,1,2,0,52,2022_Mar_04_1211,listening_fmri,3.2.4,60.20021483749956,
3,parcelated_audio/44/44_20.ogg,,,,,,,,,0,0,0,0,0,3,3,3,0,0,0,0,,,,,,,,,,,,,0,0,0,0,0,19,19,19,,,,,,,,,,,,,,,,,,,,,,,,,,,,,,,,,,,,,,,,,,,,,,,,,,,,,,,,,,,,,,,,,,,,,,,,,,,,,,,,,,,,,,,,,,,,,,,,,,,,,718.9585901030005,727.200737825,,,,,030422,1,3,0,2,3,1,2,0,52,2022_Mar_04_1211,listening_fmri,3.2.4,60.20021483749956,
3,parcelated_audio/44/44_21.ogg,,,,,,,,,0,0,0,0,0,3,3,3,0,0,0,0,,,,,,,,,,,,,0,0,0,0,0,20,20,20,,,,,,,,,,,,,,,,,,,,,,,,,,,,,,,,,,,,,,,,,,,,,,,,,,,,,,,,,,,,,,,,,,,,,,,,,,,,,,,,,,,,,,,,,,,,,,,,,,,,,727.2010128820002,736.1058343980003,,,,,030422,1,3,0,2,3,1,2,0,52,2022_Mar_04_1211,listening_fmri,3.2.4,60.20021483749956,
3,parcelated_audio/44/44_22.ogg,,,,,,,,,0,0,0,0,0,3,3,3,0,0,0,0,,,,,,,,,,,,,0,0,0,0,0,21,21,21,,,,,,,,,,,,,,,,,,,,,,,,,,,,,,,,,,,,,,,,,,,,,,,,,,,,,,,,,,,,,,,,,,,,,,,,,,,,,,,,,,,,,,,,,,,,,,,,,,,,,736.1061123279997,741.0338369359997,,,,,030422,1,3,0,2,3,1,2,0,52,2022_Mar_04_1211,listening_fmri,3.2.4,60.20021483749956,
3,parcelated_audio/44/44_23.ogg,,,,,,,,,0,0,0,0,0,3,3,3,0,0,0,0,,,,,,,,,,,,,0,0,0,0,0,22,22,22,,,,,,,,,,,,,,,,,,,,,,,,,,,,,,,,,,,,,,,,,,,,,,,,,,,,,,,,,,,,,,,,,,,,,,,,,,,,,,,,,,,,,,,,,,,,,,,,,,,,,741.0342483580007,747.6815502339996,,,,,030422,1,3,0,2,3,1,2,0,52,2022_Mar_04_1211,listening_fmri,3.2.4,60.20021483749956,
3,parcelated_audio/44/44_24.ogg,,,,,,,,,0,0,0,0,0,3,3,3,0,0,0,0,,,,,,,,,,,,,0,0,0,0,0,23,23,23,,,,,,,,,,,,,,,,,,,,,,,,,,,,,,,,,,,,,,,,,,,,,,,,,,,,,,,,,,,,,,,,,,,,,,,,,,,,,,,,,,,,,,,,,,,,,,,,,,,,,747.6818296309993,756.4277678729995,,,,,030422,1,3,0,2,3,1,2,0,52,2022_Mar_04_1211,listening_fmri,3.2.4,60.20021483749956,
3,parcelated_audio/44/44_25.ogg,,,,,,,,,0,0,0,0,0,3,3,3,0,0,0,0,,,,,,,,,,,,,0,0,0,0,0,24,24,24,,,,,,,,,,,,,,,,,,,,,,,,,,,,,,,,,,,,,,,,,,,,,,,,,,,,,,,,,,,,,,,,,,,,,,,,,,,,,,,,,,,,,,,,,,,,,,,,,,,,,756.4281542339995,762.7609026949995,,,,,030422,1,3,0,2,3,1,2,0,52,2022_Mar_04_1211,listening_fmri,3.2.4,60.20021483749956,
3,parcelated_audio/44/44_26.ogg,,,,,,,,,0,0,0,0,0,3,3,3,0,0,0,0,,,,,,,,,,,,,0,0,0,0,0,25,25,25,,,,,,,,,,,,,,,,,,,,,,,,,,,,,,,,,,,,,,,,,,,,,,,,,,,,,,,,,,,,,,,,,,,,,,,,,,,,,,,,,,,,,,,,,,,,,,,,,,,,,762.761287976,767.6225894529998,,,,,030422,1,3,0,2,3,1,2,0,52,2022_Mar_04_1211,listening_fmri,3.2.4,60.20021483749956,
3,parcelated_audio/44/44_27.ogg,,,,,,,,,0,0,0,0,0,3,3,3,0,0,0,0,,,,,,,,,,,,,0,0,0,0,0,26,26,26,,,,,,,,,,,,,,,,,,,,,,,,,,,,,,,,,,,,,,,,,,,,,,,,,,,,,,,,,,,,,,,,,,,,,,,,,,,,,,,,,,,,,,,,,,,,,,,,,,,,,767.622864971001,774.6105509190002,,,,,030422,1,3,0,2,3,1,2,0,52,2022_Mar_04_1211,listening_fmri,3.2.4,60.20021483749956,
3,parcelated_audio/44/44_28.ogg,,,,,,,,,0,0,0,0,0,3,3,3,0,0,0,0,,,,,,,,,,,,,0,0,0,0,0,27,27,27,,,,,,,,,,,,,,,,,,,,,,,,,,,,,,,,,,,,,,,,,,,,,,,,,,,,,,,,,,,,,,,,,,,,,,,,,,,,,,,,,,,,,,,,,,,,,,,,,,,,,774.6109710580004,785.9057956550005,,,,,030422,1,3,0,2,3,1,2,0,52,2022_Mar_04_1211,listening_fmri,3.2.4,60.20021483749956,
3,,,,,,,,,,0,0,0,0,0,3,3,3,0,0,0,0,,,,,,,,,,,,,0,0,0,0,,,,,,,,,,,,,,,,,,,,,,,,,,,,,,,,,,,,,,,,,,,,,,,,,,,,,,,,,,,,,,,,,,,,,,,,,,,,,,,,,,,,,,,,,,,,,,,,,,,,,,,,,,,,,,,030422,1,3,0,2,3,1,2,0,52,2022_Mar_04_1211,listening_fmri,3.2.4,60.20021483749956,
,,,,,,,,,,,,,,,,,,,,,,,,,,,,,,,,,,,,,,,,,,,,,,,,,,,,,,,,,,,785.9061778979994,791.8949975070009,823.9682339539995,None,,,,,,,,,,,,,,,,,,,,,,,,,,,,,,,,,,,,,,,,,,,,,,,,,,,,,,,,,,,,,,,,,,,,,,,,,,,,,,,,,,829.9790389339996,None,829.9790389339996,None,,,,,,,,,,,,,,,
﻿count,audio,trials_14.thisRepN,trials_14.thisTrialN,trials_14.thisN,trials_14.thisIndex,trials_3.thisRepN,trials_3.thisTrialN,trials_3.thisN,trials_3.thisIndex,trials_4.thisRepN,trials_4.thisTrialN,trials_4.thisN,trials_4.thisIndex,trials_6.thisRepN,trials_6.thisTrialN,trials_6.thisN,trials_6.thisIndex,trials_9.thisRepN,trials_9.thisTrialN,trials_9.thisN,trials_9.thisIndex,trials_10.thisRepN,trials_10.thisTrialN,trials_10.thisN,trials_10.thisIndex,trials_11.thisRepN,trials_11.thisTrialN,trials_11.thisN,trials_11.thisIndex,trials_12.thisRepN,trials_12.thisTrialN,trials_12.thisN,trials_12.thisIndex,trials_25.thisRepN,trials_25.thisTrialN,trials_25.thisN,trials_25.thisIndex,trials_15.thisRepN,trials_15.thisTrialN,trials_15.thisN,trials_15.thisIndex,trials_26.thisRepN,trials_26.thisTrialN,trials_26.thisN,trials_26.thisIndex,story_list_block2,action_list_block2,textTrigger.started,textTrigger.stopped,getTrigger.keys,getTrigger.rt,getTrigger.started,getTrigger.stopped,triggerTime,text_76.started,text_76.stopped,text_77.started,text_77.stopped,startWait,endWait,image_23.started,image_23.stopped,text_55.started,text_55.stopped,text_56.started,text_56.stopped,key_resp_2.keys,key_resp_2.rt,key_resp_2.started,key_resp_2.stopped,text_82.started,text_82.stopped,text_57.started,text_57.stopped,key_resp_17.keys,key_resp_17.rt,key_resp_17.started,key_resp_17.stopped,text_83.started,text_83.stopped,text_60.started,text_60.stopped,image_2.started,image_2.stopped,text_58.started,text_58.stopped,key_resp_23.keys,key_resp_23.rt,key_resp_23.started,key_resp_23.stopped,text_62.started,text_62.stopped,key_resp_18.keys,key_resp_18.rt,key_resp_18.started,key_resp_18.stopped,text_84.started,text_84.stopped,question1_2.started,question1_2.stopped,question2_2.started,question2_2.stopped,question3_2.started,question3_2.stopped,question4_2.started,question4_2.stopped,question5_2.started,question5_2.stopped,question6_2.started,question6_2.stopped,image_15.started,image_15.stopped,key_resp.keys,key_resp.started,key_resp.stopped,text_59.started,text_59.stopped,key_resp_19.keys,key_resp_19.rt,key_resp_19.started,key_resp_19.stopped,text_85.started,text_85.stopped,text_61.started,text_61.stopped,image_17.started,image_17.stopped,text_63.started,text_63.stopped,key_resp_24.keys,key_resp_24.rt,key_resp_24.started,key_resp_24.stopped,text_64.started,text_64.stopped,key_resp_20.keys,key_resp_20.rt,key_resp_20.started,key_resp_20.stopped,storyImage_StartTime,storyImage_EndTime,clip_StartTime,clip_EndTime,text_67.started,text_67.stopped,text_68.started,text_68.stopped,participant,sA,sB,lA,lB,block_struct,play_stories,block,behavioral,random_seed,date,expName,psychopyVersion,frameRate,
0,,,,,,,,,,0,0,0,0,0,0,0,0,0,0,0,0,0,0,0,0,0,0,0,0,,,,,,,,,,,,,,,,,[33 13 23 44 24 43 34 14],[2 2 3 1 1 3 4 4],14.367595744999562,None,equal,23.673705662999964,14.367595744999562,None,23.708878114000072,14.367595744999562,None,14.367595744999562,None,0.0003822859998763306,5.994273909000185,38.06710751100036,None,44.07276155999989,None,44.07276155999989,None,1,1.190727292999327,44.07276155999989,None,44.07276155999989,None,45.2839390299996,None,1,0.8465562930005035,45.2839390299996,None,45.2839390299996,None,46.172496109999884,None,46.172496109999884,None,46.172496109999884,None,1,0.8600444950006931,46.172496109999884,None,47.051153188999706,None,1,0.876335100999313,47.051153188999706,None,47.051153188999706,None,48.033998863000306,None,48.033998863000306,None,48.033998863000306,None,48.033998863000306,None,48.033998863000306,None,48.033998863000306,None,48.033998863000306,None,None,48.033998863000306,None,,,,,,,,,,,,,,,,,,,,,,,,,,,,,,,,,030422,1,3,0,2,3,1,2,0,52,2022_Mar_04_1211,listening_fmri,3.2.4,60.20021483749956,
0,,,,,,,,,,0,0,0,0,0,0,0,0,0,0,0,0,0,0,0,0,,,,,,,,,,,,,,,,,,,,,,,,,,,,,,,,,,,,,,,,,,,,,,,,,,,,,,,,,,,,,,,,,,,,,,,,,,,,,,,,,,,,,,,,,,,65.28405733900036,None,1,0.7083244300001752,65.28405733900036,None,65.28405733900036,None,66.03499374500007,None,66.03499374500007,None,66.03499374500007,None,1,0.47549475000050734,66.03499374500007,None,,,,,,,,,,,,,,,030422,1,3,0,2,3,1,2,0,52,2022_Mar_04_1211,listening_fmri,3.2.4,60.20021483749956,
0,parcelated_audio/33/33_1.ogg,,,,,,,,,0,0,0,0,0,0,0,0,0,0,0,0,,,,,,,,,,,,,0,0,0,0,0,0,0,0,,,,,,,,,,,,,,,,,,,,,,,,,,,,,,,,,,,,,,,,,,,,,,,,,,,,,,,,,,,,,,,,,,,,,,,,,,,,,,,,,,,,,,,,,,,,,66.5335008359998,None,1,1.1219568679998702,66.5335008359998,None,29.63333443600004,32.64390460899995,32.64886707200003,42.63101109699983,,,,,030422,1,3,0,2,3,1,2,0,52,2022_Mar_04_1211,listening_fmri,3.2.4,60.20021483749956,
0,parcelated_audio/33/33_2.ogg,,,,,,,,,0,0,0,0,0,0,0,0,0,0,0,0,,,,,,,,,,,,,0,0,0,0,0,1,1,1,,,,,,,,,,,,,,,,,,,,,,,,,,,,,,,,,,,,,,,,,,,,,,,,,,,,,,,,,,,,,,,,,,,,,,,,,,,,,,,,,,,,,,,,,,,,,,,,,,,,,42.63134474399976,53.07686126800036,,,,,030422,1,3,0,2,3,1,2,0,52,2022_Mar_04_1211,listening_fmri,3.2.4,60.20021483749956,
0,parcelated_audio/33/33_3.ogg,,,,,,,,,0,0,0,0,0,0,0,0,0,0,0,0,,,,,,,,,,,,,0,0,0,0,0,2,2,2,,,,,,,,,,,,,,,,,,,,,,,,,,,,,,,,,,,,,,,,,,,,,,,,,,,,,,,,,,,,,,,,,,,,,,,,,,,,,,,,,,,,,,,,,,,,,,,,,,,,,53.077139736999925,59.625988851999864,,,,,030422,1,3,0,2,3,1,2,0,52,2022_Mar_04_1211,listening_fmri,3.2.4,60.20021483749956,
0,parcelated_audio/33/33_4.ogg,,,,,,,,,0,0,0,0,0,0,0,0,0,0,0,0,,,,,,,,,,,,,0,0,0,0,0,3,3,3,,,,,,,,,,,,,,,,,,,,,,,,,,,,,,,,,,,,,,,,,,,,,,,,,,,,,,,,,,,,,,,,,,,,,,,,,,,,,,,,,,,,,,,,,,,,,,,,,,,,,59.62626248900051,63.223520436999934,,,,,030422,1,3,0,2,3,1,2,0,52,2022_Mar_04_1211,listening_fmri,3.2.4,60.20021483749956,
0,parcelated_audio/33/33_5.ogg,,,,,,,,,0,0,0,0,0,0,0,0,0,0,0,0,,,,,,,,,,,,,0,0,0,0,0,4,4,4,,,,,,,,,,,,,,,,,,,,,,,,,,,,,,,,,,,,,,,,,,,,,,,,,,,,,,,,,,,,,,,,,,,,,,,,,,,,,,,,,,,,,,,,,,,,,,,,,,,,,63.22413297700041,74.48742183700051,,,,,030422,1,3,0,2,3,1,2,0,52,2022_Mar_04_1211,listening_fmri,3.2.4,60.20021483749956,
0,parcelated_audio/33/33_6.ogg,,,,,,,,,0,0,0,0,0,0,0,0,0,0,0,0,,,,,,,,,,,,,0,0,0,0,0,5,5,5,,,,,,,,,,,,,,,,,,,,,,,,,,,,,,,,,,,,,,,,,,,,,,,,,,,,,,,,,,,,,,,,,,,,,,,,,,,,,,,,,,,,,,,,,,,,,,,,,,,,,74.48769714900027,86.19088608400034,,,,,030422,1,3,0,2,3,1,2,0,52,2022_Mar_04_1211,listening_fmri,3.2.4,60.20021483749956,
0,parcelated_audio/33/33_7.ogg,,,,,,,,,0,0,0,0,0,0,0,0,0,0,0,0,,,,,,,,,,,,,0,0,0,0,0,6,6,6,,,,,,,,,,,,,,,,,,,,,,,,,,,,,,,,,,,,,,,,,,,,,,,,,,,,,,,,,,,,,,,,,,,,,,,,,,,,,,,,,,,,,,,,,,,,,,,,,,,,,86.19119200200021,100.73799408400009,,,,,030422,1,3,0,2,3,1,2,0,52,2022_Mar_04_1211,listening_fmri,3.2.4,60.20021483749956,
0,parcelated_audio/33/33_8.ogg,,,,,,,,,0,0,0,0,0,0,0,0,0,0,0,0,,,,,,,,,,,,,0,0,0,0,0,7,7,7,,,,,,,,,,,,,,,,,,,,,,,,,,,,,,,,,,,,,,,,,,,,,,,,,,,,,,,,,,,,,,,,,,,,,,,,,,,,,,,,,,,,,,,,,,,,,,,,,,,,,100.73826539899983,106.89272379500017,,,,,030422,1,3,0,2,3,1,2,0,52,2022_Mar_04_1211,listening_fmri,3.2.4,60.20021483749956,
0,parcelated_audio/33/33_9.ogg,,,,,,,,,0,0,0,0,0,0,0,0,0,0,0,0,,,,,,,,,,,,,0,0,0,0,0,8,8,8,,,,,,,,,,,,,,,,,,,,,,,,,,,,,,,,,,,,,,,,,,,,,,,,,,,,,,,,,,,,,,,,,,,,,,,,,,,,,,,,,,,,,,,,,,,,,,,,,,,,,106.89306737600054,110.60705949299972,,,,,030422,1,3,0,2,3,1,2,0,52,2022_Mar_04_1211,listening_fmri,3.2.4,60.20021483749956,
0,parcelated_audio/33/33_10.ogg,,,,,,,,,0,0,0,0,0,0,0,0,0,0,0,0,,,,,,,,,,,,,0,0,0,0,0,9,9,9,,,,,,,,,,,,,,,,,,,,,,,,,,,,,,,,,,,,,,,,,,,,,,,,,,,,,,,,,,,,,,,,,,,,,,,,,,,,,,,,,,,,,,,,,,,,,,,,,,,,,110.60736353900029,115.97743623800034,,,,,030422,1,3,0,2,3,1,2,0,52,2022_Mar_04_1211,listening_fmri,3.2.4,60.20021483749956,
0,parcelated_audio/33/33_11.ogg,,,,,,,,,0,0,0,0,0,0,0,0,0,0,0,0,,,,,,,,,,,,,0,0,0,0,0,10,10,10,,,,,,,,,,,,,,,,,,,,,,,,,,,,,,,,,,,,,,,,,,,,,,,,,,,,,,,,,,,,,,,,,,,,,,,,,,,,,,,,,,,,,,,,,,,,,,,,,,,,,115.9777153820005,130.40652759600016,,,,,030422,1,3,0,2,3,1,2,0,52,2022_Mar_04_1211,listening_fmri,3.2.4,60.20021483749956,
0,parcelated_audio/33/33_12.ogg,,,,,,,,,0,0,0,0,0,0,0,0,0,0,0,0,,,,,,,,,,,,,0,0,0,0,0,11,11,11,,,,,,,,,,,,,,,,,,,,,,,,,,,,,,,,,,,,,,,,,,,,,,,,,,,,,,,,,,,,,,,,,,,,,,,,,,,,,,,,,,,,,,,,,,,,,,,,,,,,,130.40693463800017,136.52791602199977,,,,,030422,1,3,0,2,3,1,2,0,52,2022_Mar_04_1211,listening_fmri,3.2.4,60.20021483749956,
0,parcelated_audio/33/33_13.ogg,,,,,,,,,0,0,0,0,0,0,0,0,0,0,0,0,,,,,,,,,,,,,0,0,0,0,0,12,12,12,,,,,,,,,,,,,,,,,,,,,,,,,,,,,,,,,,,,,,,,,,,,,,,,,,,,,,,,,,,,,,,,,,,,,,,,,,,,,,,,,,,,,,,,,,,,,,,,,,,,,136.5282171529998,143.93459709699982,,,,,030422,1,3,0,2,3,1,2,0,52,2022_Mar_04_1211,listening_fmri,3.2.4,60.20021483749956,
0,parcelated_audio/33/33_14.ogg,,,,,,,,,0,0,0,0,0,0,0,0,0,0,0,0,,,,,,,,,,,,,0,0,0,0,0,13,13,13,,,,,,,,,,,,,,,,,,,,,,,,,,,,,,,,,,,,,,,,,,,,,,,,,,,,,,,,,,,,,,,,,,,,,,,,,,,,,,,,,,,,,,,,,,,,,,,,,,,,,143.93494860900046,156.37407476099997,,,,,030422,1,3,0,2,3,1,2,0,52,2022_Mar_04_1211,listening_fmri,3.2.4,60.20021483749956,
0,parcelated_audio/33/33_15.ogg,,,,,,,,,0,0,0,0,0,0,0,0,0,0,0,0,,,,,,,,,,,,,0,0,0,0,0,14,14,14,,,,,,,,,,,,,,,,,,,,,,,,,,,,,,,,,,,,,,,,,,,,,,,,,,,,,,,,,,,,,,,,,,,,,,,,,,,,,,,,,,,,,,,,,,,,,,,,,,,,,156.37435186099992,174.92098839899973,,,,,030422,1,3,0,2,3,1,2,0,52,2022_Mar_04_1211,listening_fmri,3.2.4,60.20021483749956,
0,parcelated_audio/33/33_16.ogg,,,,,,,,,0,0,0,0,0,0,0,0,0,0,0,0,,,,,,,,,,,,,0,0,0,0,0,15,15,15,,,,,,,,,,,,,,,,,,,,,,,,,,,,,,,,,,,,,,,,,,,,,,,,,,,,,,,,,,,,,,,,,,,,,,,,,,,,,,,,,,,,,,,,,,,,,,,,,,,,,174.921268004,187.15909436000038,,,,,030422,1,3,0,2,3,1,2,0,52,2022_Mar_04_1211,listening_fmri,3.2.4,60.20021483749956,
0,parcelated_audio/33/33_17.ogg,,,,,,,,,0,0,0,0,0,0,0,0,0,0,0,0,,,,,,,,,,,,,0,0,0,0,0,16,16,16,,,,,,,,,,,,,,,,,,,,,,,,,,,,,,,,,,,,,,,,,,,,,,,,,,,,,,,,,,,,,,,,,,,,,,,,,,,,,,,,,,,,,,,,,,,,,,,,,,,,,187.1593686670003,198.39713919899987,,,,,030422,1,3,0,2,3,1,2,0,52,2022_Mar_04_1211,listening_fmri,3.2.4,60.20021483749956,
0,parcelated_audio/33/33_18.ogg,,,,,,,,,0,0,0,0,0,0,0,0,0,0,0,0,,,,,,,,,,,,,0,0,0,0,0,17,17,17,,,,,,,,,,,,,,,,,,,,,,,,,,,,,,,,,,,,,,,,,,,,,,,,,,,,,,,,,,,,,,,,,,,,,,,,,,,,,,,,,,,,,,,,,,,,,,,,,,,,,198.3974146620003,206.87433163900005,,,,,030422,1,3,0,2,3,1,2,0,52,2022_Mar_04_1211,listening_fmri,3.2.4,60.20021483749956,
0,parcelated_audio/33/33_19.ogg,,,,,,,,,0,0,0,0,0,0,0,0,0,0,0,0,,,,,,,,,,,,,0,0,0,0,0,18,18,18,,,,,,,,,,,,,,,,,,,,,,,,,,,,,,,,,,,,,,,,,,,,,,,,,,,,,,,,,,,,,,,,,,,,,,,,,,,,,,,,,,,,,,,,,,,,,,,,,,,,,206.87463259600008,210.32486691600025,,,,,030422,1,3,0,2,3,1,2,0,52,2022_Mar_04_1211,listening_fmri,3.2.4,60.20021483749956,
0,parcelated_audio/33/33_20.ogg,,,,,,,,,0,0,0,0,0,0,0,0,0,0,0,0,,,,,,,,,,,,,0,0,0,0,0,19,19,19,,,,,,,,,,,,,,,,,,,,,,,,,,,,,,,,,,,,,,,,,,,,,,,,,,,,,,,,,,,,,,,,,,,,,,,,,,,,,,,,,,,,,,,,,,,,,,,,,,,,,210.32514691600045,217.22277845200006,,,,,030422,1,3,0,2,3,1,2,0,52,2022_Mar_04_1211,listening_fmri,3.2.4,60.20021483749956,
0,parcelated_audio/33/33_21.ogg,,,,,,,,,0,0,0,0,0,0,0,0,0,0,0,0,,,,,,,,,,,,,0,0,0,0,0,20,20,20,,,,,,,,,,,,,,,,,,,,,,,,,,,,,,,,,,,,,,,,,,,,,,,,,,,,,,,,,,,,,,,,,,,,,,,,,,,,,,,,,,,,,,,,,,,,,,,,,,,,,217.2230793280005,221.37014343700048,,,,,030422,1,3,0,2,3,1,2,0,52,2022_Mar_04_1211,listening_fmri,3.2.4,60.20021483749956,
0,parcelated_audio/33/33_22.ogg,,,,,,,,,0,0,0,0,0,0,0,0,0,0,0,0,,,,,,,,,,,,,0,0,0,0,0,21,21,21,,,,,,,,,,,,,,,,,,,,,,,,,,,,,,,,,,,,,,,,,,,,,,,,,,,,,,,,,,,,,,,,,,,,,,,,,,,,,,,,,,,,,,,,,,,,,,,,,,,,,221.37042227999973,233.19116678000046,,,,,030422,1,3,0,2,3,1,2,0,52,2022_Mar_04_1211,listening_fmri,3.2.4,60.20021483749956,
0,parcelated_audio/33/33_23.ogg,,,,,,,,,0,0,0,0,0,0,0,0,0,0,0,0,,,,,,,,,,,,,0,0,0,0,0,22,22,22,,,,,,,,,,,,,,,,,,,,,,,,,,,,,,,,,,,,,,,,,,,,,,,,,,,,,,,,,,,,,,,,,,,,,,,,,,,,,,,,,,,,,,,,,,,,,,,,,,,,,233.1914598610001,243.67368088000057,,,,,030422,1,3,0,2,3,1,2,0,52,2022_Mar_04_1211,listening_fmri,3.2.4,60.20021483749956,
0,parcelated_audio/33/33_24.ogg,,,,,,,,,0,0,0,0,0,0,0,0,0,0,0,0,,,,,,,,,,,,,0,0,0,0,0,23,23,23,,,,,,,,,,,,,,,,,,,,,,,,,,,,,,,,,,,,,,,,,,,,,,,,,,,,,,,,,,,,,,,,,,,,,,,,,,,,,,,,,,,,,,,,,,,,,,,,,,,,,243.67402155200034,249.93554495599983,,,,,030422,1,3,0,2,3,1,2,0,52,2022_Mar_04_1211,listening_fmri,3.2.4,60.20021483749956,
0,parcelated_audio/33/33_25.ogg,,,,,,,,,0,0,0,0,0,0,0,0,0,0,0,0,,,,,,,,,,,,,0,0,0,0,0,24,24,24,,,,,,,,,,,,,,,,,,,,,,,,,,,,,,,,,,,,,,,,,,,,,,,,,,,,,,,,,,,,,,,,,,,,,,,,,,,,,,,,,,,,,,,,,,,,,,,,,,,,,249.93634223299978,258.14027070500015,,,,,030422,1,3,0,2,3,1,2,0,52,2022_Mar_04_1211,listening_fmri,3.2.4,60.20021483749956,
0,parcelated_audio/33/33_26.ogg,,,,,,,,,0,0,0,0,0,0,0,0,0,0,0,0,,,,,,,,,,,,,0,0,0,0,0,25,25,25,,,,,,,,,,,,,,,,,,,,,,,,,,,,,,,,,,,,,,,,,,,,,,,,,,,,,,,,,,,,,,,,,,,,,,,,,,,,,,,,,,,,,,,,,,,,,,,,,,,,,258.14054058500005,265.2091838670003,,,,,030422,1,3,0,2,3,1,2,0,52,2022_Mar_04_1211,listening_fmri,3.2.4,60.20021483749956,
0,parcelated_audio/33/33_27.ogg,,,,,,,,,0,0,0,0,0,0,0,0,0,0,0,0,,,,,,,,,,,,,0,0,0,0,0,26,26,26,,,,,,,,,,,,,,,,,,,,,,,,,,,,,,,,,,,,,,,,,,,,,,,,,,,,,,,,,,,,,,,,,,,,,,,,,,,,,,,,,,,,,,,,,,,,,,,,,,,,,265.20945936499993,272.75521399900026,,,,,030422,1,3,0,2,3,1,2,0,52,2022_Mar_04_1211,listening_fmri,3.2.4,60.20021483749956,
0,parcelated_audio/33/33_28.ogg,,,,,,,,,0,0,0,0,0,0,0,0,0,0,0,0,,,,,,,,,,,,,0,0,0,0,0,27,27,27,,,,,,,,,,,,,,,,,,,,,,,,,,,,,,,,,,,,,,,,,,,,,,,,,,,,,,,,,,,,,,,,,,,,,,,,,,,,,,,,,,,,,,,,,,,,,,,,,,,,,272.7560092800004,278.4542223389999,,,,,030422,1,3,0,2,3,1,2,0,52,2022_Mar_04_1211,listening_fmri,3.2.4,60.20021483749956,
0,parcelated_audio/33/33_29.ogg,,,,,,,,,0,0,0,0,0,0,0,0,0,0,0,0,,,,,,,,,,,,,0,0,0,0,0,28,28,28,,,,,,,,,,,,,,,,,,,,,,,,,,,,,,,,,,,,,,,,,,,,,,,,,,,,,,,,,,,,,,,,,,,,,,,,,,,,,,,,,,,,,,,,,,,,,,,,,,,,,278.4544937090004,286.37906289200055,,,,,030422,1,3,0,2,3,1,2,0,52,2022_Mar_04_1211,listening_fmri,3.2.4,60.20021483749956,
0,parcelated_audio/33/33_30.ogg,,,,,,,,,0,0,0,0,0,0,0,0,0,0,0,0,,,,,,,,,,,,,0,0,0,0,0,29,29,29,,,,,,,,,,,,,,,,,,,,,,,,,,,,,,,,,,,,,,,,,,,,,,,,,,,,,,,,,,,,,,,,,,,,,,,,,,,,,,,,,,,,,,,,,,,,,,,,,,,,,286.3793391979998,301.3539128230004,,,,,030422,1,3,0,2,3,1,2,0,52,2022_Mar_04_1211,listening_fmri,3.2.4,60.20021483749956,
0,parcelated_audio/33/33_31.ogg,,,,,,,,,0,0,0,0,0,0,0,0,0,0,0,0,,,,,,,,,,,,,0,0,0,0,0,30,30,30,,,,,,,,,,,,,,,,,,,,,,,,,,,,,,,,,,,,,,,,,,,,,,,,,,,,,,,,,,,,,,,,,,,,,,,,,,,,,,,,,,,,,,,,,,,,,,,,,,,,,301.3543012420005,311.10680552400026,,,,,030422,1,3,0,2,3,1,2,0,52,2022_Mar_04_1211,listening_fmri,3.2.4,60.20021483749956,
0,parcelated_audio/33/33_32.ogg,,,,,,,,,0,0,0,0,0,0,0,0,0,0,0,0,,,,,,,,,,,,,0,0,0,0,0,31,31,31,,,,,,,,,,,,,,,,,,,,,,,,,,,,,,,,,,,,,,,,,,,,,,,,,,,,,,,,,,,,,,,,,,,,,,,,,,,,,,,,,,,,,,,,,,,,,,,,,,,,,311.10725480200017,316.7387831420001,,,,,030422,1,3,0,2,3,1,2,0,52,2022_Mar_04_1211,listening_fmri,3.2.4,60.20021483749956,
0,,,,,,,,,,0,0,0,0,0,0,0,0,0,0,0,0,,,,,,,,,,,,,0,0,0,0,,,,,,,,,,,,,,,,,,,,,,,,,,,,,,,,,,,,,,,,,,,,,,,,,,,,,,,,,,,,,,,,,,,,,,,,,,,,,,,,,,,,,,,,,,,,,,,,,,,,,,,,,,,,,,,030422,1,3,0,2,3,1,2,0,52,2022_Mar_04_1211,listening_fmri,3.2.4,60.20021483749956,
0,,,,,,,,,,0,0,0,0,0,0,0,0,0,0,0,0,,,,,,,,,,,,,,,,,,,,,,,,,,,,,,,,,,,,,,316.7391696710001,322.7434951760006,354.80189227899973,None,,,,,,,,,,,,,,,,,,,,,,,,,,,,,,,,,,,,,,,,,,,,,,,,,,,,,,,,,,,,,,,,,,,,,,,,,,,,,,,,,,360.8172871119996,None,360.8172871119996,None,030422,1,3,0,2,3,1,2,0,52,2022_Mar_04_1211,listening_fmri,3.2.4,60.20021483749956,
0,,,,,,,,,,0,0,0,0,0,0,0,0,,,,,,,,,,,,,,,,,,,,,,,,,,,,,,,,,,,,,,,,,,,,,,,,,,,,,,,,,,,,,,,,,,,,,,,,,,,,,,,,,,,,,,,,,,,,,,,,,,,,,,,,,,,,,,,,,,,,,,,,,,,,,,,,,,,030422,1,3,0,2,3,1,2,0,52,2022_Mar_04_1211,listening_fmri,3.2.4,60.20021483749956,
1,,,,,,,,,,0,0,0,0,0,1,1,1,0,0,0,0,0,0,0,0,0,0,0,0,,,,,,,,,,,,,,,,,,,,,,,,,,,,,,,,,,361.8179879290001,None,361.8179879290001,None,1,0.9154361020000579,361.8179879290001,None,361.8179879290001,None,362.7520049049999,None,1,0.8464976049999677,362.7520049049999,None,362.7520049049999,None,363.6348540460003,None,363.6348540460003,None,363.6348540460003,None,6,1.2586475699999937,363.6348540460003,None,364.9184063700004,None,6,1.471992083999794,364.9184063700004,None,364.9184063700004,None,366.5018709699998,None,366.5018709699998,None,366.5018709699998,None,366.5018709699998,None,366.5018709699998,None,366.5018709699998,None,366.5018709699998,None,None,366.5018709699998,None,,,,,,,,,,,,,,,,,,,,,,,,,,,,,,,,,030422,1,3,0,2,3,1,2,0,52,2022_Mar_04_1211,listening_fmri,3.2.4,60.20021483749956,
1,,,,,,,,,,0,0,0,0,0,1,1,1,0,0,0,0,0,0,0,0,,,,,,,,,,,,,,,,,,,,,,,,,,,,,,,,,,,,,,,,,,,,,,,,,,,,,,,,,,,,,,,,,,,,,,,,,,,,,,,,,,,,,,,,,,,385.86708177200035,None,1,2.076420735999818,385.86708177200035,None,385.86708177200035,None,387.98476175999986,None,387.98476175999986,None,387.98476175999986,None,1,0.4407571049996477,387.98476175999986,None,,,,,,,,,,,,,,,030422,1,3,0,2,3,1,2,0,52,2022_Mar_04_1211,listening_fmri,3.2.4,60.20021483749956,
1,parcelated_audio/13/13_1.ogg,,,,,,,,,0,0,0,0,0,1,1,1,0,0,0,0,,,,,,,,,,,,,0,0,0,0,0,0,0,0,,,,,,,,,,,,,,,,,,,,,,,,,,,,,,,,,,,,,,,,,,,,,,,,,,,,,,,,,,,,,,,,,,,,,,,,,,,,,,,,,,,,,,,,,,,,,388.45094881800014,None,1,0.8245520489999763,388.45094881800014,None,351.23823311700016,354.24445555200055,354.2526315390005,365.9504909699999,,,,,030422,1,3,0,2,3,1,2,0,52,2022_Mar_04_1211,listening_fmri,3.2.4,60.20021483749956,
1,parcelated_audio/13/13_2.ogg,,,,,,,,,0,0,0,0,0,1,1,1,0,0,0,0,,,,,,,,,,,,,0,0,0,0,0,1,1,1,,,,,,,,,,,,,,,,,,,,,,,,,,,,,,,,,,,,,,,,,,,,,,,,,,,,,,,,,,,,,,,,,,,,,,,,,,,,,,,,,,,,,,,,,,,,,,,,,,,,,365.95122025300043,372.0738952370002,,,,,030422,1,3,0,2,3,1,2,0,52,2022_Mar_04_1211,listening_fmri,3.2.4,60.20021483749956,
1,parcelated_audio/13/13_3.ogg,,,,,,,,,0,0,0,0,0,1,1,1,0,0,0,0,,,,,,,,,,,,,0,0,0,0,0,2,2,2,,,,,,,,,,,,,,,,,,,,,,,,,,,,,,,,,,,,,,,,,,,,,,,,,,,,,,,,,,,,,,,,,,,,,,,,,,,,,,,,,,,,,,,,,,,,,,,,,,,,,372.0741830670004,380.4404639710001,,,,,030422,1,3,0,2,3,1,2,0,52,2022_Mar_04_1211,listening_fmri,3.2.4,60.20021483749956,
1,parcelated_audio/13/13_4.ogg,,,,,,,,,0,0,0,0,0,1,1,1,0,0,0,0,,,,,,,,,,,,,0,0,0,0,0,3,3,3,,,,,,,,,,,,,,,,,,,,,,,,,,,,,,,,,,,,,,,,,,,,,,,,,,,,,,,,,,,,,,,,,,,,,,,,,,,,,,,,,,,,,,,,,,,,,,,,,,,,,380.440884699,390.6911132739997,,,,,030422,1,3,0,2,3,1,2,0,52,2022_Mar_04_1211,listening_fmri,3.2.4,60.20021483749956,
1,parcelated_audio/13/13_5.ogg,,,,,,,,,0,0,0,0,0,1,1,1,0,0,0,0,,,,,,,,,,,,,0,0,0,0,0,4,4,4,,,,,,,,,,,,,,,,,,,,,,,,,,,,,,,,,,,,,,,,,,,,,,,,,,,,,,,,,,,,,,,,,,,,,,,,,,,,,,,,,,,,,,,,,,,,,,,,,,,,,390.6913917239999,396.74285123000027,,,,,030422,1,3,0,2,3,1,2,0,52,2022_Mar_04_1211,listening_fmri,3.2.4,60.20021483749956,
1,parcelated_audio/13/13_6.ogg,,,,,,,,,0,0,0,0,0,1,1,1,0,0,0,0,,,,,,,,,,,,,0,0,0,0,0,5,5,5,,,,,,,,,,,,,,,,,,,,,,,,,,,,,,,,,,,,,,,,,,,,,,,,,,,,,,,,,,,,,,,,,,,,,,,,,,,,,,,,,,,,,,,,,,,,,,,,,,,,,396.74312934499994,401.46078459,,,,,030422,1,3,0,2,3,1,2,0,52,2022_Mar_04_1211,listening_fmri,3.2.4,60.20021483749956,
1,parcelated_audio/13/13_7.ogg,,,,,,,,,0,0,0,0,0,1,1,1,0,0,0,0,,,,,,,,,,,,,0,0,0,0,0,6,6,6,,,,,,,,,,,,,,,,,,,,,,,,,,,,,,,,,,,,,,,,,,,,,,,,,,,,,,,,,,,,,,,,,,,,,,,,,,,,,,,,,,,,,,,,,,,,,,,,,,,,,401.4610612260003,409.1224605240004,,,,,030422,1,3,0,2,3,1,2,0,52,2022_Mar_04_1211,listening_fmri,3.2.4,60.20021483749956,
1,parcelated_audio/13/13_8.ogg,,,,,,,,,0,0,0,0,0,1,1,1,0,0,0,0,,,,,,,,,,,,,0,0,0,0,0,7,7,7,,,,,,,,,,,,,,,,,,,,,,,,,,,,,,,,,,,,,,,,,,,,,,,,,,,,,,,,,,,,,,,,,,,,,,,,,,,,,,,,,,,,,,,,,,,,,,,,,,,,,409.1229186090004,414.42578122600025,,,,,030422,1,3,0,2,3,1,2,0,52,2022_Mar_04_1211,listening_fmri,3.2.4,60.20021483749956,
1,parcelated_audio/13/13_9.ogg,,,,,,,,,0,0,0,0,0,1,1,1,0,0,0,0,,,,,,,,,,,,,0,0,0,0,0,8,8,8,,,,,,,,,,,,,,,,,,,,,,,,,,,,,,,,,,,,,,,,,,,,,,,,,,,,,,,,,,,,,,,,,,,,,,,,,,,,,,,,,,,,,,,,,,,,,,,,,,,,,414.4260589450005,419.03991498600044,,,,,030422,1,3,0,2,3,1,2,0,52,2022_Mar_04_1211,listening_fmri,3.2.4,60.20021483749956,
1,parcelated_audio/13/13_10.ogg,,,,,,,,,0,0,0,0,0,1,1,1,0,0,0,0,,,,,,,,,,,,,0,0,0,0,0,9,9,9,,,,,,,,,,,,,,,,,,,,,,,,,,,,,,,,,,,,,,,,,,,,,,,,,,,,,,,,,,,,,,,,,,,,,,,,,,,,,,,,,,,,,,,,,,,,,,,,,,,,,419.04019055699973,424.8506339639998,,,,,030422,1,3,0,2,3,1,2,0,52,2022_Mar_04_1211,listening_fmri,3.2.4,60.20021483749956,
