instructions,count,audio,trials_14.thisRepN,trials_14.thisTrialN,trials_14.thisN,trials_14.thisIndex,trials_13.thisRepN,trials_13.thisTrialN,trials_13.thisN,trials_13.thisIndex,trials_3.thisRepN,trials_3.thisTrialN,trials_3.thisN,trials_3.thisIndex,Block1.thisRepN,Block1.thisTrialN,Block1.thisN,Block1.thisIndex,trials_5.thisRepN,trials_5.thisTrialN,trials_5.thisN,trials_5.thisIndex,trials.thisRepN,trials.thisTrialN,trials.thisN,trials.thisIndex,trials_2.thisRepN,trials_2.thisTrialN,trials_2.thisN,trials_2.thisIndex,trials_22.thisRepN,trials_22.thisTrialN,trials_22.thisN,trials_22.thisIndex,trials_16.thisRepN,trials_16.thisTrialN,trials_16.thisN,trials_16.thisIndex,trials_23.thisRepN,trials_23.thisTrialN,trials_23.thisN,trials_23.thisIndex,story_list_block1,action_list_block1,key_resp_5.keys,key_resp_5.rt,key_resp_5.started,key_resp_5.stopped,text_87.started,text_87.stopped,text_88.started,text_88.stopped,key_resp_31.keys,key_resp_31.rt,key_resp_31.started,key_resp_31.stopped,text_89.started,text_89.stopped,image_27.started,image_27.stopped,text_97.started,text_97.stopped,image_24.started,image_24.stopped,key_resp_21.keys,key_resp_21.rt,key_resp_21.started,key_resp_21.stopped,text_78.started,text_78.stopped,text_96.started,text_96.stopped,image_28.started,image_28.stopped,key_resp_36.keys,key_resp_36.rt,key_resp_36.started,key_resp_36.stopped,text_94.started,text_94.stopped,text_95.started,text_95.stopped,text_90.started,text_90.stopped,key_resp_32.keys,key_resp_32.rt,key_resp_32.started,key_resp_32.stopped,text_91.started,text_91.stopped,key_resp_33.keys,key_resp_33.rt,key_resp_33.started,key_resp_33.stopped,text_92.started,text_92.stopped,key_resp_34.keys,key_resp_34.rt,key_resp_34.started,key_resp_34.stopped,text_93.started,text_93.stopped,key_resp_35.keys,key_resp_35.rt,key_resp_35.started,key_resp_35.stopped,text_98.started,text_98.stopped,text_99.started,text_99.stopped,key_resp_37.keys,key_resp_37.rt,key_resp_37.started,key_resp_37.stopped,textTrigger.started,textTrigger.stopped,getTrigger.keys,getTrigger.rt,getTrigger.started,getTrigger.stopped,triggerTime,text_76.started,text_76.stopped,text_77.started,text_77.stopped,startWait,endWait,image_23.started,image_23.stopped,text_38.started,text_38.stopped,key_resp_8.keys,key_resp_8.rt,key_resp_8.started,key_resp_8.stopped,text_39.started,text_39.stopped,text.started,text.stopped,text_50.started,text_50.stopped,key_resp_14.keys,key_resp_14.rt,key_resp_14.started,key_resp_14.stopped,storyImage_StartTime,storyImage_EndTime,clip_StartTime,clip_EndTime,text_6.started,text_6.stopped,text_52.started,text_52.stopped,participant,sA,sB,lA,lB,block_struct,play_stories,block,behavioral,random_seed,date,expName,psychopyVersion,frameRate,
Welcome to the story listening part of the experiment. ,,,0,0,0,0,0,0,0,0,,,,,,,,,,,,,,,,,,,,,,,,,,,,,,,,,[21 12 11 42 41 22 31 32],[3 4 2 1 3 1 2 4],1,1.6862335309997434,11.736094324999613,None,11.736094324999613,None,11.736094324999613,None,,,,,,,,,,,,,,,,,,,,,,,,,,,,,,,,,,,,,,,,,,,,,,,,,,,,,,,,,,,,,,,,,,,,,,,,,,,,,,,,,,,,,,,,,,,,,,,,,,,,,,030422,1,3,0,2,3,1,1,0,52,2022_Mar_04_1127,listening_fmri,3.2.4,60.148365808718644,
"As a reminder, you will listen to 12 short stories.",,,0,0,0,0,0,1,1,1,,,,,,,,,,,,,,,,,,,,,,,,,,,,,,,,,,,1,1.0039697189995422,13.464394513000116,None,13.464394513000116,None,13.464394513000116,None,,,,,,,,,,,,,,,,,,,,,,,,,,,,,,,,,,,,,,,,,,,,,,,,,,,,,,,,,,,,,,,,,,,,,,,,,,,,,,,,,,,,,,,,,,,,,,,,,,,,,,030422,1,3,0,2,3,1,1,0,52,2022_Mar_04_1127,listening_fmri,3.2.4,60.148365808718644,
These stories will be divided into 2 blocks of 6 stories.,,,0,0,0,0,0,2,2,2,,,,,,,,,,,,,,,,,,,,,,,,,,,,,,,,,,,1,0.5242420510003285,14.487032334000105,None,14.487032334000105,None,14.487032334000105,None,,,,,,,,,,,,,,,,,,,,,,,,,,,,,,,,,,,,,,,,,,,,,,,,,,,,,,,,,,,,,,,,,,,,,,,,,,,,,,,,,,,,,,,,,,,,,,,,,,,,,,030422,1,3,0,2,3,1,1,0,52,2022_Mar_04_1127,listening_fmri,3.2.4,60.148365808718644,
"Before some of the stories, we will ask you to take on the perspective of a job. ",,,0,0,0,0,0,3,3,3,,,,,,,,,,,,,,,,,,,,,,,,,,,,,,,,,,,1,0.47307624600034615,15.036208581999745,None,15.036208581999745,None,15.036208581999745,None,,,,,,,,,,,,,,,,,,,,,,,,,,,,,,,,,,,,,,,,,,,,,,,,,,,,,,,,,,,,,,,,,,,,,,,,,,,,,,,,,,,,,,,,,,,,,,,,,,,,,,030422,1,3,0,2,3,1,1,0,52,2022_Mar_04_1127,listening_fmri,3.2.4,60.148365808718644,
Please “simulate” this job while you listen to the story that follows.,,,0,0,0,0,0,4,4,4,,,,,,,,,,,,,,,,,,,,,,,,,,,,,,,,,,,1,0.418216260999543,15.548058018999654,None,15.548058018999654,None,15.548058018999654,None,,,,,,,,,,,,,,,,,,,,,,,,,,,,,,,,,,,,,,,,,,,,,,,,,,,,,,,,,,,,,,,,,,,,,,,,,,,,,,,,,,,,,,,,,,,,,,,,,,,,,,030422,1,3,0,2,3,1,1,0,52,2022_Mar_04_1127,listening_fmri,3.2.4,60.148365808718644,
"Before you begin, we will go over how to use the button box:",,,0,0,0,0,0,5,5,5,,,,,,,,,,,,,,,,,,,,,,,,,,,,,,,,,,,1,0.5383773789999395,15.985949948999405,None,15.985949948999405,None,15.985949948999405,None,,,,,,,,,,,,,,,,,,,,,,,,,,,,,,,,,,,,,,,,,,,,,,,,,,,,,,,,,,,,,,,,,,,,,,,,,,,,,,,,,,,,,,,,,,,,,,,,,,,,,,030422,1,3,0,2,3,1,1,0,52,2022_Mar_04_1127,listening_fmri,3.2.4,60.148365808718644,
"In this experiment, you'll use the first three fingers on each hand to do the quizzes and advance through the experiment. ",,,0,0,0,0,0,6,6,6,,,,,,,,,,,,,,,,,,,,,,,,,,,,,,,,,,,1,0.44859376899967174,16.564764792999995,None,16.564764792999995,None,16.564764792999995,None,,,,,,,,,,,,,,,,,,,,,,,,,,,,,,,,,,,,,,,,,,,,,,,,,,,,,,,,,,,,,,,,,,,,,,,,,,,,,,,,,,,,,,,,,,,,,,,,,,,,,,030422,1,3,0,2,3,1,1,0,52,2022_Mar_04_1127,listening_fmri,3.2.4,60.148365808718644,
,,,0,0,0,0,,,,,,,,,,,,,,,,,,,,,,,,,,,,,,,,,,,,,,,,,,,,,,,9,1.337450245000582,17.03691161400002,None,17.03691161400002,None,17.03691161400002,None,17.03691161400002,None,18.403710284000226,None,8,0.4626452020002034,18.403710284000226,None,18.403710284000226,None,18.403710284000226,None,18.403710284000226,None,1,2.1204411459993935,18.886929481000152,None,18.886929481000152,None,18.886929481000152,None,21.036864705999506,None,1,0.9114259110001512,21.036864705999506,None,21.970149908000167,None,8,1.7381362119995174,21.970149908000167,None,23.73675580500003,None,6,0.8995483059998151,23.73675580500003,None,24.670118430999537,None,2,1.9091901729998426,24.670118430999537,None,26.603308693000145,None,26.603308693000145,None,2,1.1269784770001934,26.603308693000145,None,,,,,,,,,,,,,,,,,,,,,,,,,,,,,,,,,,,,,,,,030422,1,3,0,2,3,1,1,0,52,2022_Mar_04_1127,listening_fmri,3.2.4,60.148365808718644,
,0,,,,,,,,,,0,0,0,0,0,0,0,0,,,,,,,,,,,,,,,,,,,,,,,,,,,,,,,,,,,,,,,,,,,,,,,,,,,,,,,,,,,,,,,,,,,,,,,,,,,,,,,,,,,,,,,,,,,,,,,,,27.753109270000095,None,equal,25.00021072599975,27.753109270000095,None,41.041297954000584,27.753109270000095,None,27.753109270000095,None,0.0004182329994364409,5.999038110999209,52.77068365499963,None,,,,,,,,,,,,,,,,,,,,,,,,,030422,1,3,0,2,3,1,1,0,52,2022_Mar_04_1127,listening_fmri,3.2.4,60.148365808718644,
,1,parcelated_audio/12/12_1.ogg,,,,,,,,,0,0,0,0,0,1,1,1,0,0,0,0,,,,,,,,,0,0,0,0,0,0,0,0,,,,,,,,,,,,,,,,,,,,,,,,,,,,,,,,,,,,,,,,,,,,,,,,,,,,,,,,,,,,,,,,,,,,,,,,,,,,,,,,,,,,,,,,,,,,58.76952428699951,None,1,1.5199511780001558,58.76952428699951,None,58.76952428699951,None,58.76952428699951,None,60.32030884899996,None,1,2.159164341000178,60.32030884899996,None,9.742316850999487,12.749626526999236,12.757675932999518,22.62918339099997,,,,,030422,1,3,0,2,3,1,1,0,52,2022_Mar_04_1127,listening_fmri,3.2.4,60.148365808718644,
,1,parcelated_audio/12/12_2.ogg,,,,,,,,,0,0,0,0,0,1,1,1,0,0,0,0,,,,,,,,,0,0,0,0,0,1,1,1,,,,,,,,,,,,,,,,,,,,,,,,,,,,,,,,,,,,,,,,,,,,,,,,,,,,,,,,,,,,,,,,,,,,,,,,,,,,,,,,,,,,,,,,,,,,,,,,,,,,,,,,,,,,,,22.629621561999556,30.37875162399996,,,,,030422,1,3,0,2,3,1,1,0,52,2022_Mar_04_1127,listening_fmri,3.2.4,60.148365808718644,
,1,parcelated_audio/12/12_3.ogg,,,,,,,,,0,0,0,0,0,1,1,1,0,0,0,0,,,,,,,,,0,0,0,0,0,2,2,2,,,,,,,,,,,,,,,,,,,,,,,,,,,,,,,,,,,,,,,,,,,,,,,,,,,,,,,,,,,,,,,,,,,,,,,,,,,,,,,,,,,,,,,,,,,,,,,,,,,,,,,,,,,,,,30.37904760499987,37.712768300999414,,,,,030422,1,3,0,2,3,1,1,0,52,2022_Mar_04_1127,listening_fmri,3.2.4,60.148365808718644,
,1,parcelated_audio/12/12_4.ogg,,,,,,,,,0,0,0,0,0,1,1,1,0,0,0,0,,,,,,,,,0,0,0,0,0,3,3,3,,,,,,,,,,,,,,,,,,,,,,,,,,,,,,,,,,,,,,,,,,,,,,,,,,,,,,,,,,,,,,,,,,,,,,,,,,,,,,,,,,,,,,,,,,,,,,,,,,,,,,,,,,,,,,37.71305664200008,44.26193037199937,,,,,030422,1,3,0,2,3,1,1,0,52,2022_Mar_04_1127,listening_fmri,3.2.4,60.148365808718644,
,1,parcelated_audio/12/12_5.ogg,,,,,,,,,0,0,0,0,0,1,1,1,0,0,0,0,,,,,,,,,0,0,0,0,0,4,4,4,,,,,,,,,,,,,,,,,,,,,,,,,,,,,,,,,,,,,,,,,,,,,,,,,,,,,,,,,,,,,,,,,,,,,,,,,,,,,,,,,,,,,,,,,,,,,,,,,,,,,,,,,,,,,,44.262398813999425,52.213595548999365,,,,,030422,1,3,0,2,3,1,1,0,52,2022_Mar_04_1127,listening_fmri,3.2.4,60.148365808718644,
,1,parcelated_audio/12/12_6.ogg,,,,,,,,,0,0,0,0,0,1,1,1,0,0,0,0,,,,,,,,,0,0,0,0,0,5,5,5,,,,,,,,,,,,,,,,,,,,,,,,,,,,,,,,,,,,,,,,,,,,,,,,,,,,,,,,,,,,,,,,,,,,,,,,,,,,,,,,,,,,,,,,,,,,,,,,,,,,,,,,,,,,,,52.214155807999305,55.81570282499979,,,,,030422,1,3,0,2,3,1,1,0,52,2022_Mar_04_1127,listening_fmri,3.2.4,60.148365808718644,
,1,parcelated_audio/12/12_7.ogg,,,,,,,,,0,0,0,0,0,1,1,1,0,0,0,0,,,,,,,,,0,0,0,0,0,6,6,6,,,,,,,,,,,,,,,,,,,,,,,,,,,,,,,,,,,,,,,,,,,,,,,,,,,,,,,,,,,,,,,,,,,,,,,,,,,,,,,,,,,,,,,,,,,,,,,,,,,,,,,,,,,,,,55.81605498999943,66.14635038199958,,,,,030422,1,3,0,2,3,1,1,0,52,2022_Mar_04_1127,listening_fmri,3.2.4,60.148365808718644,
,1,parcelated_audio/12/12_8.ogg,,,,,,,,,0,0,0,0,0,1,1,1,0,0,0,0,,,,,,,,,0,0,0,0,0,7,7,7,,,,,,,,,,,,,,,,,,,,,,,,,,,,,,,,,,,,,,,,,,,,,,,,,,,,,,,,,,,,,,,,,,,,,,,,,,,,,,,,,,,,,,,,,,,,,,,,,,,,,,,,,,,,,,66.14662546499949,74.91203669099923,,,,,030422,1,3,0,2,3,1,1,0,52,2022_Mar_04_1127,listening_fmri,3.2.4,60.148365808718644,
,1,parcelated_audio/12/12_9.ogg,,,,,,,,,0,0,0,0,0,1,1,1,0,0,0,0,,,,,,,,,0,0,0,0,0,8,8,8,,,,,,,,,,,,,,,,,,,,,,,,,,,,,,,,,,,,,,,,,,,,,,,,,,,,,,,,,,,,,,,,,,,,,,,,,,,,,,,,,,,,,,,,,,,,,,,,,,,,,,,,,,,,,,74.91255785299927,78.79203266599961,,,,,030422,1,3,0,2,3,1,1,0,52,2022_Mar_04_1127,listening_fmri,3.2.4,60.148365808718644,
,1,parcelated_audio/12/12_10.ogg,,,,,,,,,0,0,0,0,0,1,1,1,0,0,0,0,,,,,,,,,0,0,0,0,0,9,9,9,,,,,,,,,,,,,,,,,,,,,,,,,,,,,,,,,,,,,,,,,,,,,,,,,,,,,,,,,,,,,,,,,,,,,,,,,,,,,,,,,,,,,,,,,,,,,,,,,,,,,,,,,,,,,,78.79238843799976,83.61090032899938,,,,,030422,1,3,0,2,3,1,1,0,52,2022_Mar_04_1127,listening_fmri,3.2.4,60.148365808718644,
,1,parcelated_audio/12/12_11.ogg,,,,,,,,,0,0,0,0,0,1,1,1,0,0,0,0,,,,,,,,,0,0,0,0,0,10,10,10,,,,,,,,,,,,,,,,,,,,,,,,,,,,,,,,,,,,,,,,,,,,,,,,,,,,,,,,,,,,,,,,,,,,,,,,,,,,,,,,,,,,,,,,,,,,,,,,,,,,,,,,,,,,,,83.61125281999921,86.48709098800009,,,,,030422,1,3,0,2,3,1,1,0,52,2022_Mar_04_1127,listening_fmri,3.2.4,60.148365808718644,
,1,parcelated_audio/12/12_12.ogg,,,,,,,,,0,0,0,0,0,1,1,1,0,0,0,0,,,,,,,,,0,0,0,0,0,11,11,11,,,,,,,,,,,,,,,,,,,,,,,,,,,,,,,,,,,,,,,,,,,,,,,,,,,,,,,,,,,,,,,,,,,,,,,,,,,,,,,,,,,,,,,,,,,,,,,,,,,,,,,,,,,,,,86.48761437399935,95.33214684999984,,,,,030422,1,3,0,2,3,1,1,0,52,2022_Mar_04_1127,listening_fmri,3.2.4,60.148365808718644,
,1,parcelated_audio/12/12_13.ogg,,,,,,,,,0,0,0,0,0,1,1,1,0,0,0,0,,,,,,,,,0,0,0,0,0,12,12,12,,,,,,,,,,,,,,,,,,,,,,,,,,,,,,,,,,,,,,,,,,,,,,,,,,,,,,,,,,,,,,,,,,,,,,,,,,,,,,,,,,,,,,,,,,,,,,,,,,,,,,,,,,,,,,95.33266870399984,100.58810248999998,,,,,030422,1,3,0,2,3,1,1,0,52,2022_Mar_04_1127,listening_fmri,3.2.4,60.148365808718644,
,1,parcelated_audio/12/12_14.ogg,,,,,,,,,0,0,0,0,0,1,1,1,0,0,0,0,,,,,,,,,0,0,0,0,0,13,13,13,,,,,,,,,,,,,,,,,,,,,,,,,,,,,,,,,,,,,,,,,,,,,,,,,,,,,,,,,,,,,,,,,,,,,,,,,,,,,,,,,,,,,,,,,,,,,,,,,,,,,,,,,,,,,,100.58845749099964,105.51473936799994,,,,,030422,1,3,0,2,3,1,1,0,52,2022_Mar_04_1127,listening_fmri,3.2.4,60.148365808718644,
,1,parcelated_audio/12/12_15.ogg,,,,,,,,,0,0,0,0,0,1,1,1,0,0,0,0,,,,,,,,,0,0,0,0,0,14,14,14,,,,,,,,,,,,,,,,,,,,,,,,,,,,,,,,,,,,,,,,,,,,,,,,,,,,,,,,,,,,,,,,,,,,,,,,,,,,,,,,,,,,,,,,,,,,,,,,,,,,,,,,,,,,,,105.51509874699968,111.49500740599979,,,,,030422,1,3,0,2,3,1,1,0,52,2022_Mar_04_1127,listening_fmri,3.2.4,60.148365808718644,
,1,parcelated_audio/12/12_16.ogg,,,,,,,,,0,0,0,0,0,1,1,1,0,0,0,0,,,,,,,,,0,0,0,0,0,15,15,15,,,,,,,,,,,,,,,,,,,,,,,,,,,,,,,,,,,,,,,,,,,,,,,,,,,,,,,,,,,,,,,,,,,,,,,,,,,,,,,,,,,,,,,,,,,,,,,,,,,,,,,,,,,,,,111.49537547699947,115.69326105499931,,,,,030422,1,3,0,2,3,1,1,0,52,2022_Mar_04_1127,listening_fmri,3.2.4,60.148365808718644,
,1,parcelated_audio/12/12_17.ogg,,,,,,,,,0,0,0,0,0,1,1,1,0,0,0,0,,,,,,,,,0,0,0,0,0,16,16,16,,,,,,,,,,,,,,,,,,,,,,,,,,,,,,,,,,,,,,,,,,,,,,,,,,,,,,,,,,,,,,,,,,,,,,,,,,,,,,,,,,,,,,,,,,,,,,,,,,,,,,,,,,,,,,115.69361512399973,120.66894815099931,,,,,030422,1,3,0,2,3,1,1,0,52,2022_Mar_04_1127,listening_fmri,3.2.4,60.148365808718644,
,1,parcelated_audio/12/12_18.ogg,,,,,,,,,0,0,0,0,0,1,1,1,0,0,0,0,,,,,,,,,0,0,0,0,0,17,17,17,,,,,,,,,,,,,,,,,,,,,,,,,,,,,,,,,,,,,,,,,,,,,,,,,,,,,,,,,,,,,,,,,,,,,,,,,,,,,,,,,,,,,,,,,,,,,,,,,,,,,,,,,,,,,,120.6695278799998,129.87603134899928,,,,,030422,1,3,0,2,3,1,1,0,52,2022_Mar_04_1127,listening_fmri,3.2.4,60.148365808718644,
,1,parcelated_audio/12/12_19.ogg,,,,,,,,,0,0,0,0,0,1,1,1,0,0,0,0,,,,,,,,,0,0,0,0,0,18,18,18,,,,,,,,,,,,,,,,,,,,,,,,,,,,,,,,,,,,,,,,,,,,,,,,,,,,,,,,,,,,,,,,,,,,,,,,,,,,,,,,,,,,,,,,,,,,,,,,,,,,,,,,,,,,,,129.87639651399968,139.8954262419993,,,,,030422,1,3,0,2,3,1,1,0,52,2022_Mar_04_1127,listening_fmri,3.2.4,60.148365808718644,
,1,parcelated_audio/12/12_20.ogg,,,,,,,,,0,0,0,0,0,1,1,1,0,0,0,0,,,,,,,,,0,0,0,0,0,19,19,19,,,,,,,,,,,,,,,,,,,,,,,,,,,,,,,,,,,,,,,,,,,,,,,,,,,,,,,,,,,,,,,,,,,,,,,,,,,,,,,,,,,,,,,,,,,,,,,,,,,,,,,,,,,,,,139.89608545200008,147.70275357799983,,,,,030422,1,3,0,2,3,1,1,0,52,2022_Mar_04_1127,listening_fmri,3.2.4,60.148365808718644,
,1,parcelated_audio/12/12_21.ogg,,,,,,,,,0,0,0,0,0,1,1,1,0,0,0,0,,,,,,,,,0,0,0,0,0,20,20,20,,,,,,,,,,,,,,,,,,,,,,,,,,,,,,,,,,,,,,,,,,,,,,,,,,,,,,,,,,,,,,,,,,,,,,,,,,,,,,,,,,,,,,,,,,,,,,,,,,,,,,,,,,,,,,147.70357283999965,153.19614069099953,,,,,030422,1,3,0,2,3,1,1,0,52,2022_Mar_04_1127,listening_fmri,3.2.4,60.148365808718644,
,1,parcelated_audio/12/12_22.ogg,,,,,,,,,0,0,0,0,0,1,1,1,0,0,0,0,,,,,,,,,0,0,0,0,0,21,21,21,,,,,,,,,,,,,,,,,,,,,,,,,,,,,,,,,,,,,,,,,,,,,,,,,,,,,,,,,,,,,,,,,,,,,,,,,,,,,,,,,,,,,,,,,,,,,,,,,,,,,,,,,,,,,,153.19649673299955,157.05294943599984,,,,,030422,1,3,0,2,3,1,1,0,52,2022_Mar_04_1127,listening_fmri,3.2.4,60.148365808718644,
,1,parcelated_audio/12/12_23.ogg,,,,,,,,,0,0,0,0,0,1,1,1,0,0,0,0,,,,,,,,,0,0,0,0,0,22,22,22,,,,,,,,,,,,,,,,,,,,,,,,,,,,,,,,,,,,,,,,,,,,,,,,,,,,,,,,,,,,,,,,,,,,,,,,,,,,,,,,,,,,,,,,,,,,,,,,,,,,,,,,,,,,,,157.05330796699945,163.91102929499993,,,,,030422,1,3,0,2,3,1,1,0,52,2022_Mar_04_1127,listening_fmri,3.2.4,60.148365808718644,
,1,parcelated_audio/12/12_24.ogg,,,,,,,,,0,0,0,0,0,1,1,1,0,0,0,0,,,,,,,,,0,0,0,0,0,23,23,23,,,,,,,,,,,,,,,,,,,,,,,,,,,,,,,,,,,,,,,,,,,,,,,,,,,,,,,,,,,,,,,,,,,,,,,,,,,,,,,,,,,,,,,,,,,,,,,,,,,,,,,,,,,,,,163.91131009299988,168.0448911479998,,,,,030422,1,3,0,2,3,1,1,0,52,2022_Mar_04_1127,listening_fmri,3.2.4,60.148365808718644,
,1,parcelated_audio/12/12_25.ogg,,,,,,,,,0,0,0,0,0,1,1,1,0,0,0,0,,,,,,,,,0,0,0,0,0,24,24,24,,,,,,,,,,,,,,,,,,,,,,,,,,,,,,,,,,,,,,,,,,,,,,,,,,,,,,,,,,,,,,,,,,,,,,,,,,,,,,,,,,,,,,,,,,,,,,,,,,,,,,,,,,,,,,168.04524472699995,178.3864920189999,,,,,030422,1,3,0,2,3,1,1,0,52,2022_Mar_04_1127,listening_fmri,3.2.4,60.148365808718644,
,1,parcelated_audio/12/12_26.ogg,,,,,,,,,0,0,0,0,0,1,1,1,0,0,0,0,,,,,,,,,0,0,0,0,0,25,25,25,,,,,,,,,,,,,,,,,,,,,,,,,,,,,,,,,,,,,,,,,,,,,,,,,,,,,,,,,,,,,,,,,,,,,,,,,,,,,,,,,,,,,,,,,,,,,,,,,,,,,,,,,,,,,,178.3868788359996,183.62686455499988,,,,,030422,1,3,0,2,3,1,1,0,52,2022_Mar_04_1127,listening_fmri,3.2.4,60.148365808718644,
,1,parcelated_audio/12/12_27.ogg,,,,,,,,,0,0,0,0,0,1,1,1,0,0,0,0,,,,,,,,,0,0,0,0,0,26,26,26,,,,,,,,,,,,,,,,,,,,,,,,,,,,,,,,,,,,,,,,,,,,,,,,,,,,,,,,,,,,,,,,,,,,,,,,,,,,,,,,,,,,,,,,,,,,,,,,,,,,,,,,,,,,,,183.62714120599958,191.2933274930001,,,,,030422,1,3,0,2,3,1,1,0,52,2022_Mar_04_1127,listening_fmri,3.2.4,60.148365808718644,
,1,parcelated_audio/12/12_28.ogg,,,,,,,,,0,0,0,0,0,1,1,1,0,0,0,0,,,,,,,,,0,0,0,0,0,27,27,27,,,,,,,,,,,,,,,,,,,,,,,,,,,,,,,,,,,,,,,,,,,,,,,,,,,,,,,,,,,,,,,,,,,,,,,,,,,,,,,,,,,,,,,,,,,,,,,,,,,,,,,,,,,,,,191.29359984799976,202.28531787499924,,,,,030422,1,3,0,2,3,1,1,0,52,2022_Mar_04_1127,listening_fmri,3.2.4,60.148365808718644,
,1,parcelated_audio/12/12_29.ogg,,,,,,,,,0,0,0,0,0,1,1,1,0,0,0,0,,,,,,,,,0,0,0,0,0,28,28,28,,,,,,,,,,,,,,,,,,,,,,,,,,,,,,,,,,,,,,,,,,,,,,,,,,,,,,,,,,,,,,,,,,,,,,,,,,,,,,,,,,,,,,,,,,,,,,,,,,,,,,,,,,,,,,202.28572903499935,208.38655059199937,,,,,030422,1,3,0,2,3,1,1,0,52,2022_Mar_04_1127,listening_fmri,3.2.4,60.148365808718644,
,1,parcelated_audio/12/12_30.ogg,,,,,,,,,0,0,0,0,0,1,1,1,0,0,0,0,,,,,,,,,0,0,0,0,0,29,29,29,,,,,,,,,,,,,,,,,,,,,,,,,,,,,,,,,,,,,,,,,,,,,,,,,,,,,,,,,,,,,,,,,,,,,,,,,,,,,,,,,,,,,,,,,,,,,,,,,,,,,,,,,,,,,,208.38683230199968,215.3281489129995,,,,,030422,1,3,0,2,3,1,1,0,52,2022_Mar_04_1127,listening_fmri,3.2.4,60.148365808718644,
,1,parcelated_audio/12/12_31.ogg,,,,,,,,,0,0,0,0,0,1,1,1,0,0,0,0,,,,,,,,,0,0,0,0,0,30,30,30,,,,,,,,,,,,,,,,,,,,,,,,,,,,,,,,,,,,,,,,,,,,,,,,,,,,,,,,,,,,,,,,,,,,,,,,,,,,,,,,,,,,,,,,,,,,,,,,,,,,,,,,,,,,,,215.32850544899975,222.47455337999963,,,,,030422,1,3,0,2,3,1,1,0,52,2022_Mar_04_1127,listening_fmri,3.2.4,60.148365808718644,
,1,,,,,,,,,,0,0,0,0,0,1,1,1,0,0,0,0,,,,,,,,,0,0,0,0,,,,,,,,,,,,,,,,,,,,,,,,,,,,,,,,,,,,,,,,,,,,,,,,,,,,,,,,,,,,,,,,,,,,,,,,,,,,,,,,,,,,,,,,,,,,,,,,,,,,,,,,,,,,,,,,,,,,,,,,030422,1,3,0,2,3,1,1,0,52,2022_Mar_04_1127,listening_fmri,3.2.4,60.148365808718644,
,,,,,,,,,,,,,,,,,,,,,,,,,,,,,,,,,,,,,,,,,,,,,,,,,,,,,,,,,,,,,,,,,,,,,,,,,,,,,,,,,,,,,,,,,,,,,,,,,,,,,,,,,,,,,,,,,,,,,,,,,,,,,,222.47495036799955,228.467104501,275.2376457979999,None,,,,,,,,,,,,,,,,,,,,,281.23790046199974,None,281.23790046199974,None,,,,,,,,,,,,,,,
﻿instructions,count,audio,trials_14.thisRepN,trials_14.thisTrialN,trials_14.thisN,trials_14.thisIndex,trials_13.thisRepN,trials_13.thisTrialN,trials_13.thisN,trials_13.thisIndex,trials_3.thisRepN,trials_3.thisTrialN,trials_3.thisN,trials_3.thisIndex,Block1.thisRepN,Block1.thisTrialN,Block1.thisN,Block1.thisIndex,trials_5.thisRepN,trials_5.thisTrialN,trials_5.thisN,trials_5.thisIndex,trials.thisRepN,trials.thisTrialN,trials.thisN,trials.thisIndex,trials_2.thisRepN,trials_2.thisTrialN,trials_2.thisN,trials_2.thisIndex,trials_22.thisRepN,trials_22.thisTrialN,trials_22.thisN,trials_22.thisIndex,trials_16.thisRepN,trials_16.thisTrialN,trials_16.thisN,trials_16.thisIndex,trials_23.thisRepN,trials_23.thisTrialN,trials_23.thisN,trials_23.thisIndex,story_list_block1,action_list_block1,key_resp_5.keys,key_resp_5.rt,key_resp_5.started,key_resp_5.stopped,text_87.started,text_87.stopped,text_88.started,text_88.stopped,key_resp_31.keys,key_resp_31.rt,key_resp_31.started,key_resp_31.stopped,text_89.started,text_89.stopped,image_27.started,image_27.stopped,text_97.started,text_97.stopped,image_24.started,image_24.stopped,key_resp_21.keys,key_resp_21.rt,key_resp_21.started,key_resp_21.stopped,text_78.started,text_78.stopped,text_96.started,text_96.stopped,image_28.started,image_28.stopped,key_resp_36.keys,key_resp_36.rt,key_resp_36.started,key_resp_36.stopped,text_94.started,text_94.stopped,text_95.started,text_95.stopped,text_90.started,text_90.stopped,key_resp_32.keys,key_resp_32.rt,key_resp_32.started,key_resp_32.stopped,text_91.started,text_91.stopped,key_resp_33.keys,key_resp_33.rt,key_resp_33.started,key_resp_33.stopped,text_92.started,text_92.stopped,key_resp_34.keys,key_resp_34.rt,key_resp_34.started,key_resp_34.stopped,text_93.started,text_93.stopped,key_resp_35.keys,key_resp_35.rt,key_resp_35.started,key_resp_35.stopped,text_98.started,text_98.stopped,text_99.started,text_99.stopped,key_resp_37.keys,key_resp_37.rt,key_resp_37.started,key_resp_37.stopped,textTrigger.started,textTrigger.stopped,getTrigger.keys,getTrigger.rt,getTrigger.started,getTrigger.stopped,triggerTime,text_76.started,text_76.stopped,text_77.started,text_77.stopped,startWait,endWait,image_23.started,image_23.stopped,text_38.started,text_38.stopped,key_resp_8.keys,key_resp_8.rt,key_resp_8.started,key_resp_8.stopped,text_39.started,text_39.stopped,text.started,text.stopped,text_50.started,text_50.stopped,key_resp_14.keys,key_resp_14.rt,key_resp_14.started,key_resp_14.stopped,storyImage_StartTime,storyImage_EndTime,clip_StartTime,clip_EndTime,text_6.started,text_6.stopped,text_52.started,text_52.stopped,participant,sA,sB,lA,lB,block_struct,play_stories,block,behavioral,random_seed,date,expName,psychopyVersion,frameRate,
Welcome to the story listening part of the experiment. ,,,0,0,0,0,0,0,0,0,,,,,,,,,,,,,,,,,,,,,,,,,,,,,,,,,[21 12 11 42 41 22 31 32],[3 4 2 1 3 1 2 4],1,1.816338067000288,10.70119025799977,None,10.70119025799977,None,10.70119025799977,None,,,,,,,,,,,,,,,,,,,,,,,,,,,,,,,,,,,,,,,,,,,,,,,,,,,,,,,,,,,,,,,,,,,,,,,,,,,,,,,,,,,,,,,,,,,,,,,,,,,,,,030422,1,3,0,2,3,1,1,0,52,2022_Mar_04_1141,listening_fmri,3.2.4,59.81269022046281,
"As a reminder, you will listen to 12 short stories.",,,0,0,0,0,0,1,1,1,,,,,,,,,,,,,,,,,,,,,,,,,,,,,,,,,,,1,0.9103142220001246,12.551231581999673,None,12.551231581999673,None,12.551231581999673,None,,,,,,,,,,,,,,,,,,,,,,,,,,,,,,,,,,,,,,,,,,,,,,,,,,,,,,,,,,,,,,,,,,,,,,,,,,,,,,,,,,,,,,,,,,,,,,,,,,,,,,030422,1,3,0,2,3,1,1,0,52,2022_Mar_04_1141,listening_fmri,3.2.4,59.81269022046281,
These stories will be divided into 2 blocks of 6 stories.,,,0,0,0,0,0,2,2,2,,,,,,,,,,,,,,,,,,,,,,,,,,,,,,,,,,,1,0.6401187760002358,13.485429072999978,None,13.485429072999978,None,13.485429072999978,None,,,,,,,,,,,,,,,,,,,,,,,,,,,,,,,,,,,,,,,,,,,,,,,,,,,,,,,,,,,,,,,,,,,,,,,,,,,,,,,,,,,,,,,,,,,,,,,,,,,,,,030422,1,3,0,2,3,1,1,0,52,2022_Mar_04_1141,listening_fmri,3.2.4,59.81269022046281,
"Before some of the stories, we will ask you to take on the perspective of a job. ",,,0,0,0,0,0,3,3,3,,,,,,,,,,,,,,,,,,,,,,,,,,,,,,,,,,,1,0.5488503960004891,14.152642776999528,None,14.152642776999528,None,14.152642776999528,None,,,,,,,,,,,,,,,,,,,,,,,,,,,,,,,,,,,,,,,,,,,,,,,,,,,,,,,,,,,,,,,,,,,,,,,,,,,,,,,,,,,,,,,,,,,,,,,,,,,,,,030422,1,3,0,2,3,1,1,0,52,2022_Mar_04_1141,listening_fmri,3.2.4,59.81269022046281,
Please “simulate” this job while you listen to the story that follows.,,,0,0,0,0,0,4,4,4,,,,,,,,,,,,,,,,,,,,,,,,,,,,,,,,,,,1,0.48972095299996,14.733776160000161,None,14.733776160000161,None,14.733776160000161,None,,,,,,,,,,,,,,,,,,,,,,,,,,,,,,,,,,,,,,,,,,,,,,,,,,,,,,,,,,,,,,,,,,,,,,,,,,,,,,,,,,,,,,,,,,,,,,,,,,,,,,030422,1,3,0,2,3,1,1,0,52,2022_Mar_04_1141,listening_fmri,3.2.4,59.81269022046281,
"Before you begin, we will go over how to use the button box:",,,0,0,0,0,0,5,5,5,,,,,,,,,,,,,,,,,,,,,,,,,,,,,,,,,,,1,0.40676969600008306,15.252709419999519,None,15.252709419999519,None,15.252709419999519,None,,,,,,,,,,,,,,,,,,,,,,,,,,,,,,,,,,,,,,,,,,,,,,,,,,,,,,,,,,,,,,,,,,,,,,,,,,,,,,,,,,,,,,,,,,,,,,,,,,,,,,030422,1,3,0,2,3,1,1,0,52,2022_Mar_04_1141,listening_fmri,3.2.4,59.81269022046281,
"In this experiment, you'll use the first three fingers on each hand to do the quizzes and advance through the experiment. ",,,0,0,0,0,0,6,6,6,,,,,,,,,,,,,,,,,,,,,,,,,,,,,,,,,,,1,0.5066534880006657,15.69989576900025,None,15.69989576900025,None,15.69989576900025,None,,,,,,,,,,,,,,,,,,,,,,,,,,,,,,,,,,,,,,,,,,,,,,,,,,,,,,,,,,,,,,,,,,,,,,,,,,,,,,,,,,,,,,,,,,,,,,,,,,,,,,030422,1,3,0,2,3,1,1,0,52,2022_Mar_04_1141,listening_fmri,3.2.4,59.81269022046281,
,,,0,0,0,0,,,,,,,,,,,,,,,,,,,,,,,,,,,,,,,,,,,,,,,,,,,,,,,8,1.795602191999933,16.235912123999697,None,16.235912123999697,None,16.235912123999697,None,16.235912123999697,None,18.050862479999523,None,7,0.42061187400031486,18.050862479999523,None,18.050862479999523,None,18.050862479999523,None,18.050862479999523,None,7,1.1880834909998157,18.50238789499963,None,18.50238789499963,None,18.50238789499963,None,19.71871854999972,None,1,1.5467725420003262,19.71871854999972,None,21.28588805199979,None,8,0.926581286000328,21.28588805199979,None,22.235954718999892,None,6,0.7705559409996567,22.235954718999892,None,23.035478808000335,None,2,1.177050579999559,23.035478808000335,None,24.23590941600014,None,24.23590941600014,None,1,0.752601008000056,24.23590941600014,None,,,,,,,,,,,,,,,,,,,,,,,,,,,,,,,,,,,,,,,,030422,1,3,0,2,3,1,1,0,52,2022_Mar_04_1141,listening_fmri,3.2.4,59.81269022046281,
,0,,,,,,,,,,0,0,0,0,0,0,0,0,,,,,,,,,,,,,,,,,,,,,,,,,,,,,,,,,,,,,,,,,,,,,,,,,,,,,,,,,,,,,,,,,,,,,,,,,,,,,,,,,,,,,,,,,,,,,,,,,25.018808357000125,None,equal,19.226743921999514,25.018808357000125,None,33.57777443699979,25.018808357000125,None,25.018808357000125,None,0.00039769600061845267,6.000245766000262,44.26885714800028,None,,,,,,,,,,,,,,,,,,,,,,,,,030422,1,3,0,2,3,1,1,0,52,2022_Mar_04_1141,listening_fmri,3.2.4,59.81269022046281,
,1,parcelated_audio/12/12_1.ogg,,,,,,,,,0,0,0,0,0,1,1,1,0,0,0,0,,,,,,,,,0,0,0,0,0,0,0,0,,,,,,,,,,,,,,,,,,,,,,,,,,,,,,,,,,,,,,,,,,,,,,,,,,,,,,,,,,,,,,,,,,,,,,,,,,,,,,,,,,,,,,,,,,,,50.269456568999885,None,1,1.9570893739992243,50.269456568999885,None,50.269456568999885,None,50.269456568999885,None,52.2523135270003,None,1,1.3093355629998769,52.2523135270003,None,9.322658278000745,12.332942175000426,12.339449128000524,22.218376490000082,,,,,030422,1,3,0,2,3,1,1,0,52,2022_Mar_04_1141,listening_fmri,3.2.4,59.81269022046281,
,1,parcelated_audio/12/12_2.ogg,,,,,,,,,0,0,0,0,0,1,1,1,0,0,0,0,,,,,,,,,0,0,0,0,0,1,1,1,,,,,,,,,,,,,,,,,,,,,,,,,,,,,,,,,,,,,,,,,,,,,,,,,,,,,,,,,,,,,,,,,,,,,,,,,,,,,,,,,,,,,,,,,,,,,,,,,,,,,,,,,,,,,,22.218656943000497,29.975351142999898,,,,,030422,1,3,0,2,3,1,1,0,52,2022_Mar_04_1141,listening_fmri,3.2.4,59.81269022046281,
,1,parcelated_audio/12/12_3.ogg,,,,,,,,,0,0,0,0,0,1,1,1,0,0,0,0,,,,,,,,,0,0,0,0,0,2,2,2,,,,,,,,,,,,,,,,,,,,,,,,,,,,,,,,,,,,,,,,,,,,,,,,,,,,,,,,,,,,,,,,,,,,,,,,,,,,,,,,,,,,,,,,,,,,,,,,,,,,,,,,,,,,,,29.9756223330005,37.327574962000654,,,,,030422,1,3,0,2,3,1,1,0,52,2022_Mar_04_1141,listening_fmri,3.2.4,59.81269022046281,
,1,parcelated_audio/12/12_4.ogg,,,,,,,,,0,0,0,0,0,1,1,1,0,0,0,0,,,,,,,,,0,0,0,0,0,3,3,3,,,,,,,,,,,,,,,,,,,,,,,,,,,,,,,,,,,,,,,,,,,,,,,,,,,,,,,,,,,,,,,,,,,,,,,,,,,,,,,,,,,,,,,,,,,,,,,,,,,,,,,,,,,,,,37.32787309300056,43.891871800000445,,,,,030422,1,3,0,2,3,1,1,0,52,2022_Mar_04_1141,listening_fmri,3.2.4,59.81269022046281,
,1,parcelated_audio/12/12_5.ogg,,,,,,,,,0,0,0,0,0,1,1,1,0,0,0,0,,,,,,,,,0,0,0,0,0,4,4,4,,,,,,,,,,,,,,,,,,,,,,,,,,,,,,,,,,,,,,,,,,,,,,,,,,,,,,,,,,,,,,,,,,,,,,,,,,,,,,,,,,,,,,,,,,,,,,,,,,,,,,,,,,,,,,43.89217267300046,51.83096283000032,,,,,030422,1,3,0,2,3,1,1,0,52,2022_Mar_04_1141,listening_fmri,3.2.4,59.81269022046281,
,1,parcelated_audio/12/12_6.ogg,,,,,,,,,0,0,0,0,0,1,1,1,0,0,0,0,,,,,,,,,0,0,0,0,0,5,5,5,,,,,,,,,,,,,,,,,,,,,,,,,,,,,,,,,,,,,,,,,,,,,,,,,,,,,,,,,,,,,,,,,,,,,,,,,,,,,,,,,,,,,,,,,,,,,,,,,,,,,,,,,,,,,,51.831238452000434,55.444321663000665,,,,,030422,1,3,0,2,3,1,1,0,52,2022_Mar_04_1141,listening_fmri,3.2.4,59.81269022046281,
,1,parcelated_audio/12/12_7.ogg,,,,,,,,,0,0,0,0,0,1,1,1,0,0,0,0,,,,,,,,,0,0,0,0,0,6,6,6,,,,,,,,,,,,,,,,,,,,,,,,,,,,,,,,,,,,,,,,,,,,,,,,,,,,,,,,,,,,,,,,,,,,,,,,,,,,,,,,,,,,,,,,,,,,,,,,,,,,,,,,,,,,,,55.444596059000105,65.77750670000023,,,,,030422,1,3,0,2,3,1,1,0,52,2022_Mar_04_1141,listening_fmri,3.2.4,59.81269022046281,
,1,parcelated_audio/12/12_8.ogg,,,,,,,,,0,0,0,0,0,1,1,1,0,0,0,0,,,,,,,,,0,0,0,0,0,7,7,7,,,,,,,,,,,,,,,,,,,,,,,,,,,,,,,,,,,,,,,,,,,,,,,,,,,,,,,,,,,,,,,,,,,,,,,,,,,,,,,,,,,,,,,,,,,,,,,,,,,,,,,,,,,,,,65.7778731620001,74.55071561400018,,,,,030422,1,3,0,2,3,1,1,0,52,2022_Mar_04_1141,listening_fmri,3.2.4,59.81269022046281,
,1,parcelated_audio/12/12_9.ogg,,,,,,,,,0,0,0,0,0,1,1,1,0,0,0,0,,,,,,,,,0,0,0,0,0,8,8,8,,,,,,,,,,,,,,,,,,,,,,,,,,,,,,,,,,,,,,,,,,,,,,,,,,,,,,,,,,,,,,,,,,,,,,,,,,,,,,,,,,,,,,,,,,,,,,,,,,,,,,,,,,,,,,74.55111610499989,78.41187162900042,,,,,030422,1,3,0,2,3,1,1,0,52,2022_Mar_04_1141,listening_fmri,3.2.4,59.81269022046281,
,1,parcelated_audio/12/12_10.ogg,,,,,,,,,0,0,0,0,0,1,1,1,0,0,0,0,,,,,,,,,0,0,0,0,0,9,9,9,,,,,,,,,,,,,,,,,,,,,,,,,,,,,,,,,,,,,,,,,,,,,,,,,,,,,,,,,,,,,,,,,,,,,,,,,,,,,,,,,,,,,,,,,,,,,,,,,,,,,,,,,,,,,,78.41212608400019,83.21362266899996,,,,,030422,1,3,0,2,3,1,1,0,52,2022_Mar_04_1141,listening_fmri,3.2.4,59.81269022046281,
,1,parcelated_audio/12/12_11.ogg,,,,,,,,,0,0,0,0,0,1,1,1,0,0,0,0,,,,,,,,,0,0,0,0,0,10,10,10,,,,,,,,,,,,,,,,,,,,,,,,,,,,,,,,,,,,,,,,,,,,,,,,,,,,,,,,,,,,,,,,,,,,,,,,,,,,,,,,,,,,,,,,,,,,,,,,,,,,,,,,,,,,,,83.21408385900031,86.09414578300039,,,,,030422,1,3,0,2,3,1,1,0,52,2022_Mar_04_1141,listening_fmri,3.2.4,59.81269022046281,
,1,parcelated_audio/12/12_12.ogg,,,,,,,,,0,0,0,0,0,1,1,1,0,0,0,0,,,,,,,,,0,0,0,0,0,11,11,11,,,,,,,,,,,,,,,,,,,,,,,,,,,,,,,,,,,,,,,,,,,,,,,,,,,,,,,,,,,,,,,,,,,,,,,,,,,,,,,,,,,,,,,,,,,,,,,,,,,,,,,,,,,,,,86.09441891799997,94.9608785750006,,,,,030422,1,3,0,2,3,1,1,0,52,2022_Mar_04_1141,listening_fmri,3.2.4,59.81269022046281,
,1,parcelated_audio/12/12_13.ogg,,,,,,,,,0,0,0,0,0,1,1,1,0,0,0,0,,,,,,,,,0,0,0,0,0,12,12,12,,,,,,,,,,,,,,,,,,,,,,,,,,,,,,,,,,,,,,,,,,,,,,,,,,,,,,,,,,,,,,,,,,,,,,,,,,,,,,,,,,,,,,,,,,,,,,,,,,,,,,,,,,,,,,94.96124695900016,100.21392350000042,,,,,030422,1,3,0,2,3,1,1,0,52,2022_Mar_04_1141,listening_fmri,3.2.4,59.81269022046281,
,1,parcelated_audio/12/12_14.ogg,,,,,,,,,0,0,0,0,0,1,1,1,0,0,0,0,,,,,,,,,0,0,0,0,0,13,13,13,,,,,,,,,,,,,,,,,,,,,,,,,,,,,,,,,,,,,,,,,,,,,,,,,,,,,,,,,,,,,,,,,,,,,,,,,,,,,,,,,,,,,,,,,,,,,,,,,,,,,,,,,,,,,,100.21435260399994,105.14877728600004,,,,,030422,1,3,0,2,3,1,1,0,52,2022_Mar_04_1141,listening_fmri,3.2.4,59.81269022046281,
,1,parcelated_audio/12/12_15.ogg,,,,,,,,,0,0,0,0,0,1,1,1,0,0,0,0,,,,,,,,,0,0,0,0,0,14,14,14,,,,,,,,,,,,,,,,,,,,,,,,,,,,,,,,,,,,,,,,,,,,,,,,,,,,,,,,,,,,,,,,,,,,,,,,,,,,,,,,,,,,,,,,,,,,,,,,,,,,,,,,,,,,,,105.1490271800003,111.15259703399988,,,,,030422,1,3,0,2,3,1,1,0,52,2022_Mar_04_1141,listening_fmri,3.2.4,59.81269022046281,
,1,parcelated_audio/12/12_16.ogg,,,,,,,,,0,0,0,0,0,1,1,1,0,0,0,0,,,,,,,,,0,0,0,0,0,15,15,15,,,,,,,,,,,,,,,,,,,,,,,,,,,,,,,,,,,,,,,,,,,,,,,,,,,,,,,,,,,,,,,,,,,,,,,,,,,,,,,,,,,,,,,,,,,,,,,,,,,,,,,,,,,,,,111.15287043100034,115.3579718280007,,,,,030422,1,3,0,2,3,1,1,0,52,2022_Mar_04_1141,listening_fmri,3.2.4,59.81269022046281,
,1,parcelated_audio/12/12_17.ogg,,,,,,,,,0,0,0,0,0,1,1,1,0,0,0,0,,,,,,,,,0,0,0,0,0,16,16,16,,,,,,,,,,,,,,,,,,,,,,,,,,,,,,,,,,,,,,,,,,,,,,,,,,,,,,,,,,,,,,,,,,,,,,,,,,,,,,,,,,,,,,,,,,,,,,,,,,,,,,,,,,,,,,115.35832508000021,120.34558462800032,,,,,030422,1,3,0,2,3,1,1,0,52,2022_Mar_04_1141,listening_fmri,3.2.4,59.81269022046281,
,1,parcelated_audio/12/12_18.ogg,,,,,,,,,0,0,0,0,0,1,1,1,0,0,0,0,,,,,,,,,0,0,0,0,0,17,17,17,,,,,,,,,,,,,,,,,,,,,,,,,,,,,,,,,,,,,,,,,,,,,,,,,,,,,,,,,,,,,,,,,,,,,,,,,,,,,,,,,,,,,,,,,,,,,,,,,,,,,,,,,,,,,,120.3459498480006,129.54558690000067,,,,,030422,1,3,0,2,3,1,1,0,52,2022_Mar_04_1141,listening_fmri,3.2.4,59.81269022046281,
,1,parcelated_audio/12/12_19.ogg,,,,,,,,,0,0,0,0,0,1,1,1,0,0,0,0,,,,,,,,,0,0,0,0,0,18,18,18,,,,,,,,,,,,,,,,,,,,,,,,,,,,,,,,,,,,,,,,,,,,,,,,,,,,,,,,,,,,,,,,,,,,,,,,,,,,,,,,,,,,,,,,,,,,,,,,,,,,,,,,,,,,,,129.54596639600004,139.56239328399988,,,,,030422,1,3,0,2,3,1,1,0,52,2022_Mar_04_1141,listening_fmri,3.2.4,59.81269022046281,
,1,parcelated_audio/12/12_20.ogg,,,,,,,,,0,0,0,0,0,1,1,1,0,0,0,0,,,,,,,,,0,0,0,0,0,19,19,19,,,,,,,,,,,,,,,,,,,,,,,,,,,,,,,,,,,,,,,,,,,,,,,,,,,,,,,,,,,,,,,,,,,,,,,,,,,,,,,,,,,,,,,,,,,,,,,,,,,,,,,,,,,,,,139.56326474600064,147.37601333900056,,,,,030422,1,3,0,2,3,1,1,0,52,2022_Mar_04_1141,listening_fmri,3.2.4,59.81269022046281,
,1,parcelated_audio/12/12_21.ogg,,,,,,,,,0,0,0,0,0,1,1,1,0,0,0,0,,,,,,,,,0,0,0,0,0,20,20,20,,,,,,,,,,,,,,,,,,,,,,,,,,,,,,,,,,,,,,,,,,,,,,,,,,,,,,,,,,,,,,,,,,,,,,,,,,,,,,,,,,,,,,,,,,,,,,,,,,,,,,,,,,,,,,147.376628729,152.87454496100054,,,,,030422,1,3,0,2,3,1,1,0,52,2022_Mar_04_1141,listening_fmri,3.2.4,59.81269022046281,
,1,parcelated_audio/12/12_22.ogg,,,,,,,,,0,0,0,0,0,1,1,1,0,0,0,0,,,,,,,,,0,0,0,0,0,21,21,21,,,,,,,,,,,,,,,,,,,,,,,,,,,,,,,,,,,,,,,,,,,,,,,,,,,,,,,,,,,,,,,,,,,,,,,,,,,,,,,,,,,,,,,,,,,,,,,,,,,,,,,,,,,,,,152.87481924800068,156.72234959700017,,,,,030422,1,3,0,2,3,1,1,0,52,2022_Mar_04_1141,listening_fmri,3.2.4,59.81269022046281,
,1,parcelated_audio/12/12_23.ogg,,,,,,,,,0,0,0,0,0,1,1,1,0,0,0,0,,,,,,,,,0,0,0,0,0,22,22,22,,,,,,,,,,,,,,,,,,,,,,,,,,,,,,,,,,,,,,,,,,,,,,,,,,,,,,,,,,,,,,,,,,,,,,,,,,,,,,,,,,,,,,,,,,,,,,,,,,,,,,,,,,,,,,156.72262979800053,163.57822676700016,,,,,030422,1,3,0,2,3,1,1,0,52,2022_Mar_04_1141,listening_fmri,3.2.4,59.81269022046281,
,1,parcelated_audio/12/12_24.ogg,,,,,,,,,0,0,0,0,0,1,1,1,0,0,0,0,,,,,,,,,0,0,0,0,0,23,23,23,,,,,,,,,,,,,,,,,,,,,,,,,,,,,,,,,,,,,,,,,,,,,,,,,,,,,,,,,,,,,,,,,,,,,,,,,,,,,,,,,,,,,,,,,,,,,,,,,,,,,,,,,,,,,,163.57850052100002,167.73273677500038,,,,,030422,1,3,0,2,3,1,1,0,52,2022_Mar_04_1141,listening_fmri,3.2.4,59.81269022046281,
,1,parcelated_audio/12/12_25.ogg,,,,,,,,,0,0,0,0,0,1,1,1,0,0,0,0,,,,,,,,,0,0,0,0,0,24,24,24,,,,,,,,,,,,,,,,,,,,,,,,,,,,,,,,,,,,,,,,,,,,,,,,,,,,,,,,,,,,,,,,,,,,,,,,,,,,,,,,,,,,,,,,,,,,,,,,,,,,,,,,,,,,,,167.7331458560002,178.17827375700017,,,,,030422,1,3,0,2,3,1,1,0,52,2022_Mar_04_1141,listening_fmri,3.2.4,59.81269022046281,
,1,parcelated_audio/12/12_26.ogg,,,,,,,,,0,0,0,0,0,1,1,1,0,0,0,0,,,,,,,,,0,0,0,0,0,25,25,25,,,,,,,,,,,,,,,,,,,,,,,,,,,,,,,,,,,,,,,,,,,,,,,,,,,,,,,,,,,,,,,,,,,,,,,,,,,,,,,,,,,,,,,,,,,,,,,,,,,,,,,,,,,,,,178.1785461770005,183.42308197300008,,,,,030422,1,3,0,2,3,1,1,0,52,2022_Mar_04_1141,listening_fmri,3.2.4,59.81269022046281,
,1,parcelated_audio/12/12_27.ogg,,,,,,,,,0,0,0,0,0,1,1,1,0,0,0,0,,,,,,,,,0,0,0,0,0,26,26,26,,,,,,,,,,,,,,,,,,,,,,,,,,,,,,,,,,,,,,,,,,,,,,,,,,,,,,,,,,,,,,,,,,,,,,,,,,,,,,,,,,,,,,,,,,,,,,,,,,,,,,,,,,,,,,183.42350178300057,191.09231117400032,,,,,030422,1,3,0,2,3,1,1,0,52,2022_Mar_04_1141,listening_fmri,3.2.4,59.81269022046281,
,1,parcelated_audio/12/12_28.ogg,,,,,,,,,0,0,0,0,0,1,1,1,0,0,0,0,,,,,,,,,0,0,0,0,0,27,27,27,,,,,,,,,,,,,,,,,,,,,,,,,,,,,,,,,,,,,,,,,,,,,,,,,,,,,,,,,,,,,,,,,,,,,,,,,,,,,,,,,,,,,,,,,,,,,,,,,,,,,,,,,,,,,,191.09272253000017,202.07738136800072,,,,,030422,1,3,0,2,3,1,1,0,52,2022_Mar_04_1141,listening_fmri,3.2.4,59.81269022046281,
,1,parcelated_audio/12/12_29.ogg,,,,,,,,,0,0,0,0,0,1,1,1,0,0,0,0,,,,,,,,,0,0,0,0,0,28,28,28,,,,,,,,,,,,,,,,,,,,,,,,,,,,,,,,,,,,,,,,,,,,,,,,,,,,,,,,,,,,,,,,,,,,,,,,,,,,,,,,,,,,,,,,,,,,,,,,,,,,,,,,,,,,,,202.0779051620002,208.16653871800008,,,,,030422,1,3,0,2,3,1,1,0,52,2022_Mar_04_1141,listening_fmri,3.2.4,59.81269022046281,
,1,parcelated_audio/12/12_30.ogg,,,,,,,,,0,0,0,0,0,1,1,1,0,0,0,0,,,,,,,,,0,0,0,0,0,29,29,29,,,,,,,,,,,,,,,,,,,,,,,,,,,,,,,,,,,,,,,,,,,,,,,,,,,,,,,,,,,,,,,,,,,,,,,,,,,,,,,,,,,,,,,,,,,,,,,,,,,,,,,,,,,,,,208.16692967400013,215.1236482000004,,,,,030422,1,3,0,2,3,1,1,0,52,2022_Mar_04_1141,listening_fmri,3.2.4,59.81269022046281,
,1,parcelated_audio/12/12_31.ogg,,,,,,,,,0,0,0,0,0,1,1,1,0,0,0,0,,,,,,,,,0,0,0,0,0,30,30,30,,,,,,,,,,,,,,,,,,,,,,,,,,,,,,,,,,,,,,,,,,,,,,,,,,,,,,,,,,,,,,,,,,,,,,,,,,,,,,,,,,,,,,,,,,,,,,,,,,,,,,,,,,,,,,215.124051625,222.27320984200014,,,,,030422,1,3,0,2,3,1,1,0,52,2022_Mar_04_1141,listening_fmri,3.2.4,59.81269022046281,
,1,,,,,,,,,,0,0,0,0,0,1,1,1,0,0,0,0,,,,,,,,,0,0,0,0,,,,,,,,,,,,,,,,,,,,,,,,,,,,,,,,,,,,,,,,,,,,,,,,,,,,,,,,,,,,,,,,,,,,,,,,,,,,,,,,,,,,,,,,,,,,,,,,,,,,,,,,,,,,,,,,,,,,,,,,030422,1,3,0,2,3,1,1,0,52,2022_Mar_04_1141,listening_fmri,3.2.4,59.81269022046281,
,,,,,,,,,,,,,,,,,,,,,,,,,,,,,,,,,,,,,,,,,,,,,,,,,,,,,,,,,,,,,,,,,,,,,,,,,,,,,,,,,,,,,,,,,,,,,,,,,,,,,,,,,,,,,,,,,,,,,,,,,,,,,,222.27356758600035,228.261820533,266.5315578789996,None,,,,,,,,,,,,,,,,,,,,,272.5316319530002,None,272.5316319530002,None,,,,,,,,,,,,,,,
﻿instructions,count,audio,trials_14.thisRepN,trials_14.thisTrialN,trials_14.thisN,trials_14.thisIndex,trials_13.thisRepN,trials_13.thisTrialN,trials_13.thisN,trials_13.thisIndex,trials_3.thisRepN,trials_3.thisTrialN,trials_3.thisN,trials_3.thisIndex,Block1.thisRepN,Block1.thisTrialN,Block1.thisN,Block1.thisIndex,trials_5.thisRepN,trials_5.thisTrialN,trials_5.thisN,trials_5.thisIndex,trials.thisRepN,trials.thisTrialN,trials.thisN,trials.thisIndex,trials_2.thisRepN,trials_2.thisTrialN,trials_2.thisN,trials_2.thisIndex,trials_22.thisRepN,trials_22.thisTrialN,trials_22.thisN,trials_22.thisIndex,trials_16.thisRepN,trials_16.thisTrialN,trials_16.thisN,trials_16.thisIndex,trials_23.thisRepN,trials_23.thisTrialN,trials_23.thisN,trials_23.thisIndex,trials_7.thisRepN,trials_7.thisTrialN,trials_7.thisN,trials_7.thisIndex,story_list_block1,action_list_block1,key_resp_5.keys,key_resp_5.rt,key_resp_5.started,key_resp_5.stopped,text_87.started,text_87.stopped,text_88.started,text_88.stopped,key_resp_31.keys,key_resp_31.rt,key_resp_31.started,key_resp_31.stopped,text_89.started,text_89.stopped,image_27.started,image_27.stopped,text_97.started,text_97.stopped,image_24.started,image_24.stopped,key_resp_21.keys,key_resp_21.rt,key_resp_21.started,key_resp_21.stopped,text_78.started,text_78.stopped,text_96.started,text_96.stopped,image_28.started,image_28.stopped,key_resp_36.keys,key_resp_36.rt,key_resp_36.started,key_resp_36.stopped,text_94.started,text_94.stopped,text_95.started,text_95.stopped,text_90.started,text_90.stopped,key_resp_32.keys,key_resp_32.rt,key_resp_32.started,key_resp_32.stopped,text_91.started,text_91.stopped,key_resp_33.keys,key_resp_33.rt,key_resp_33.started,key_resp_33.stopped,text_92.started,text_92.stopped,key_resp_34.keys,key_resp_34.rt,key_resp_34.started,key_resp_34.stopped,text_93.started,text_93.stopped,key_resp_35.keys,key_resp_35.rt,key_resp_35.started,key_resp_35.stopped,text_98.started,text_98.stopped,text_99.started,text_99.stopped,key_resp_37.keys,key_resp_37.rt,key_resp_37.started,key_resp_37.stopped,textTrigger.started,textTrigger.stopped,getTrigger.keys,getTrigger.rt,getTrigger.started,getTrigger.stopped,triggerTime,text_76.started,text_76.stopped,text_77.started,text_77.stopped,startWait,endWait,image_23.started,image_23.stopped,text_38.started,text_38.stopped,key_resp_8.keys,key_resp_8.rt,key_resp_8.started,key_resp_8.stopped,text_39.started,text_39.stopped,text.started,text.stopped,text_50.started,text_50.stopped,key_resp_14.keys,key_resp_14.rt,key_resp_14.started,key_resp_14.stopped,storyImage_StartTime,storyImage_EndTime,clip_StartTime,clip_EndTime,text_6.started,text_6.stopped,text_52.started,text_52.stopped,text_33.started,text_33.stopped,key_resp_30.keys,key_resp_30.rt,key_resp_30.started,key_resp_30.stopped,text_79.started,text_79.stopped,text_4.started,text_4.stopped,image.started,image.stopped,text_5.started,text_5.stopped,key_resp_22.keys,key_resp_22.rt,key_resp_22.started,key_resp_22.stopped,text_37.started,text_37.stopped,key_resp_7.keys,key_resp_7.rt,key_resp_7.started,key_resp_7.stopped,text_80.started,text_80.stopped,question1_3.started,question1_3.stopped,question2_3.started,question2_3.stopped,question3_3.started,question3_3.stopped,question4_3.started,question4_3.stopped,question5_3.started,question5_3.stopped,question6_3.started,question6_3.stopped,image_16.started,image_16.stopped,text_49.started,text_49.stopped,key_resp_15.keys,key_resp_15.rt,key_resp_15.started,key_resp_15.stopped,text_81.started,text_81.stopped,participant,sA,sB,lA,lB,block_struct,play_stories,block,behavioral,random_seed,date,expName,psychopyVersion,frameRate,
Welcome to the story listening part of the experiment. ,,,0,0,0,0,0,0,0,0,,,,,,,,,,,,,,,,,,,,,,,,,,,,,,,,,,,,,[21 12 11 42 41 22 31 32],[3 4 2 1 3 1 2 4],1,1.816338067000288,10.70119025799977,None,10.70119025799977,None,10.70119025799977,None,,,,,,,,,,,,,,,,,,,,,,,,,,,,,,,,,,,,,,,,,,,,,,,,,,,,,,,,,,,,,,,,,,,,,,,,,,,,,,,,,,,,,,,,,,,,,,,,,,,,,,,,,,,,,,,,,,,,,,,,,,,,,,,,,,,,,,,,,,,,,,,,,,,,,,030422,1,3,0,2,3,1,1,0,52,2022_Mar_04_1141,listening_fmri,3.2.4,59.81269022046281,
"As a reminder, you will listen to 12 short stories.",,,0,0,0,0,0,1,1,1,,,,,,,,,,,,,,,,,,,,,,,,,,,,,,,,,,,,,,,1,0.9103142220001246,12.551231581999673,None,12.551231581999673,None,12.551231581999673,None,,,,,,,,,,,,,,,,,,,,,,,,,,,,,,,,,,,,,,,,,,,,,,,,,,,,,,,,,,,,,,,,,,,,,,,,,,,,,,,,,,,,,,,,,,,,,,,,,,,,,,,,,,,,,,,,,,,,,,,,,,,,,,,,,,,,,,,,,,,,,,,,,,,,,,030422,1,3,0,2,3,1,1,0,52,2022_Mar_04_1141,listening_fmri,3.2.4,59.81269022046281,
These stories will be divided into 2 blocks of 6 stories.,,,0,0,0,0,0,2,2,2,,,,,,,,,,,,,,,,,,,,,,,,,,,,,,,,,,,,,,,1,0.6401187760002358,13.485429072999978,None,13.485429072999978,None,13.485429072999978,None,,,,,,,,,,,,,,,,,,,,,,,,,,,,,,,,,,,,,,,,,,,,,,,,,,,,,,,,,,,,,,,,,,,,,,,,,,,,,,,,,,,,,,,,,,,,,,,,,,,,,,,,,,,,,,,,,,,,,,,,,,,,,,,,,,,,,,,,,,,,,,,,,,,,,,030422,1,3,0,2,3,1,1,0,52,2022_Mar_04_1141,listening_fmri,3.2.4,59.81269022046281,
"Before some of the stories, we will ask you to take on the perspective of a job. ",,,0,0,0,0,0,3,3,3,,,,,,,,,,,,,,,,,,,,,,,,,,,,,,,,,,,,,,,1,0.5488503960004891,14.152642776999528,None,14.152642776999528,None,14.152642776999528,None,,,,,,,,,,,,,,,,,,,,,,,,,,,,,,,,,,,,,,,,,,,,,,,,,,,,,,,,,,,,,,,,,,,,,,,,,,,,,,,,,,,,,,,,,,,,,,,,,,,,,,,,,,,,,,,,,,,,,,,,,,,,,,,,,,,,,,,,,,,,,,,,,,,,,,030422,1,3,0,2,3,1,1,0,52,2022_Mar_04_1141,listening_fmri,3.2.4,59.81269022046281,
Please “simulate” this job while you listen to the story that follows.,,,0,0,0,0,0,4,4,4,,,,,,,,,,,,,,,,,,,,,,,,,,,,,,,,,,,,,,,1,0.48972095299996,14.733776160000161,None,14.733776160000161,None,14.733776160000161,None,,,,,,,,,,,,,,,,,,,,,,,,,,,,,,,,,,,,,,,,,,,,,,,,,,,,,,,,,,,,,,,,,,,,,,,,,,,,,,,,,,,,,,,,,,,,,,,,,,,,,,,,,,,,,,,,,,,,,,,,,,,,,,,,,,,,,,,,,,,,,,,,,,,,,,030422,1,3,0,2,3,1,1,0,52,2022_Mar_04_1141,listening_fmri,3.2.4,59.81269022046281,
"Before you begin, we will go over how to use the button box:",,,0,0,0,0,0,5,5,5,,,,,,,,,,,,,,,,,,,,,,,,,,,,,,,,,,,,,,,1,0.40676969600008306,15.252709419999519,None,15.252709419999519,None,15.252709419999519,None,,,,,,,,,,,,,,,,,,,,,,,,,,,,,,,,,,,,,,,,,,,,,,,,,,,,,,,,,,,,,,,,,,,,,,,,,,,,,,,,,,,,,,,,,,,,,,,,,,,,,,,,,,,,,,,,,,,,,,,,,,,,,,,,,,,,,,,,,,,,,,,,,,,,,,030422,1,3,0,2,3,1,1,0,52,2022_Mar_04_1141,listening_fmri,3.2.4,59.81269022046281,
"In this experiment, you'll use the first three fingers on each hand to do the quizzes and advance through the experiment. ",,,0,0,0,0,0,6,6,6,,,,,,,,,,,,,,,,,,,,,,,,,,,,,,,,,,,,,,,1,0.5066534880006657,15.69989576900025,None,15.69989576900025,None,15.69989576900025,None,,,,,,,,,,,,,,,,,,,,,,,,,,,,,,,,,,,,,,,,,,,,,,,,,,,,,,,,,,,,,,,,,,,,,,,,,,,,,,,,,,,,,,,,,,,,,,,,,,,,,,,,,,,,,,,,,,,,,,,,,,,,,,,,,,,,,,,,,,,,,,,,,,,,,,030422,1,3,0,2,3,1,1,0,52,2022_Mar_04_1141,listening_fmri,3.2.4,59.81269022046281,
,,,0,0,0,0,,,,,,,,,,,,,,,,,,,,,,,,,,,,,,,,,,,,,,,,,,,,,,,,,,,8,1.795602191999933,16.235912123999697,None,16.235912123999697,None,16.235912123999697,None,16.235912123999697,None,18.050862479999523,None,7,0.42061187400031486,18.050862479999523,None,18.050862479999523,None,18.050862479999523,None,18.050862479999523,None,7,1.1880834909998157,18.50238789499963,None,18.50238789499963,None,18.50238789499963,None,19.71871854999972,None,1,1.5467725420003262,19.71871854999972,None,21.28588805199979,None,8,0.926581286000328,21.28588805199979,None,22.235954718999892,None,6,0.7705559409996567,22.235954718999892,None,23.035478808000335,None,2,1.177050579999559,23.035478808000335,None,24.23590941600014,None,24.23590941600014,None,1,0.752601008000056,24.23590941600014,None,,,,,,,,,,,,,,,,,,,,,,,,,,,,,,,,,,,,,,,,,,,,,,,,,,,,,,,,,,,,,,,,,,,,,,,,,,,,,,,,,,,,,,,,030422,1,3,0,2,3,1,1,0,52,2022_Mar_04_1141,listening_fmri,3.2.4,59.81269022046281,
,0,,,,,,,,,,0,0,0,0,0,0,0,0,,,,,,,,,,,,,,,,,,,,,,,,,,,,,,,,,,,,,,,,,,,,,,,,,,,,,,,,,,,,,,,,,,,,,,,,,,,,,,,,,,,,,,,,,,,,,,,,,,,,,25.018808357000125,None,equal,19.226743921999514,25.018808357000125,None,33.57777443699979,25.018808357000125,None,25.018808357000125,None,0.00039769600061845267,6.000245766000262,44.26885714800028,None,,,,,,,,,,,,,,,,,,,,,,,,,,,,,,,,,,,,,,,,,,,,,,,,,,,,,,,,,,,,,,,,,,,,,,,,,030422,1,3,0,2,3,1,1,0,52,2022_Mar_04_1141,listening_fmri,3.2.4,59.81269022046281,
,1,parcelated_audio/12/12_1.ogg,,,,,,,,,0,0,0,0,0,1,1,1,0,0,0,0,,,,,,,,,0,0,0,0,0,0,0,0,,,,,,,,,,,,,,,,,,,,,,,,,,,,,,,,,,,,,,,,,,,,,,,,,,,,,,,,,,,,,,,,,,,,,,,,,,,,,,,,,,,,,,,,,,,,,,,,50.269456568999885,None,1,1.9570893739992243,50.269456568999885,None,50.269456568999885,None,50.269456568999885,None,52.2523135270003,None,1,1.3093355629998769,52.2523135270003,None,9.322658278000745,12.332942175000426,12.339449128000524,22.218376490000082,,,,,,,,,,,,,,,,,,,,,,,,,,,,,,,,,,,,,,,,,,,,,,,,,,,,,030422,1,3,0,2,3,1,1,0,52,2022_Mar_04_1141,listening_fmri,3.2.4,59.81269022046281,
,1,parcelated_audio/12/12_2.ogg,,,,,,,,,0,0,0,0,0,1,1,1,0,0,0,0,,,,,,,,,0,0,0,0,0,1,1,1,,,,,,,,,,,,,,,,,,,,,,,,,,,,,,,,,,,,,,,,,,,,,,,,,,,,,,,,,,,,,,,,,,,,,,,,,,,,,,,,,,,,,,,,,,,,,,,,,,,,,,,,,,,,,,,,,,22.218656943000497,29.975351142999898,,,,,,,,,,,,,,,,,,,,,,,,,,,,,,,,,,,,,,,,,,,,,,,,,,,,,030422,1,3,0,2,3,1,1,0,52,2022_Mar_04_1141,listening_fmri,3.2.4,59.81269022046281,
,1,parcelated_audio/12/12_3.ogg,,,,,,,,,0,0,0,0,0,1,1,1,0,0,0,0,,,,,,,,,0,0,0,0,0,2,2,2,,,,,,,,,,,,,,,,,,,,,,,,,,,,,,,,,,,,,,,,,,,,,,,,,,,,,,,,,,,,,,,,,,,,,,,,,,,,,,,,,,,,,,,,,,,,,,,,,,,,,,,,,,,,,,,,,,29.9756223330005,37.327574962000654,,,,,,,,,,,,,,,,,,,,,,,,,,,,,,,,,,,,,,,,,,,,,,,,,,,,,030422,1,3,0,2,3,1,1,0,52,2022_Mar_04_1141,listening_fmri,3.2.4,59.81269022046281,
,1,parcelated_audio/12/12_4.ogg,,,,,,,,,0,0,0,0,0,1,1,1,0,0,0,0,,,,,,,,,0,0,0,0,0,3,3,3,,,,,,,,,,,,,,,,,,,,,,,,,,,,,,,,,,,,,,,,,,,,,,,,,,,,,,,,,,,,,,,,,,,,,,,,,,,,,,,,,,,,,,,,,,,,,,,,,,,,,,,,,,,,,,,,,,37.32787309300056,43.891871800000445,,,,,,,,,,,,,,,,,,,,,,,,,,,,,,,,,,,,,,,,,,,,,,,,,,,,,030422,1,3,0,2,3,1,1,0,52,2022_Mar_04_1141,listening_fmri,3.2.4,59.81269022046281,
,1,parcelated_audio/12/12_5.ogg,,,,,,,,,0,0,0,0,0,1,1,1,0,0,0,0,,,,,,,,,0,0,0,0,0,4,4,4,,,,,,,,,,,,,,,,,,,,,,,,,,,,,,,,,,,,,,,,,,,,,,,,,,,,,,,,,,,,,,,,,,,,,,,,,,,,,,,,,,,,,,,,,,,,,,,,,,,,,,,,,,,,,,,,,,43.89217267300046,51.83096283000032,,,,,,,,,,,,,,,,,,,,,,,,,,,,,,,,,,,,,,,,,,,,,,,,,,,,,030422,1,3,0,2,3,1,1,0,52,2022_Mar_04_1141,listening_fmri,3.2.4,59.81269022046281,
,1,parcelated_audio/12/12_6.ogg,,,,,,,,,0,0,0,0,0,1,1,1,0,0,0,0,,,,,,,,,0,0,0,0,0,5,5,5,,,,,,,,,,,,,,,,,,,,,,,,,,,,,,,,,,,,,,,,,,,,,,,,,,,,,,,,,,,,,,,,,,,,,,,,,,,,,,,,,,,,,,,,,,,,,,,,,,,,,,,,,,,,,,,,,,51.831238452000434,55.444321663000665,,,,,,,,,,,,,,,,,,,,,,,,,,,,,,,,,,,,,,,,,,,,,,,,,,,,,030422,1,3,0,2,3,1,1,0,52,2022_Mar_04_1141,listening_fmri,3.2.4,59.81269022046281,
,1,parcelated_audio/12/12_7.ogg,,,,,,,,,0,0,0,0,0,1,1,1,0,0,0,0,,,,,,,,,0,0,0,0,0,6,6,6,,,,,,,,,,,,,,,,,,,,,,,,,,,,,,,,,,,,,,,,,,,,,,,,,,,,,,,,,,,,,,,,,,,,,,,,,,,,,,,,,,,,,,,,,,,,,,,,,,,,,,,,,,,,,,,,,,55.444596059000105,65.77750670000023,,,,,,,,,,,,,,,,,,,,,,,,,,,,,,,,,,,,,,,,,,,,,,,,,,,,,030422,1,3,0,2,3,1,1,0,52,2022_Mar_04_1141,listening_fmri,3.2.4,59.81269022046281,
,1,parcelated_audio/12/12_8.ogg,,,,,,,,,0,0,0,0,0,1,1,1,0,0,0,0,,,,,,,,,0,0,0,0,0,7,7,7,,,,,,,,,,,,,,,,,,,,,,,,,,,,,,,,,,,,,,,,,,,,,,,,,,,,,,,,,,,,,,,,,,,,,,,,,,,,,,,,,,,,,,,,,,,,,,,,,,,,,,,,,,,,,,,,,,65.7778731620001,74.55071561400018,,,,,,,,,,,,,,,,,,,,,,,,,,,,,,,,,,,,,,,,,,,,,,,,,,,,,030422,1,3,0,2,3,1,1,0,52,2022_Mar_04_1141,listening_fmri,3.2.4,59.81269022046281,
,1,parcelated_audio/12/12_9.ogg,,,,,,,,,0,0,0,0,0,1,1,1,0,0,0,0,,,,,,,,,0,0,0,0,0,8,8,8,,,,,,,,,,,,,,,,,,,,,,,,,,,,,,,,,,,,,,,,,,,,,,,,,,,,,,,,,,,,,,,,,,,,,,,,,,,,,,,,,,,,,,,,,,,,,,,,,,,,,,,,,,,,,,,,,,74.55111610499989,78.41187162900042,,,,,,,,,,,,,,,,,,,,,,,,,,,,,,,,,,,,,,,,,,,,,,,,,,,,,030422,1,3,0,2,3,1,1,0,52,2022_Mar_04_1141,listening_fmri,3.2.4,59.81269022046281,
,1,parcelated_audio/12/12_10.ogg,,,,,,,,,0,0,0,0,0,1,1,1,0,0,0,0,,,,,,,,,0,0,0,0,0,9,9,9,,,,,,,,,,,,,,,,,,,,,,,,,,,,,,,,,,,,,,,,,,,,,,,,,,,,,,,,,,,,,,,,,,,,,,,,,,,,,,,,,,,,,,,,,,,,,,,,,,,,,,,,,,,,,,,,,,78.41212608400019,83.21362266899996,,,,,,,,,,,,,,,,,,,,,,,,,,,,,,,,,,,,,,,,,,,,,,,,,,,,,030422,1,3,0,2,3,1,1,0,52,2022_Mar_04_1141,listening_fmri,3.2.4,59.81269022046281,
,1,parcelated_audio/12/12_11.ogg,,,,,,,,,0,0,0,0,0,1,1,1,0,0,0,0,,,,,,,,,0,0,0,0,0,10,10,10,,,,,,,,,,,,,,,,,,,,,,,,,,,,,,,,,,,,,,,,,,,,,,,,,,,,,,,,,,,,,,,,,,,,,,,,,,,,,,,,,,,,,,,,,,,,,,,,,,,,,,,,,,,,,,,,,,83.21408385900031,86.09414578300039,,,,,,,,,,,,,,,,,,,,,,,,,,,,,,,,,,,,,,,,,,,,,,,,,,,,,030422,1,3,0,2,3,1,1,0,52,2022_Mar_04_1141,listening_fmri,3.2.4,59.81269022046281,
,1,parcelated_audio/12/12_12.ogg,,,,,,,,,0,0,0,0,0,1,1,1,0,0,0,0,,,,,,,,,0,0,0,0,0,11,11,11,,,,,,,,,,,,,,,,,,,,,,,,,,,,,,,,,,,,,,,,,,,,,,,,,,,,,,,,,,,,,,,,,,,,,,,,,,,,,,,,,,,,,,,,,,,,,,,,,,,,,,,,,,,,,,,,,,86.09441891799997,94.9608785750006,,,,,,,,,,,,,,,,,,,,,,,,,,,,,,,,,,,,,,,,,,,,,,,,,,,,,030422,1,3,0,2,3,1,1,0,52,2022_Mar_04_1141,listening_fmri,3.2.4,59.81269022046281,
,1,parcelated_audio/12/12_13.ogg,,,,,,,,,0,0,0,0,0,1,1,1,0,0,0,0,,,,,,,,,0,0,0,0,0,12,12,12,,,,,,,,,,,,,,,,,,,,,,,,,,,,,,,,,,,,,,,,,,,,,,,,,,,,,,,,,,,,,,,,,,,,,,,,,,,,,,,,,,,,,,,,,,,,,,,,,,,,,,,,,,,,,,,,,,94.96124695900016,100.21392350000042,,,,,,,,,,,,,,,,,,,,,,,,,,,,,,,,,,,,,,,,,,,,,,,,,,,,,030422,1,3,0,2,3,1,1,0,52,2022_Mar_04_1141,listening_fmri,3.2.4,59.81269022046281,
,1,parcelated_audio/12/12_14.ogg,,,,,,,,,0,0,0,0,0,1,1,1,0,0,0,0,,,,,,,,,0,0,0,0,0,13,13,13,,,,,,,,,,,,,,,,,,,,,,,,,,,,,,,,,,,,,,,,,,,,,,,,,,,,,,,,,,,,,,,,,,,,,,,,,,,,,,,,,,,,,,,,,,,,,,,,,,,,,,,,,,,,,,,,,,100.21435260399994,105.14877728600004,,,,,,,,,,,,,,,,,,,,,,,,,,,,,,,,,,,,,,,,,,,,,,,,,,,,,030422,1,3,0,2,3,1,1,0,52,2022_Mar_04_1141,listening_fmri,3.2.4,59.81269022046281,
,1,parcelated_audio/12/12_15.ogg,,,,,,,,,0,0,0,0,0,1,1,1,0,0,0,0,,,,,,,,,0,0,0,0,0,14,14,14,,,,,,,,,,,,,,,,,,,,,,,,,,,,,,,,,,,,,,,,,,,,,,,,,,,,,,,,,,,,,,,,,,,,,,,,,,,,,,,,,,,,,,,,,,,,,,,,,,,,,,,,,,,,,,,,,,105.1490271800003,111.15259703399988,,,,,,,,,,,,,,,,,,,,,,,,,,,,,,,,,,,,,,,,,,,,,,,,,,,,,030422,1,3,0,2,3,1,1,0,52,2022_Mar_04_1141,listening_fmri,3.2.4,59.81269022046281,
,1,parcelated_audio/12/12_16.ogg,,,,,,,,,0,0,0,0,0,1,1,1,0,0,0,0,,,,,,,,,0,0,0,0,0,15,15,15,,,,,,,,,,,,,,,,,,,,,,,,,,,,,,,,,,,,,,,,,,,,,,,,,,,,,,,,,,,,,,,,,,,,,,,,,,,,,,,,,,,,,,,,,,,,,,,,,,,,,,,,,,,,,,,,,,111.15287043100034,115.3579718280007,,,,,,,,,,,,,,,,,,,,,,,,,,,,,,,,,,,,,,,,,,,,,,,,,,,,,030422,1,3,0,2,3,1,1,0,52,2022_Mar_04_1141,listening_fmri,3.2.4,59.81269022046281,
,1,parcelated_audio/12/12_17.ogg,,,,,,,,,0,0,0,0,0,1,1,1,0,0,0,0,,,,,,,,,0,0,0,0,0,16,16,16,,,,,,,,,,,,,,,,,,,,,,,,,,,,,,,,,,,,,,,,,,,,,,,,,,,,,,,,,,,,,,,,,,,,,,,,,,,,,,,,,,,,,,,,,,,,,,,,,,,,,,,,,,,,,,,,,,115.35832508000021,120.34558462800032,,,,,,,,,,,,,,,,,,,,,,,,,,,,,,,,,,,,,,,,,,,,,,,,,,,,,030422,1,3,0,2,3,1,1,0,52,2022_Mar_04_1141,listening_fmri,3.2.4,59.81269022046281,
,1,parcelated_audio/12/12_18.ogg,,,,,,,,,0,0,0,0,0,1,1,1,0,0,0,0,,,,,,,,,0,0,0,0,0,17,17,17,,,,,,,,,,,,,,,,,,,,,,,,,,,,,,,,,,,,,,,,,,,,,,,,,,,,,,,,,,,,,,,,,,,,,,,,,,,,,,,,,,,,,,,,,,,,,,,,,,,,,,,,,,,,,,,,,,120.3459498480006,129.54558690000067,,,,,,,,,,,,,,,,,,,,,,,,,,,,,,,,,,,,,,,,,,,,,,,,,,,,,030422,1,3,0,2,3,1,1,0,52,2022_Mar_04_1141,listening_fmri,3.2.4,59.81269022046281,
,1,parcelated_audio/12/12_19.ogg,,,,,,,,,0,0,0,0,0,1,1,1,0,0,0,0,,,,,,,,,0,0,0,0,0,18,18,18,,,,,,,,,,,,,,,,,,,,,,,,,,,,,,,,,,,,,,,,,,,,,,,,,,,,,,,,,,,,,,,,,,,,,,,,,,,,,,,,,,,,,,,,,,,,,,,,,,,,,,,,,,,,,,,,,,129.54596639600004,139.56239328399988,,,,,,,,,,,,,,,,,,,,,,,,,,,,,,,,,,,,,,,,,,,,,,,,,,,,,030422,1,3,0,2,3,1,1,0,52,2022_Mar_04_1141,listening_fmri,3.2.4,59.81269022046281,
,1,parcelated_audio/12/12_20.ogg,,,,,,,,,0,0,0,0,0,1,1,1,0,0,0,0,,,,,,,,,0,0,0,0,0,19,19,19,,,,,,,,,,,,,,,,,,,,,,,,,,,,,,,,,,,,,,,,,,,,,,,,,,,,,,,,,,,,,,,,,,,,,,,,,,,,,,,,,,,,,,,,,,,,,,,,,,,,,,,,,,,,,,,,,,139.56326474600064,147.37601333900056,,,,,,,,,,,,,,,,,,,,,,,,,,,,,,,,,,,,,,,,,,,,,,,,,,,,,030422,1,3,0,2,3,1,1,0,52,2022_Mar_04_1141,listening_fmri,3.2.4,59.81269022046281,
,1,parcelated_audio/12/12_21.ogg,,,,,,,,,0,0,0,0,0,1,1,1,0,0,0,0,,,,,,,,,0,0,0,0,0,20,20,20,,,,,,,,,,,,,,,,,,,,,,,,,,,,,,,,,,,,,,,,,,,,,,,,,,,,,,,,,,,,,,,,,,,,,,,,,,,,,,,,,,,,,,,,,,,,,,,,,,,,,,,,,,,,,,,,,,147.376628729,152.87454496100054,,,,,,,,,,,,,,,,,,,,,,,,,,,,,,,,,,,,,,,,,,,,,,,,,,,,,030422,1,3,0,2,3,1,1,0,52,2022_Mar_04_1141,listening_fmri,3.2.4,59.81269022046281,
,1,parcelated_audio/12/12_22.ogg,,,,,,,,,0,0,0,0,0,1,1,1,0,0,0,0,,,,,,,,,0,0,0,0,0,21,21,21,,,,,,,,,,,,,,,,,,,,,,,,,,,,,,,,,,,,,,,,,,,,,,,,,,,,,,,,,,,,,,,,,,,,,,,,,,,,,,,,,,,,,,,,,,,,,,,,,,,,,,,,,,,,,,,,,,152.87481924800068,156.72234959700017,,,,,,,,,,,,,,,,,,,,,,,,,,,,,,,,,,,,,,,,,,,,,,,,,,,,,030422,1,3,0,2,3,1,1,0,52,2022_Mar_04_1141,listening_fmri,3.2.4,59.81269022046281,
,1,parcelated_audio/12/12_23.ogg,,,,,,,,,0,0,0,0,0,1,1,1,0,0,0,0,,,,,,,,,0,0,0,0,0,22,22,22,,,,,,,,,,,,,,,,,,,,,,,,,,,,,,,,,,,,,,,,,,,,,,,,,,,,,,,,,,,,,,,,,,,,,,,,,,,,,,,,,,,,,,,,,,,,,,,,,,,,,,,,,,,,,,,,,,156.72262979800053,163.57822676700016,,,,,,,,,,,,,,,,,,,,,,,,,,,,,,,,,,,,,,,,,,,,,,,,,,,,,030422,1,3,0,2,3,1,1,0,52,2022_Mar_04_1141,listening_fmri,3.2.4,59.81269022046281,
,1,parcelated_audio/12/12_24.ogg,,,,,,,,,0,0,0,0,0,1,1,1,0,0,0,0,,,,,,,,,0,0,0,0,0,23,23,23,,,,,,,,,,,,,,,,,,,,,,,,,,,,,,,,,,,,,,,,,,,,,,,,,,,,,,,,,,,,,,,,,,,,,,,,,,,,,,,,,,,,,,,,,,,,,,,,,,,,,,,,,,,,,,,,,,163.57850052100002,167.73273677500038,,,,,,,,,,,,,,,,,,,,,,,,,,,,,,,,,,,,,,,,,,,,,,,,,,,,,030422,1,3,0,2,3,1,1,0,52,2022_Mar_04_1141,listening_fmri,3.2.4,59.81269022046281,
,1,parcelated_audio/12/12_25.ogg,,,,,,,,,0,0,0,0,0,1,1,1,0,0,0,0,,,,,,,,,0,0,0,0,0,24,24,24,,,,,,,,,,,,,,,,,,,,,,,,,,,,,,,,,,,,,,,,,,,,,,,,,,,,,,,,,,,,,,,,,,,,,,,,,,,,,,,,,,,,,,,,,,,,,,,,,,,,,,,,,,,,,,,,,,167.7331458560002,178.17827375700017,,,,,,,,,,,,,,,,,,,,,,,,,,,,,,,,,,,,,,,,,,,,,,,,,,,,,030422,1,3,0,2,3,1,1,0,52,2022_Mar_04_1141,listening_fmri,3.2.4,59.81269022046281,
,1,parcelated_audio/12/12_26.ogg,,,,,,,,,0,0,0,0,0,1,1,1,0,0,0,0,,,,,,,,,0,0,0,0,0,25,25,25,,,,,,,,,,,,,,,,,,,,,,,,,,,,,,,,,,,,,,,,,,,,,,,,,,,,,,,,,,,,,,,,,,,,,,,,,,,,,,,,,,,,,,,,,,,,,,,,,,,,,,,,,,,,,,,,,,178.1785461770005,183.42308197300008,,,,,,,,,,,,,,,,,,,,,,,,,,,,,,,,,,,,,,,,,,,,,,,,,,,,,030422,1,3,0,2,3,1,1,0,52,2022_Mar_04_1141,listening_fmri,3.2.4,59.81269022046281,
,1,parcelated_audio/12/12_27.ogg,,,,,,,,,0,0,0,0,0,1,1,1,0,0,0,0,,,,,,,,,0,0,0,0,0,26,26,26,,,,,,,,,,,,,,,,,,,,,,,,,,,,,,,,,,,,,,,,,,,,,,,,,,,,,,,,,,,,,,,,,,,,,,,,,,,,,,,,,,,,,,,,,,,,,,,,,,,,,,,,,,,,,,,,,,183.42350178300057,191.09231117400032,,,,,,,,,,,,,,,,,,,,,,,,,,,,,,,,,,,,,,,,,,,,,,,,,,,,,030422,1,3,0,2,3,1,1,0,52,2022_Mar_04_1141,listening_fmri,3.2.4,59.81269022046281,
,1,parcelated_audio/12/12_28.ogg,,,,,,,,,0,0,0,0,0,1,1,1,0,0,0,0,,,,,,,,,0,0,0,0,0,27,27,27,,,,,,,,,,,,,,,,,,,,,,,,,,,,,,,,,,,,,,,,,,,,,,,,,,,,,,,,,,,,,,,,,,,,,,,,,,,,,,,,,,,,,,,,,,,,,,,,,,,,,,,,,,,,,,,,,,191.09272253000017,202.07738136800072,,,,,,,,,,,,,,,,,,,,,,,,,,,,,,,,,,,,,,,,,,,,,,,,,,,,,030422,1,3,0,2,3,1,1,0,52,2022_Mar_04_1141,listening_fmri,3.2.4,59.81269022046281,
,1,parcelated_audio/12/12_29.ogg,,,,,,,,,0,0,0,0,0,1,1,1,0,0,0,0,,,,,,,,,0,0,0,0,0,28,28,28,,,,,,,,,,,,,,,,,,,,,,,,,,,,,,,,,,,,,,,,,,,,,,,,,,,,,,,,,,,,,,,,,,,,,,,,,,,,,,,,,,,,,,,,,,,,,,,,,,,,,,,,,,,,,,,,,,202.0779051620002,208.16653871800008,,,,,,,,,,,,,,,,,,,,,,,,,,,,,,,,,,,,,,,,,,,,,,,,,,,,,030422,1,3,0,2,3,1,1,0,52,2022_Mar_04_1141,listening_fmri,3.2.4,59.81269022046281,
,1,parcelated_audio/12/12_30.ogg,,,,,,,,,0,0,0,0,0,1,1,1,0,0,0,0,,,,,,,,,0,0,0,0,0,29,29,29,,,,,,,,,,,,,,,,,,,,,,,,,,,,,,,,,,,,,,,,,,,,,,,,,,,,,,,,,,,,,,,,,,,,,,,,,,,,,,,,,,,,,,,,,,,,,,,,,,,,,,,,,,,,,,,,,,208.16692967400013,215.1236482000004,,,,,,,,,,,,,,,,,,,,,,,,,,,,,,,,,,,,,,,,,,,,,,,,,,,,,030422,1,3,0,2,3,1,1,0,52,2022_Mar_04_1141,listening_fmri,3.2.4,59.81269022046281,
,1,parcelated_audio/12/12_31.ogg,,,,,,,,,0,0,0,0,0,1,1,1,0,0,0,0,,,,,,,,,0,0,0,0,0,30,30,30,,,,,,,,,,,,,,,,,,,,,,,,,,,,,,,,,,,,,,,,,,,,,,,,,,,,,,,,,,,,,,,,,,,,,,,,,,,,,,,,,,,,,,,,,,,,,,,,,,,,,,,,,,,,,,,,,,215.124051625,222.27320984200014,,,,,,,,,,,,,,,,,,,,,,,,,,,,,,,,,,,,,,,,,,,,,,,,,,,,,030422,1,3,0,2,3,1,1,0,52,2022_Mar_04_1141,listening_fmri,3.2.4,59.81269022046281,
,1,,,,,,,,,,0,0,0,0,0,1,1,1,0,0,0,0,,,,,,,,,0,0,0,0,,,,,,,,,,,,,,,,,,,,,,,,,,,,,,,,,,,,,,,,,,,,,,,,,,,,,,,,,,,,,,,,,,,,,,,,,,,,,,,,,,,,,,,,,,,,,,,,,,,,,,,,,,,,,,,,,,,,,,,,,,,,,,,,,,,,,,,,,,,,,,,,,,,,,,,,,,,,,,,,,,,,,,,,,,,,030422,1,3,0,2,3,1,1,0,52,2022_Mar_04_1141,listening_fmri,3.2.4,59.81269022046281,
,1,,,,,,,,,,0,0,0,0,0,1,1,1,0,0,0,0,,,,,,,,,,,,,,,,,,,,,,,,,,,,,,,,,,,,,,,,,,,,,,,,,,,,,,,,,,,,,,,,,,,,,,,,,,,,,,,,,,,,,,,,,,,,,,,,,,,,,,,,,,,,222.27356758600035,228.261820533,266.5315578789996,None,,,,,,,,,,,,,,,,,,,,,272.5316319530002,None,272.5316319530002,None,,,,,,,,,,,,,,,,,,,,,,,,,,,,,,,,,,,,,,,,,,,,,,,,,030422,1,3,0,2,3,1,1,0,52,2022_Mar_04_1141,listening_fmri,3.2.4,59.81269022046281,
,1,,,,,,,,,,0,0,0,0,0,1,1,1,,,,,,,,,,,,,,,,,,,,,,,,,,,,,,,,,,,,,,,,,,,,,,,,,,,,,,,,,,,,,,,,,,,,,,,,,,,,,,,,,,,,,,,,,,,,,,,,,,,,,,,,,,,,,,,,,,,,,,,,,,,,,,,,,,,,,,,,,,,,,,,,,,,,,,,,,,,,,,,,,,,,,,,,,,,,,,,,,,,,,,,,,,,,030422,1,3,0,2,3,1,1,0,52,2022_Mar_04_1141,listening_fmri,3.2.4,59.81269022046281,
,2,,,,,,,,,,0,0,0,0,0,2,2,2,0,0,0,0,0,0,0,0,,,,,,,,,,,,,,,,,0,0,0,0,,,,,,,,,,,,,,,,,,,,,,,,,,,,,,,,,,,,,,,,,,,,,,,,,,,,,,,,,,,,,,,,,,,,,,,,,,,,,,,,,,,,,,,,273.54713621500014,None,1,0.8434091970002555,273.54713621500014,None,273.54713621500014,None,273.54713621500014,None,,,,,,,,,,,,,,,274.4201064279996,None,1,1.2595424390001426,274.4201064279996,None,274.4201064279996,None,275.7318046950004,None,275.7318046950004,None,275.7318046950004,None,1,1.2017985829997997,275.7318046950004,None,276.969461097,None,1,2.6542202310001812,276.969461097,None,276.969461097,None,279.71367674199973,None,279.71367674199973,None,279.71367674199973,None,279.71367674199973,None,279.71367674199973,None,279.71367674199973,None,279.71367674199973,None,,,,,,,,,030422,1,3,0,2,3,1,1,0,52,2022_Mar_04_1141,listening_fmri,3.2.4,59.81269022046281,
,2,,,,,,,,,,0,0,0,0,0,2,2,2,0,0,0,0,0,0,0,0,,,,,,,,,,,,,,,,,,,,,,,,,,,,,,,,,,,,,,,,,,,,,,,,,,,,,,,,,,,,,,,,,,,,,,,,,,,,,,,,,,,,,,,,,,,,,,,,,,,,,,,,,,,,,,,,,,,,,,,,,,,,,,,,,,,,,,,,,,,,299.781315491,None,299.781315491,None,299.781315491,None,1,1.19722052599991,299.781315491,None,,,,,,,,,,,,,,,,,,,,,,,297.931250269,None,1,1.8152466430001368,297.931250269,None,297.931250269,None,030422,1,3,0,2,3,1,1,0,52,2022_Mar_04_1141,listening_fmri,3.2.4,59.81269022046281,
,2,parcelated_audio/11/11_1.ogg,,,,,,,,,0,0,0,0,0,2,2,2,0,0,0,0,,,,,,,,,0,0,0,0,0,0,0,0,,,,,,,,,,,,,,,,,,,,,,,,,,,,,,,,,,,,,,,,,,,,,,,,,,,,,,,,,,,,,,,,,,,,,,,,,,,,,,,,,,,,,,,,,,,,,,,,,,,,,,,,,,301.0034484030002,None,1,2.185221235999961,301.0034484030002,None,258.9584529650001,261.9668608790007,261.9766882849999,274.0560551540002,,,,,,,,,,,,,,,,,,,,,,,,,,,,,,,,,,,,,,,,,,,,,,,,,,,,,030422,1,3,0,2,3,1,1,0,52,2022_Mar_04_1141,listening_fmri,3.2.4,59.81269022046281,
,2,parcelated_audio/11/11_2.ogg,,,,,,,,,0,0,0,0,0,2,2,2,0,0,0,0,,,,,,,,,0,0,0,0,0,1,1,1,,,,,,,,,,,,,,,,,,,,,,,,,,,,,,,,,,,,,,,,,,,,,,,,,,,,,,,,,,,,,,,,,,,,,,,,,,,,,,,,,,,,,,,,,,,,,,,,,,,,,,,,,,,,,,,,,,274.0565654530001,278.54788374300006,,,,,,,,,,,,,,,,,,,,,,,,,,,,,,,,,,,,,,,,,,,,,,,,,,,,,030422,1,3,0,2,3,1,1,0,52,2022_Mar_04_1141,listening_fmri,3.2.4,59.81269022046281,
,2,parcelated_audio/11/11_3.ogg,,,,,,,,,0,0,0,0,0,2,2,2,0,0,0,0,,,,,,,,,0,0,0,0,0,2,2,2,,,,,,,,,,,,,,,,,,,,,,,,,,,,,,,,,,,,,,,,,,,,,,,,,,,,,,,,,,,,,,,,,,,,,,,,,,,,,,,,,,,,,,,,,,,,,,,,,,,,,,,,,,,,,,,,,,278.54814330499994,283.5383448700004,,,,,,,,,,,,,,,,,,,,,,,,,,,,,,,,,,,,,,,,,,,,,,,,,,,,,030422,1,3,0,2,3,1,1,0,52,2022_Mar_04_1141,listening_fmri,3.2.4,59.81269022046281,
,2,parcelated_audio/11/11_4.ogg,,,,,,,,,0,0,0,0,0,2,2,2,0,0,0,0,,,,,,,,,0,0,0,0,0,3,3,3,,,,,,,,,,,,,,,,,,,,,,,,,,,,,,,,,,,,,,,,,,,,,,,,,,,,,,,,,,,,,,,,,,,,,,,,,,,,,,,,,,,,,,,,,,,,,,,,,,,,,,,,,,,,,,,,,,283.5389006129999,292.6395142470001,,,,,,,,,,,,,,,,,,,,,,,,,,,,,,,,,,,,,,,,,,,,,,,,,,,,,030422,1,3,0,2,3,1,1,0,52,2022_Mar_04_1141,listening_fmri,3.2.4,59.81269022046281,
,2,parcelated_audio/11/11_5.ogg,,,,,,,,,0,0,0,0,0,2,2,2,0,0,0,0,,,,,,,,,0,0,0,0,0,4,4,4,,,,,,,,,,,,,,,,,,,,,,,,,,,,,,,,,,,,,,,,,,,,,,,,,,,,,,,,,,,,,,,,,,,,,,,,,,,,,,,,,,,,,,,,,,,,,,,,,,,,,,,,,,,,,,,,,,292.63978997400045,298.4101221360006,,,,,,,,,,,,,,,,,,,,,,,,,,,,,,,,,,,,,,,,,,,,,,,,,,,,,030422,1,3,0,2,3,1,1,0,52,2022_Mar_04_1141,listening_fmri,3.2.4,59.81269022046281,
,2,parcelated_audio/11/11_6.ogg,,,,,,,,,0,0,0,0,0,2,2,2,0,0,0,0,,,,,,,,,0,0,0,0,0,5,5,5,,,,,,,,,,,,,,,,,,,,,,,,,,,,,,,,,,,,,,,,,,,,,,,,,,,,,,,,,,,,,,,,,,,,,,,,,,,,,,,,,,,,,,,,,,,,,,,,,,,,,,,,,,,,,,,,,,298.4107793510002,302.9945868680006,,,,,,,,,,,,,,,,,,,,,,,,,,,,,,,,,,,,,,,,,,,,,,,,,,,,,030422,1,3,0,2,3,1,1,0,52,2022_Mar_04_1141,listening_fmri,3.2.4,59.81269022046281,
,2,parcelated_audio/11/11_7.ogg,,,,,,,,,0,0,0,0,0,2,2,2,0,0,0,0,,,,,,,,,0,0,0,0,0,6,6,6,,,,,,,,,,,,,,,,,,,,,,,,,,,,,,,,,,,,,,,,,,,,,,,,,,,,,,,,,,,,,,,,,,,,,,,,,,,,,,,,,,,,,,,,,,,,,,,,,,,,,,,,,,,,,,,,,,302.9949214140006,309.54010699399987,,,,,,,,,,,,,,,,,,,,,,,,,,,,,,,,,,,,,,,,,,,,,,,,,,,,,030422,1,3,0,2,3,1,1,0,52,2022_Mar_04_1141,listening_fmri,3.2.4,59.81269022046281,
,2,parcelated_audio/11/11_8.ogg,,,,,,,,,0,0,0,0,0,2,2,2,0,0,0,0,,,,,,,,,0,0,0,0,0,7,7,7,,,,,,,,,,,,,,,,,,,,,,,,,,,,,,,,,,,,,,,,,,,,,,,,,,,,,,,,,,,,,,,,,,,,,,,,,,,,,,,,,,,,,,,,,,,,,,,,,,,,,,,,,,,,,,,,,,309.54051427600007,315.3162429670001,,,,,,,,,,,,,,,,,,,,,,,,,,,,,,,,,,,,,,,,,,,,,,,,,,,,,030422,1,3,0,2,3,1,1,0,52,2022_Mar_04_1141,listening_fmri,3.2.4,59.81269022046281,
,2,parcelated_audio/11/11_9.ogg,,,,,,,,,0,0,0,0,0,2,2,2,0,0,0,0,,,,,,,,,0,0,0,0,0,8,8,8,,,,,,,,,,,,,,,,,,,,,,,,,,,,,,,,,,,,,,,,,,,,,,,,,,,,,,,,,,,,,,,,,,,,,,,,,,,,,,,,,,,,,,,,,,,,,,,,,,,,,,,,,,,,,,,,,,315.3166164100003,319.62804189100007,,,,,,,,,,,,,,,,,,,,,,,,,,,,,,,,,,,,,,,,,,,,,,,,,,,,,030422,1,3,0,2,3,1,1,0,52,2022_Mar_04_1141,listening_fmri,3.2.4,59.81269022046281,
,2,parcelated_audio/11/11_10.ogg,,,,,,,,,0,0,0,0,0,2,2,2,0,0,0,0,,,,,,,,,0,0,0,0,0,9,9,9,,,,,,,,,,,,,,,,,,,,,,,,,,,,,,,,,,,,,,,,,,,,,,,,,,,,,,,,,,,,,,,,,,,,,,,,,,,,,,,,,,,,,,,,,,,,,,,,,,,,,,,,,,,,,,,,,,319.6282995669999,324.20537664699987,,,,,,,,,,,,,,,,,,,,,,,,,,,,,,,,,,,,,,,,,,,,,,,,,,,,,030422,1,3,0,2,3,1,1,0,52,2022_Mar_04_1141,listening_fmri,3.2.4,59.81269022046281,
,2,parcelated_audio/11/11_11.ogg,,,,,,,,,0,0,0,0,0,2,2,2,0,0,0,0,,,,,,,,,0,0,0,0,0,10,10,10,,,,,,,,,,,,,,,,,,,,,,,,,,,,,,,,,,,,,,,,,,,,,,,,,,,,,,,,,,,,,,,,,,,,,,,,,,,,,,,,,,,,,,,,,,,,,,,,,,,,,,,,,,,,,,,,,,324.2056712120002,327.40142367499993,,,,,,,,,,,,,,,,,,,,,,,,,,,,,,,,,,,,,,,,,,,,,,,,,,,,,030422,1,3,0,2,3,1,1,0,52,2022_Mar_04_1141,listening_fmri,3.2.4,59.81269022046281,
,2,parcelated_audio/11/11_12.ogg,,,,,,,,,0,0,0,0,0,2,2,2,0,0,0,0,,,,,,,,,0,0,0,0,0,11,11,11,,,,,,,,,,,,,,,,,,,,,,,,,,,,,,,,,,,,,,,,,,,,,,,,,,,,,,,,,,,,,,,,,,,,,,,,,,,,,,,,,,,,,,,,,,,,,,,,,,,,,,,,,,,,,,,,,,327.40169918300035,330.25347476300067,,,,,,,,,,,,,,,,,,,,,,,,,,,,,,,,,,,,,,,,,,,,,,,,,,,,,030422,1,3,0,2,3,1,1,0,52,2022_Mar_04_1141,listening_fmri,3.2.4,59.81269022046281,
,2,parcelated_audio/11/11_13.ogg,,,,,,,,,0,0,0,0,0,2,2,2,0,0,0,0,,,,,,,,,0,0,0,0,0,12,12,12,,,,,,,,,,,,,,,,,,,,,,,,,,,,,,,,,,,,,,,,,,,,,,,,,,,,,,,,,,,,,,,,,,,,,,,,,,,,,,,,,,,,,,,,,,,,,,,,,,,,,,,,,,,,,,,,,,330.2537485040002,333.56397294700037,,,,,,,,,,,,,,,,,,,,,,,,,,,,,,,,,,,,,,,,,,,,,,,,,,,,,030422,1,3,0,2,3,1,1,0,52,2022_Mar_04_1141,listening_fmri,3.2.4,59.81269022046281,
,2,parcelated_audio/11/11_14.ogg,,,,,,,,,0,0,0,0,0,2,2,2,0,0,0,0,,,,,,,,,0,0,0,0,0,13,13,13,,,,,,,,,,,,,,,,,,,,,,,,,,,,,,,,,,,,,,,,,,,,,,,,,,,,,,,,,,,,,,,,,,,,,,,,,,,,,,,,,,,,,,,,,,,,,,,,,,,,,,,,,,,,,,,,,,333.56424844699995,336.2652237910006,,,,,,,,,,,,,,,,,,,,,,,,,,,,,,,,,,,,,,,,,,,,,,,,,,,,,030422,1,3,0,2,3,1,1,0,52,2022_Mar_04_1141,listening_fmri,3.2.4,59.81269022046281,
,2,parcelated_audio/11/11_15.ogg,,,,,,,,,0,0,0,0,0,2,2,2,0,0,0,0,,,,,,,,,0,0,0,0,0,14,14,14,,,,,,,,,,,,,,,,,,,,,,,,,,,,,,,,,,,,,,,,,,,,,,,,,,,,,,,,,,,,,,,,,,,,,,,,,,,,,,,,,,,,,,,,,,,,,,,,,,,,,,,,,,,,,,,,,,336.2655696740003,347.44380257800003,,,,,,,,,,,,,,,,,,,,,,,,,,,,,,,,,,,,,,,,,,,,,,,,,,,,,030422,1,3,0,2,3,1,1,0,52,2022_Mar_04_1141,listening_fmri,3.2.4,59.81269022046281,
,2,parcelated_audio/11/11_16.ogg,,,,,,,,,0,0,0,0,0,2,2,2,0,0,0,0,,,,,,,,,0,0,0,0,0,15,15,15,,,,,,,,,,,,,,,,,,,,,,,,,,,,,,,,,,,,,,,,,,,,,,,,,,,,,,,,,,,,,,,,,,,,,,,,,,,,,,,,,,,,,,,,,,,,,,,,,,,,,,,,,,,,,,,,,,347.444101776,350.4454999870004,,,,,,,,,,,,,,,,,,,,,,,,,,,,,,,,,,,,,,,,,,,,,,,,,,,,,030422,1,3,0,2,3,1,1,0,52,2022_Mar_04_1141,listening_fmri,3.2.4,59.81269022046281,
,2,parcelated_audio/11/11_17.ogg,,,,,,,,,0,0,0,0,0,2,2,2,0,0,0,0,,,,,,,,,0,0,0,0,0,16,16,16,,,,,,,,,,,,,,,,,,,,,,,,,,,,,,,,,,,,,,,,,,,,,,,,,,,,,,,,,,,,,,,,,,,,,,,,,,,,,,,,,,,,,,,,,,,,,,,,,,,,,,,,,,,,,,,,,,350.44585445100074,357.4339950200001,,,,,,,,,,,,,,,,,,,,,,,,,,,,,,,,,,,,,,,,,,,,,,,,,,,,,030422,1,3,0,2,3,1,1,0,52,2022_Mar_04_1141,listening_fmri,3.2.4,59.81269022046281,
,2,parcelated_audio/11/11_18.ogg,,,,,,,,,0,0,0,0,0,2,2,2,0,0,0,0,,,,,,,,,0,0,0,0,0,17,17,17,,,,,,,,,,,,,,,,,,,,,,,,,,,,,,,,,,,,,,,,,,,,,,,,,,,,,,,,,,,,,,,,,,,,,,,,,,,,,,,,,,,,,,,,,,,,,,,,,,,,,,,,,,,,,,,,,,357.434264689,364.89670544,,,,,,,,,,,,,,,,,,,,,,,,,,,,,,,,,,,,,,,,,,,,,,,,,,,,,030422,1,3,0,2,3,1,1,0,52,2022_Mar_04_1141,listening_fmri,3.2.4,59.81269022046281,
,2,parcelated_audio/11/11_19.ogg,,,,,,,,,0,0,0,0,0,2,2,2,0,0,0,0,,,,,,,,,0,0,0,0,0,18,18,18,,,,,,,,,,,,,,,,,,,,,,,,,,,,,,,,,,,,,,,,,,,,,,,,,,,,,,,,,,,,,,,,,,,,,,,,,,,,,,,,,,,,,,,,,,,,,,,,,,,,,,,,,,,,,,,,,,364.89698075400065,369.5790643290002,,,,,,,,,,,,,,,,,,,,,,,,,,,,,,,,,,,,,,,,,,,,,,,,,,,,,030422,1,3,0,2,3,1,1,0,52,2022_Mar_04_1141,listening_fmri,3.2.4,59.81269022046281,
,2,parcelated_audio/11/11_20.ogg,,,,,,,,,0,0,0,0,0,2,2,2,0,0,0,0,,,,,,,,,0,0,0,0,0,19,19,19,,,,,,,,,,,,,,,,,,,,,,,,,,,,,,,,,,,,,,,,,,,,,,,,,,,,,,,,,,,,,,,,,,,,,,,,,,,,,,,,,,,,,,,,,,,,,,,,,,,,,,,,,,,,,,,,,,369.5793412180001,374.5044580920003,,,,,,,,,,,,,,,,,,,,,,,,,,,,,,,,,,,,,,,,,,,,,,,,,,,,,030422,1,3,0,2,3,1,1,0,52,2022_Mar_04_1141,listening_fmri,3.2.4,59.81269022046281,
,2,parcelated_audio/11/11_21.ogg,,,,,,,,,0,0,0,0,0,2,2,2,0,0,0,0,,,,,,,,,0,0,0,0,0,20,20,20,,,,,,,,,,,,,,,,,,,,,,,,,,,,,,,,,,,,,,,,,,,,,,,,,,,,,,,,,,,,,,,,,,,,,,,,,,,,,,,,,,,,,,,,,,,,,,,,,,,,,,,,,,,,,,,,,,374.50473637600044,383.27688480600045,,,,,,,,,,,,,,,,,,,,,,,,,,,,,,,,,,,,,,,,,,,,,,,,,,,,,030422,1,3,0,2,3,1,1,0,52,2022_Mar_04_1141,listening_fmri,3.2.4,59.81269022046281,
,2,parcelated_audio/11/11_22.ogg,,,,,,,,,0,0,0,0,0,2,2,2,0,0,0,0,,,,,,,,,0,0,0,0,0,21,21,21,,,,,,,,,,,,,,,,,,,,,,,,,,,,,,,,,,,,,,,,,,,,,,,,,,,,,,,,,,,,,,,,,,,,,,,,,,,,,,,,,,,,,,,,,,,,,,,,,,,,,,,,,,,,,,,,,,383.2771627580005,386.5786079970003,,,,,,,,,,,,,,,,,,,,,,,,,,,,,,,,,,,,,,,,,,,,,,,,,,,,,030422,1,3,0,2,3,1,1,0,52,2022_Mar_04_1141,listening_fmri,3.2.4,59.81269022046281,
,2,parcelated_audio/11/11_23.ogg,,,,,,,,,0,0,0,0,0,2,2,2,0,0,0,0,,,,,,,,,0,0,0,0,0,22,22,22,,,,,,,,,,,,,,,,,,,,,,,,,,,,,,,,,,,,,,,,,,,,,,,,,,,,,,,,,,,,,,,,,,,,,,,,,,,,,,,,,,,,,,,,,,,,,,,,,,,,,,,,,,,,,,,,,,386.5790015680004,391.3754891990002,,,,,,,,,,,,,,,,,,,,,,,,,,,,,,,,,,,,,,,,,,,,,,,,,,,,,030422,1,3,0,2,3,1,1,0,52,2022_Mar_04_1141,listening_fmri,3.2.4,59.81269022046281,
,2,parcelated_audio/11/11_24.ogg,,,,,,,,,0,0,0,0,0,2,2,2,0,0,0,0,,,,,,,,,0,0,0,0,0,23,23,23,,,,,,,,,,,,,,,,,,,,,,,,,,,,,,,,,,,,,,,,,,,,,,,,,,,,,,,,,,,,,,,,,,,,,,,,,,,,,,,,,,,,,,,,,,,,,,,,,,,,,,,,,,,,,,,,,,391.37576851300037,395.00486825900043,,,,,,,,,,,,,,,,,,,,,,,,,,,,,,,,,,,,,,,,,,,,,,,,,,,,,030422,1,3,0,2,3,1,1,0,52,2022_Mar_04_1141,listening_fmri,3.2.4,59.81269022046281,
,2,parcelated_audio/11/11_25.ogg,,,,,,,,,0,0,0,0,0,2,2,2,0,0,0,0,,,,,,,,,0,0,0,0,0,24,24,24,,,,,,,,,,,,,,,,,,,,,,,,,,,,,,,,,,,,,,,,,,,,,,,,,,,,,,,,,,,,,,,,,,,,,,,,,,,,,,,,,,,,,,,,,,,,,,,,,,,,,,,,,,,,,,,,,,395.0051510460007,399.76240612700076,,,,,,,,,,,,,,,,,,,,,,,,,,,,,,,,,,,,,,,,,,,,,,,,,,,,,030422,1,3,0,2,3,1,1,0,52,2022_Mar_04_1141,listening_fmri,3.2.4,59.81269022046281,
,2,parcelated_audio/11/11_26.ogg,,,,,,,,,0,0,0,0,0,2,2,2,0,0,0,0,,,,,,,,,0,0,0,0,0,25,25,25,,,,,,,,,,,,,,,,,,,,,,,,,,,,,,,,,,,,,,,,,,,,,,,,,,,,,,,,,,,,,,,,,,,,,,,,,,,,,,,,,,,,,,,,,,,,,,,,,,,,,,,,,,,,,,,,,,399.76268637500016,404.7678401250005,,,,,,,,,,,,,,,,,,,,,,,,,,,,,,,,,,,,,,,,,,,,,,,,,,,,,030422,1,3,0,2,3,1,1,0,52,2022_Mar_04_1141,listening_fmri,3.2.4,59.81269022046281,
,2,parcelated_audio/11/11_27.ogg,,,,,,,,,0,0,0,0,0,2,2,2,0,0,0,0,,,,,,,,,0,0,0,0,0,26,26,26,,,,,,,,,,,,,,,,,,,,,,,,,,,,,,,,,,,,,,,,,,,,,,,,,,,,,,,,,,,,,,,,,,,,,,,,,,,,,,,,,,,,,,,,,,,,,,,,,,,,,,,,,,,,,,,,,,404.76811040100074,408.73305177600014,,,,,,,,,,,,,,,,,,,,,,,,,,,,,,,,,,,,,,,,,,,,,,,,,,,,,030422,1,3,0,2,3,1,1,0,52,2022_Mar_04_1141,listening_fmri,3.2.4,59.81269022046281,
,2,parcelated_audio/11/11_28.ogg,,,,,,,,,0,0,0,0,0,2,2,2,0,0,0,0,,,,,,,,,0,0,0,0,0,27,27,27,,,,,,,,,,,,,,,,,,,,,,,,,,,,,,,,,,,,,,,,,,,,,,,,,,,,,,,,,,,,,,,,,,,,,,,,,,,,,,,,,,,,,,,,,,,,,,,,,,,,,,,,,,,,,,,,,,408.733328583,412.18654927700027,,,,,,,,,,,,,,,,,,,,,,,,,,,,,,,,,,,,,,,,,,,,,,,,,,,,,030422,1,3,0,2,3,1,1,0,52,2022_Mar_04_1141,listening_fmri,3.2.4,59.81269022046281,
,2,parcelated_audio/11/11_29.ogg,,,,,,,,,0,0,0,0,0,2,2,2,0,0,0,0,,,,,,,,,0,0,0,0,0,28,28,28,,,,,,,,,,,,,,,,,,,,,,,,,,,,,,,,,,,,,,,,,,,,,,,,,,,,,,,,,,,,,,,,,,,,,,,,,,,,,,,,,,,,,,,,,,,,,,,,,,,,,,,,,,,,,,,,,,412.1869195290001,416.37523082999996,,,,,,,,,,,,,,,,,,,,,,,,,,,,,,,,,,,,,,,,,,,,,,,,,,,,,030422,1,3,0,2,3,1,1,0,52,2022_Mar_04_1141,listening_fmri,3.2.4,59.81269022046281,
,2,parcelated_audio/11/11_30.ogg,,,,,,,,,0,0,0,0,0,2,2,2,0,0,0,0,,,,,,,,,0,0,0,0,0,29,29,29,,,,,,,,,,,,,,,,,,,,,,,,,,,,,,,,,,,,,,,,,,,,,,,,,,,,,,,,,,,,,,,,,,,,,,,,,,,,,,,,,,,,,,,,,,,,,,,,,,,,,,,,,,,,,,,,,,416.37551119900036,420.8930124140006,,,,,,,,,,,,,,,,,,,,,,,,,,,,,,,,,,,,,,,,,,,,,,,,,,,,,030422,1,3,0,2,3,1,1,0,52,2022_Mar_04_1141,listening_fmri,3.2.4,59.81269022046281,
,2,parcelated_audio/11/11_31.ogg,,,,,,,,,0,0,0,0,0,2,2,2,0,0,0,0,,,,,,,,,0,0,0,0,0,30,30,30,,,,,,,,,,,,,,,,,,,,,,,,,,,,,,,,,,,,,,,,,,,,,,,,,,,,,,,,,,,,,,,,,,,,,,,,,,,,,,,,,,,,,,,,,,,,,,,,,,,,,,,,,,,,,,,,,,420.8932906580003,425.7573318250006,,,,,,,,,,,,,,,,,,,,,,,,,,,,,,,,,,,,,,,,,,,,,,,,,,,,,030422,1,3,0,2,3,1,1,0,52,2022_Mar_04_1141,listening_fmri,3.2.4,59.81269022046281,
,2,parcelated_audio/11/11_32.ogg,,,,,,,,,0,0,0,0,0,2,2,2,0,0,0,0,,,,,,,,,0,0,0,0,0,31,31,31,,,,,,,,,,,,,,,,,,,,,,,,,,,,,,,,,,,,,,,,,,,,,,,,,,,,,,,,,,,,,,,,,,,,,,,,,,,,,,,,,,,,,,,,,,,,,,,,,,,,,,,,,,,,,,,,,,425.7576800480001,429.8207442370003,,,,,,,,,,,,,,,,,,,,,,,,,,,,,,,,,,,,,,,,,,,,,,,,,,,,,030422,1,3,0,2,3,1,1,0,52,2022_Mar_04_1141,listening_fmri,3.2.4,59.81269022046281,
,2,parcelated_audio/11/11_33.ogg,,,,,,,,,0,0,0,0,0,2,2,2,0,0,0,0,,,,,,,,,0,0,0,0,0,32,32,32,,,,,,,,,,,,,,,,,,,,,,,,,,,,,,,,,,,,,,,,,,,,,,,,,,,,,,,,,,,,,,,,,,,,,,,,,,,,,,,,,,,,,,,,,,,,,,,,,,,,,,,,,,,,,,,,,,429.82107132300007,432.3512539780004,,,,,,,,,,,,,,,,,,,,,,,,,,,,,,,,,,,,,,,,,,,,,,,,,,,,,030422,1,3,0,2,3,1,1,0,52,2022_Mar_04_1141,listening_fmri,3.2.4,59.81269022046281,
,2,parcelated_audio/11/11_34.ogg,,,,,,,,,0,0,0,0,0,2,2,2,0,0,0,0,,,,,,,,,0,0,0,0,0,33,33,33,,,,,,,,,,,,,,,,,,,,,,,,,,,,,,,,,,,,,,,,,,,,,,,,,,,,,,,,,,,,,,,,,,,,,,,,,,,,,,,,,,,,,,,,,,,,,,,,,,,,,,,,,,,,,,,,,,432.3515812230007,435.6604568950006,,,,,,,,,,,,,,,,,,,,,,,,,,,,,,,,,,,,,,,,,,,,,,,,,,,,,030422,1,3,0,2,3,1,1,0,52,2022_Mar_04_1141,listening_fmri,3.2.4,59.81269022046281,
,2,parcelated_audio/11/11_35.ogg,,,,,,,,,0,0,0,0,0,2,2,2,0,0,0,0,,,,,,,,,0,0,0,0,0,34,34,34,,,,,,,,,,,,,,,,,,,,,,,,,,,,,,,,,,,,,,,,,,,,,,,,,,,,,,,,,,,,,,,,,,,,,,,,,,,,,,,,,,,,,,,,,,,,,,,,,,,,,,,,,,,,,,,,,,435.6607753140006,440.0364593610002,,,,,,,,,,,,,,,,,,,,,,,,,,,,,,,,,,,,,,,,,,,,,,,,,,,,,030422,1,3,0,2,3,1,1,0,52,2022_Mar_04_1141,listening_fmri,3.2.4,59.81269022046281,
,2,parcelated_audio/11/11_36.ogg,,,,,,,,,0,0,0,0,0,2,2,2,0,0,0,0,,,,,,,,,0,0,0,0,0,35,35,35,,,,,,,,,,,,,,,,,,,,,,,,,,,,,,,,,,,,,,,,,,,,,,,,,,,,,,,,,,,,,,,,,,,,,,,,,,,,,,,,,,,,,,,,,,,,,,,,,,,,,,,,,,,,,,,,,,440.036736305,449.0647770120004,,,,,,,,,,,,,,,,,,,,,,,,,,,,,,,,,,,,,,,,,,,,,,,,,,,,,030422,1,3,0,2,3,1,1,0,52,2022_Mar_04_1141,listening_fmri,3.2.4,59.81269022046281,
,2,parcelated_audio/11/11_37.ogg,,,,,,,,,0,0,0,0,0,2,2,2,0,0,0,0,,,,,,,,,0,0,0,0,0,36,36,36,,,,,,,,,,,,,,,,,,,,,,,,,,,,,,,,,,,,,,,,,,,,,,,,,,,,,,,,,,,,,,,,,,,,,,,,,,,,,,,,,,,,,,,,,,,,,,,,,,,,,,,,,,,,,,,,,,449.0653396180005,453.2682195140005,,,,,,,,,,,,,,,,,,,,,,,,,,,,,,,,,,,,,,,,,,,,,,,,,,,,,030422,1,3,0,2,3,1,1,0,52,2022_Mar_04_1141,listening_fmri,3.2.4,59.81269022046281,
,2,parcelated_audio/11/11_38.ogg,,,,,,,,,0,0,0,0,0,2,2,2,0,0,0,0,,,,,,,,,0,0,0,0,0,37,37,37,,,,,,,,,,,,,,,,,,,,,,,,,,,,,,,,,,,,,,,,,,,,,,,,,,,,,,,,,,,,,,,,,,,,,,,,,,,,,,,,,,,,,,,,,,,,,,,,,,,,,,,,,,,,,,,,,,453.26849598600074,459.43077532000007,,,,,,,,,,,,,,,,,,,,,,,,,,,,,,,,,,,,,,,,,,,,,,,,,,,,,030422,1,3,0,2,3,1,1,0,52,2022_Mar_04_1141,listening_fmri,3.2.4,59.81269022046281,
,2,parcelated_audio/11/11_39.ogg,,,,,,,,,0,0,0,0,0,2,2,2,0,0,0,0,,,,,,,,,0,0,0,0,0,38,38,38,,,,,,,,,,,,,,,,,,,,,,,,,,,,,,,,,,,,,,,,,,,,,,,,,,,,,,,,,,,,,,,,,,,,,,,,,,,,,,,,,,,,,,,,,,,,,,,,,,,,,,,,,,,,,,,,,,459.43105137600014,464.6495060900006,,,,,,,,,,,,,,,,,,,,,,,,,,,,,,,,,,,,,,,,,,,,,,,,,,,,,030422,1,3,0,2,3,1,1,0,52,2022_Mar_04_1141,listening_fmri,3.2.4,59.81269022046281,
,2,parcelated_audio/11/11_40.ogg,,,,,,,,,0,0,0,0,0,2,2,2,0,0,0,0,,,,,,,,,0,0,0,0,0,39,39,39,,,,,,,,,,,,,,,,,,,,,,,,,,,,,,,,,,,,,,,,,,,,,,,,,,,,,,,,,,,,,,,,,,,,,,,,,,,,,,,,,,,,,,,,,,,,,,,,,,,,,,,,,,,,,,,,,,464.64976395900067,470.32128826999997,,,,,,,,,,,,,,,,,,,,,,,,,,,,,,,,,,,,,,,,,,,,,,,,,,,,,030422,1,3,0,2,3,1,1,0,52,2022_Mar_04_1141,listening_fmri,3.2.4,59.81269022046281,
,2,parcelated_audio/11/11_41.ogg,,,,,,,,,0,0,0,0,0,2,2,2,0,0,0,0,,,,,,,,,0,0,0,0,0,40,40,40,,,,,,,,,,,,,,,,,,,,,,,,,,,,,,,,,,,,,,,,,,,,,,,,,,,,,,,,,,,,,,,,,,,,,,,,,,,,,,,,,,,,,,,,,,,,,,,,,,,,,,,,,,,,,,,,,,470.32165933600027,476.4811070380001,,,,,,,,,,,,,,,,,,,,,,,,,,,,,,,,,,,,,,,,,,,,,,,,,,,,,030422,1,3,0,2,3,1,1,0,52,2022_Mar_04_1141,listening_fmri,3.2.4,59.81269022046281,
,2,,,,,,,,,,0,0,0,0,0,2,2,2,0,0,0,0,,,,,,,,,0,0,0,0,,,,,,,,,,,,,,,,,,,,,,,,,,,,,,,,,,,,,,,,,,,,,,,,,,,,,,,,,,,,,,,,,,,,,,,,,,,,,,,,,,,,,,,,,,,,,,,,,,,,,,,,,,,,,,,,,,,,,,,,,,,,,,,,,,,,,,,,,,,,,,,,,,,,,,,,,,,,,,,,,,,,,,,,,,,,030422,1,3,0,2,3,1,1,0,52,2022_Mar_04_1141,listening_fmri,3.2.4,59.81269022046281,
,,,,,,,,,,,,,,,,,,,,,,,,,,,,,,,,,,,,,,,,,,,,,,,,,,,,,,,,,,,,,,,,,,,,,,,,,,,,,,,,,,,,,,,,,,,,,,,,,,,,,,,,,,,,,,,,,,,,,,,,,,,,,,,,,,476.48149618700063,482.4915306900002,520.7443553909998,None,,,,,,,,,,,,,,,,,,,,,526.7611852339996,None,526.7611852339996,None,,,,,,,,,,,,,,,,,,,,,,,,,,,,,,,,,,,,,,,,,,,,,,,,,,,,,,,,,,,,,,,
﻿instructions,count,audio,trials_14.thisRepN,trials_14.thisTrialN,trials_14.thisN,trials_14.thisIndex,trials_13.thisRepN,trials_13.thisTrialN,trials_13.thisN,trials_13.thisIndex,trials_3.thisRepN,trials_3.thisTrialN,trials_3.thisN,trials_3.thisIndex,Block1.thisRepN,Block1.thisTrialN,Block1.thisN,Block1.thisIndex,trials_5.thisRepN,trials_5.thisTrialN,trials_5.thisN,trials_5.thisIndex,trials.thisRepN,trials.thisTrialN,trials.thisN,trials.thisIndex,trials_2.thisRepN,trials_2.thisTrialN,trials_2.thisN,trials_2.thisIndex,trials_22.thisRepN,trials_22.thisTrialN,trials_22.thisN,trials_22.thisIndex,trials_16.thisRepN,trials_16.thisTrialN,trials_16.thisN,trials_16.thisIndex,trials_23.thisRepN,trials_23.thisTrialN,trials_23.thisN,trials_23.thisIndex,trials_7.thisRepN,trials_7.thisTrialN,trials_7.thisN,trials_7.thisIndex,story_list_block1,action_list_block1,key_resp_5.keys,key_resp_5.rt,key_resp_5.started,key_resp_5.stopped,text_87.started,text_87.stopped,text_88.started,text_88.stopped,key_resp_31.keys,key_resp_31.rt,key_resp_31.started,key_resp_31.stopped,text_89.started,text_89.stopped,image_27.started,image_27.stopped,text_97.started,text_97.stopped,image_24.started,image_24.stopped,key_resp_21.keys,key_resp_21.rt,key_resp_21.started,key_resp_21.stopped,text_78.started,text_78.stopped,text_96.started,text_96.stopped,image_28.started,image_28.stopped,key_resp_36.keys,key_resp_36.rt,key_resp_36.started,key_resp_36.stopped,text_94.started,text_94.stopped,text_95.started,text_95.stopped,text_90.started,text_90.stopped,key_resp_32.keys,key_resp_32.rt,key_resp_32.started,key_resp_32.stopped,text_91.started,text_91.stopped,key_resp_33.keys,key_resp_33.rt,key_resp_33.started,key_resp_33.stopped,text_92.started,text_92.stopped,key_resp_34.keys,key_resp_34.rt,key_resp_34.started,key_resp_34.stopped,text_93.started,text_93.stopped,key_resp_35.keys,key_resp_35.rt,key_resp_35.started,key_resp_35.stopped,text_98.started,text_98.stopped,text_99.started,text_99.stopped,key_resp_37.keys,key_resp_37.rt,key_resp_37.started,key_resp_37.stopped,textTrigger.started,textTrigger.stopped,getTrigger.keys,getTrigger.rt,getTrigger.started,getTrigger.stopped,triggerTime,text_76.started,text_76.stopped,text_77.started,text_77.stopped,startWait,endWait,image_23.started,image_23.stopped,text_38.started,text_38.stopped,key_resp_8.keys,key_resp_8.rt,key_resp_8.started,key_resp_8.stopped,text_39.started,text_39.stopped,text.started,text.stopped,text_50.started,text_50.stopped,key_resp_14.keys,key_resp_14.rt,key_resp_14.started,key_resp_14.stopped,storyImage_StartTime,storyImage_EndTime,clip_StartTime,clip_EndTime,text_6.started,text_6.stopped,text_52.started,text_52.stopped,text_33.started,text_33.stopped,key_resp_30.keys,key_resp_30.rt,key_resp_30.started,key_resp_30.stopped,text_79.started,text_79.stopped,text_4.started,text_4.stopped,image.started,image.stopped,text_5.started,text_5.stopped,key_resp_22.keys,key_resp_22.rt,key_resp_22.started,key_resp_22.stopped,text_37.started,text_37.stopped,key_resp_7.keys,key_resp_7.rt,key_resp_7.started,key_resp_7.stopped,text_80.started,text_80.stopped,question1_3.started,question1_3.stopped,question2_3.started,question2_3.stopped,question3_3.started,question3_3.stopped,question4_3.started,question4_3.stopped,question5_3.started,question5_3.stopped,question6_3.started,question6_3.stopped,image_16.started,image_16.stopped,text_49.started,text_49.stopped,key_resp_15.keys,key_resp_15.rt,key_resp_15.started,key_resp_15.stopped,text_81.started,text_81.stopped,participant,sA,sB,lA,lB,block_struct,play_stories,block,behavioral,random_seed,date,expName,psychopyVersion,frameRate,
Welcome to the story listening part of the experiment. ,,,0,0,0,0,0,0,0,0,,,,,,,,,,,,,,,,,,,,,,,,,,,,,,,,,,,,,[21 12 11 42 41 22 31 32],[3 4 2 1 3 1 2 4],1,1.816338067000288,10.70119025799977,None,10.70119025799977,None,10.70119025799977,None,,,,,,,,,,,,,,,,,,,,,,,,,,,,,,,,,,,,,,,,,,,,,,,,,,,,,,,,,,,,,,,,,,,,,,,,,,,,,,,,,,,,,,,,,,,,,,,,,,,,,,,,,,,,,,,,,,,,,,,,,,,,,,,,,,,,,,,,,,,,,,,,,,,,,,030422,1,3,0,2,3,1,1,0,52,2022_Mar_04_1141,listening_fmri,3.2.4,59.81269022046281,
"As a reminder, you will listen to 12 short stories.",,,0,0,0,0,0,1,1,1,,,,,,,,,,,,,,,,,,,,,,,,,,,,,,,,,,,,,,,1,0.9103142220001246,12.551231581999673,None,12.551231581999673,None,12.551231581999673,None,,,,,,,,,,,,,,,,,,,,,,,,,,,,,,,,,,,,,,,,,,,,,,,,,,,,,,,,,,,,,,,,,,,,,,,,,,,,,,,,,,,,,,,,,,,,,,,,,,,,,,,,,,,,,,,,,,,,,,,,,,,,,,,,,,,,,,,,,,,,,,,,,,,,,,030422,1,3,0,2,3,1,1,0,52,2022_Mar_04_1141,listening_fmri,3.2.4,59.81269022046281,
These stories will be divided into 2 blocks of 6 stories.,,,0,0,0,0,0,2,2,2,,,,,,,,,,,,,,,,,,,,,,,,,,,,,,,,,,,,,,,1,0.6401187760002358,13.485429072999978,None,13.485429072999978,None,13.485429072999978,None,,,,,,,,,,,,,,,,,,,,,,,,,,,,,,,,,,,,,,,,,,,,,,,,,,,,,,,,,,,,,,,,,,,,,,,,,,,,,,,,,,,,,,,,,,,,,,,,,,,,,,,,,,,,,,,,,,,,,,,,,,,,,,,,,,,,,,,,,,,,,,,,,,,,,,030422,1,3,0,2,3,1,1,0,52,2022_Mar_04_1141,listening_fmri,3.2.4,59.81269022046281,
"Before some of the stories, we will ask you to take on the perspective of a job. ",,,0,0,0,0,0,3,3,3,,,,,,,,,,,,,,,,,,,,,,,,,,,,,,,,,,,,,,,1,0.5488503960004891,14.152642776999528,None,14.152642776999528,None,14.152642776999528,None,,,,,,,,,,,,,,,,,,,,,,,,,,,,,,,,,,,,,,,,,,,,,,,,,,,,,,,,,,,,,,,,,,,,,,,,,,,,,,,,,,,,,,,,,,,,,,,,,,,,,,,,,,,,,,,,,,,,,,,,,,,,,,,,,,,,,,,,,,,,,,,,,,,,,,030422,1,3,0,2,3,1,1,0,52,2022_Mar_04_1141,listening_fmri,3.2.4,59.81269022046281,
Please “simulate” this job while you listen to the story that follows.,,,0,0,0,0,0,4,4,4,,,,,,,,,,,,,,,,,,,,,,,,,,,,,,,,,,,,,,,1,0.48972095299996,14.733776160000161,None,14.733776160000161,None,14.733776160000161,None,,,,,,,,,,,,,,,,,,,,,,,,,,,,,,,,,,,,,,,,,,,,,,,,,,,,,,,,,,,,,,,,,,,,,,,,,,,,,,,,,,,,,,,,,,,,,,,,,,,,,,,,,,,,,,,,,,,,,,,,,,,,,,,,,,,,,,,,,,,,,,,,,,,,,,030422,1,3,0,2,3,1,1,0,52,2022_Mar_04_1141,listening_fmri,3.2.4,59.81269022046281,
"Before you begin, we will go over how to use the button box:",,,0,0,0,0,0,5,5,5,,,,,,,,,,,,,,,,,,,,,,,,,,,,,,,,,,,,,,,1,0.40676969600008306,15.252709419999519,None,15.252709419999519,None,15.252709419999519,None,,,,,,,,,,,,,,,,,,,,,,,,,,,,,,,,,,,,,,,,,,,,,,,,,,,,,,,,,,,,,,,,,,,,,,,,,,,,,,,,,,,,,,,,,,,,,,,,,,,,,,,,,,,,,,,,,,,,,,,,,,,,,,,,,,,,,,,,,,,,,,,,,,,,,,030422,1,3,0,2,3,1,1,0,52,2022_Mar_04_1141,listening_fmri,3.2.4,59.81269022046281,
"In this experiment, you'll use the first three fingers on each hand to do the quizzes and advance through the experiment. ",,,0,0,0,0,0,6,6,6,,,,,,,,,,,,,,,,,,,,,,,,,,,,,,,,,,,,,,,1,0.5066534880006657,15.69989576900025,None,15.69989576900025,None,15.69989576900025,None,,,,,,,,,,,,,,,,,,,,,,,,,,,,,,,,,,,,,,,,,,,,,,,,,,,,,,,,,,,,,,,,,,,,,,,,,,,,,,,,,,,,,,,,,,,,,,,,,,,,,,,,,,,,,,,,,,,,,,,,,,,,,,,,,,,,,,,,,,,,,,,,,,,,,,030422,1,3,0,2,3,1,1,0,52,2022_Mar_04_1141,listening_fmri,3.2.4,59.81269022046281,
,,,0,0,0,0,,,,,,,,,,,,,,,,,,,,,,,,,,,,,,,,,,,,,,,,,,,,,,,,,,,8,1.795602191999933,16.235912123999697,None,16.235912123999697,None,16.235912123999697,None,16.235912123999697,None,18.050862479999523,None,7,0.42061187400031486,18.050862479999523,None,18.050862479999523,None,18.050862479999523,None,18.050862479999523,None,7,1.1880834909998157,18.50238789499963,None,18.50238789499963,None,18.50238789499963,None,19.71871854999972,None,1,1.5467725420003262,19.71871854999972,None,21.28588805199979,None,8,0.926581286000328,21.28588805199979,None,22.235954718999892,None,6,0.7705559409996567,22.235954718999892,None,23.035478808000335,None,2,1.177050579999559,23.035478808000335,None,24.23590941600014,None,24.23590941600014,None,1,0.752601008000056,24.23590941600014,None,,,,,,,,,,,,,,,,,,,,,,,,,,,,,,,,,,,,,,,,,,,,,,,,,,,,,,,,,,,,,,,,,,,,,,,,,,,,,,,,,,,,,,,,030422,1,3,0,2,3,1,1,0,52,2022_Mar_04_1141,listening_fmri,3.2.4,59.81269022046281,
,0,,,,,,,,,,0,0,0,0,0,0,0,0,,,,,,,,,,,,,,,,,,,,,,,,,,,,,,,,,,,,,,,,,,,,,,,,,,,,,,,,,,,,,,,,,,,,,,,,,,,,,,,,,,,,,,,,,,,,,,,,,,,,,25.018808357000125,None,equal,19.226743921999514,25.018808357000125,None,33.57777443699979,25.018808357000125,None,25.018808357000125,None,0.00039769600061845267,6.000245766000262,44.26885714800028,None,,,,,,,,,,,,,,,,,,,,,,,,,,,,,,,,,,,,,,,,,,,,,,,,,,,,,,,,,,,,,,,,,,,,,,,,,030422,1,3,0,2,3,1,1,0,52,2022_Mar_04_1141,listening_fmri,3.2.4,59.81269022046281,
,1,parcelated_audio/12/12_1.ogg,,,,,,,,,0,0,0,0,0,1,1,1,0,0,0,0,,,,,,,,,0,0,0,0,0,0,0,0,,,,,,,,,,,,,,,,,,,,,,,,,,,,,,,,,,,,,,,,,,,,,,,,,,,,,,,,,,,,,,,,,,,,,,,,,,,,,,,,,,,,,,,,,,,,,,,,50.269456568999885,None,1,1.9570893739992243,50.269456568999885,None,50.269456568999885,None,50.269456568999885,None,52.2523135270003,None,1,1.3093355629998769,52.2523135270003,None,9.322658278000745,12.332942175000426,12.339449128000524,22.218376490000082,,,,,,,,,,,,,,,,,,,,,,,,,,,,,,,,,,,,,,,,,,,,,,,,,,,,,030422,1,3,0,2,3,1,1,0,52,2022_Mar_04_1141,listening_fmri,3.2.4,59.81269022046281,
,1,parcelated_audio/12/12_2.ogg,,,,,,,,,0,0,0,0,0,1,1,1,0,0,0,0,,,,,,,,,0,0,0,0,0,1,1,1,,,,,,,,,,,,,,,,,,,,,,,,,,,,,,,,,,,,,,,,,,,,,,,,,,,,,,,,,,,,,,,,,,,,,,,,,,,,,,,,,,,,,,,,,,,,,,,,,,,,,,,,,,,,,,,,,,22.218656943000497,29.975351142999898,,,,,,,,,,,,,,,,,,,,,,,,,,,,,,,,,,,,,,,,,,,,,,,,,,,,,030422,1,3,0,2,3,1,1,0,52,2022_Mar_04_1141,listening_fmri,3.2.4,59.81269022046281,
,1,parcelated_audio/12/12_3.ogg,,,,,,,,,0,0,0,0,0,1,1,1,0,0,0,0,,,,,,,,,0,0,0,0,0,2,2,2,,,,,,,,,,,,,,,,,,,,,,,,,,,,,,,,,,,,,,,,,,,,,,,,,,,,,,,,,,,,,,,,,,,,,,,,,,,,,,,,,,,,,,,,,,,,,,,,,,,,,,,,,,,,,,,,,,29.9756223330005,37.327574962000654,,,,,,,,,,,,,,,,,,,,,,,,,,,,,,,,,,,,,,,,,,,,,,,,,,,,,030422,1,3,0,2,3,1,1,0,52,2022_Mar_04_1141,listening_fmri,3.2.4,59.81269022046281,
,1,parcelated_audio/12/12_4.ogg,,,,,,,,,0,0,0,0,0,1,1,1,0,0,0,0,,,,,,,,,0,0,0,0,0,3,3,3,,,,,,,,,,,,,,,,,,,,,,,,,,,,,,,,,,,,,,,,,,,,,,,,,,,,,,,,,,,,,,,,,,,,,,,,,,,,,,,,,,,,,,,,,,,,,,,,,,,,,,,,,,,,,,,,,,37.32787309300056,43.891871800000445,,,,,,,,,,,,,,,,,,,,,,,,,,,,,,,,,,,,,,,,,,,,,,,,,,,,,030422,1,3,0,2,3,1,1,0,52,2022_Mar_04_1141,listening_fmri,3.2.4,59.81269022046281,
,1,parcelated_audio/12/12_5.ogg,,,,,,,,,0,0,0,0,0,1,1,1,0,0,0,0,,,,,,,,,0,0,0,0,0,4,4,4,,,,,,,,,,,,,,,,,,,,,,,,,,,,,,,,,,,,,,,,,,,,,,,,,,,,,,,,,,,,,,,,,,,,,,,,,,,,,,,,,,,,,,,,,,,,,,,,,,,,,,,,,,,,,,,,,,43.89217267300046,51.83096283000032,,,,,,,,,,,,,,,,,,,,,,,,,,,,,,,,,,,,,,,,,,,,,,,,,,,,,030422,1,3,0,2,3,1,1,0,52,2022_Mar_04_1141,listening_fmri,3.2.4,59.81269022046281,
,1,parcelated_audio/12/12_6.ogg,,,,,,,,,0,0,0,0,0,1,1,1,0,0,0,0,,,,,,,,,0,0,0,0,0,5,5,5,,,,,,,,,,,,,,,,,,,,,,,,,,,,,,,,,,,,,,,,,,,,,,,,,,,,,,,,,,,,,,,,,,,,,,,,,,,,,,,,,,,,,,,,,,,,,,,,,,,,,,,,,,,,,,,,,,51.831238452000434,55.444321663000665,,,,,,,,,,,,,,,,,,,,,,,,,,,,,,,,,,,,,,,,,,,,,,,,,,,,,030422,1,3,0,2,3,1,1,0,52,2022_Mar_04_1141,listening_fmri,3.2.4,59.81269022046281,
,1,parcelated_audio/12/12_7.ogg,,,,,,,,,0,0,0,0,0,1,1,1,0,0,0,0,,,,,,,,,0,0,0,0,0,6,6,6,,,,,,,,,,,,,,,,,,,,,,,,,,,,,,,,,,,,,,,,,,,,,,,,,,,,,,,,,,,,,,,,,,,,,,,,,,,,,,,,,,,,,,,,,,,,,,,,,,,,,,,,,,,,,,,,,,55.444596059000105,65.77750670000023,,,,,,,,,,,,,,,,,,,,,,,,,,,,,,,,,,,,,,,,,,,,,,,,,,,,,030422,1,3,0,2,3,1,1,0,52,2022_Mar_04_1141,listening_fmri,3.2.4,59.81269022046281,
,1,parcelated_audio/12/12_8.ogg,,,,,,,,,0,0,0,0,0,1,1,1,0,0,0,0,,,,,,,,,0,0,0,0,0,7,7,7,,,,,,,,,,,,,,,,,,,,,,,,,,,,,,,,,,,,,,,,,,,,,,,,,,,,,,,,,,,,,,,,,,,,,,,,,,,,,,,,,,,,,,,,,,,,,,,,,,,,,,,,,,,,,,,,,,65.7778731620001,74.55071561400018,,,,,,,,,,,,,,,,,,,,,,,,,,,,,,,,,,,,,,,,,,,,,,,,,,,,,030422,1,3,0,2,3,1,1,0,52,2022_Mar_04_1141,listening_fmri,3.2.4,59.81269022046281,
,1,parcelated_audio/12/12_9.ogg,,,,,,,,,0,0,0,0,0,1,1,1,0,0,0,0,,,,,,,,,0,0,0,0,0,8,8,8,,,,,,,,,,,,,,,,,,,,,,,,,,,,,,,,,,,,,,,,,,,,,,,,,,,,,,,,,,,,,,,,,,,,,,,,,,,,,,,,,,,,,,,,,,,,,,,,,,,,,,,,,,,,,,,,,,74.55111610499989,78.41187162900042,,,,,,,,,,,,,,,,,,,,,,,,,,,,,,,,,,,,,,,,,,,,,,,,,,,,,030422,1,3,0,2,3,1,1,0,52,2022_Mar_04_1141,listening_fmri,3.2.4,59.81269022046281,
,1,parcelated_audio/12/12_10.ogg,,,,,,,,,0,0,0,0,0,1,1,1,0,0,0,0,,,,,,,,,0,0,0,0,0,9,9,9,,,,,,,,,,,,,,,,,,,,,,,,,,,,,,,,,,,,,,,,,,,,,,,,,,,,,,,,,,,,,,,,,,,,,,,,,,,,,,,,,,,,,,,,,,,,,,,,,,,,,,,,,,,,,,,,,,78.41212608400019,83.21362266899996,,,,,,,,,,,,,,,,,,,,,,,,,,,,,,,,,,,,,,,,,,,,,,,,,,,,,030422,1,3,0,2,3,1,1,0,52,2022_Mar_04_1141,listening_fmri,3.2.4,59.81269022046281,
,1,parcelated_audio/12/12_11.ogg,,,,,,,,,0,0,0,0,0,1,1,1,0,0,0,0,,,,,,,,,0,0,0,0,0,10,10,10,,,,,,,,,,,,,,,,,,,,,,,,,,,,,,,,,,,,,,,,,,,,,,,,,,,,,,,,,,,,,,,,,,,,,,,,,,,,,,,,,,,,,,,,,,,,,,,,,,,,,,,,,,,,,,,,,,83.21408385900031,86.09414578300039,,,,,,,,,,,,,,,,,,,,,,,,,,,,,,,,,,,,,,,,,,,,,,,,,,,,,030422,1,3,0,2,3,1,1,0,52,2022_Mar_04_1141,listening_fmri,3.2.4,59.81269022046281,
,1,parcelated_audio/12/12_12.ogg,,,,,,,,,0,0,0,0,0,1,1,1,0,0,0,0,,,,,,,,,0,0,0,0,0,11,11,11,,,,,,,,,,,,,,,,,,,,,,,,,,,,,,,,,,,,,,,,,,,,,,,,,,,,,,,,,,,,,,,,,,,,,,,,,,,,,,,,,,,,,,,,,,,,,,,,,,,,,,,,,,,,,,,,,,86.09441891799997,94.9608785750006,,,,,,,,,,,,,,,,,,,,,,,,,,,,,,,,,,,,,,,,,,,,,,,,,,,,,030422,1,3,0,2,3,1,1,0,52,2022_Mar_04_1141,listening_fmri,3.2.4,59.81269022046281,
,1,parcelated_audio/12/12_13.ogg,,,,,,,,,0,0,0,0,0,1,1,1,0,0,0,0,,,,,,,,,0,0,0,0,0,12,12,12,,,,,,,,,,,,,,,,,,,,,,,,,,,,,,,,,,,,,,,,,,,,,,,,,,,,,,,,,,,,,,,,,,,,,,,,,,,,,,,,,,,,,,,,,,,,,,,,,,,,,,,,,,,,,,,,,,94.96124695900016,100.21392350000042,,,,,,,,,,,,,,,,,,,,,,,,,,,,,,,,,,,,,,,,,,,,,,,,,,,,,030422,1,3,0,2,3,1,1,0,52,2022_Mar_04_1141,listening_fmri,3.2.4,59.81269022046281,
,1,parcelated_audio/12/12_14.ogg,,,,,,,,,0,0,0,0,0,1,1,1,0,0,0,0,,,,,,,,,0,0,0,0,0,13,13,13,,,,,,,,,,,,,,,,,,,,,,,,,,,,,,,,,,,,,,,,,,,,,,,,,,,,,,,,,,,,,,,,,,,,,,,,,,,,,,,,,,,,,,,,,,,,,,,,,,,,,,,,,,,,,,,,,,100.21435260399994,105.14877728600004,,,,,,,,,,,,,,,,,,,,,,,,,,,,,,,,,,,,,,,,,,,,,,,,,,,,,030422,1,3,0,2,3,1,1,0,52,2022_Mar_04_1141,listening_fmri,3.2.4,59.81269022046281,
,1,parcelated_audio/12/12_15.ogg,,,,,,,,,0,0,0,0,0,1,1,1,0,0,0,0,,,,,,,,,0,0,0,0,0,14,14,14,,,,,,,,,,,,,,,,,,,,,,,,,,,,,,,,,,,,,,,,,,,,,,,,,,,,,,,,,,,,,,,,,,,,,,,,,,,,,,,,,,,,,,,,,,,,,,,,,,,,,,,,,,,,,,,,,,105.1490271800003,111.15259703399988,,,,,,,,,,,,,,,,,,,,,,,,,,,,,,,,,,,,,,,,,,,,,,,,,,,,,030422,1,3,0,2,3,1,1,0,52,2022_Mar_04_1141,listening_fmri,3.2.4,59.81269022046281,
,1,parcelated_audio/12/12_16.ogg,,,,,,,,,0,0,0,0,0,1,1,1,0,0,0,0,,,,,,,,,0,0,0,0,0,15,15,15,,,,,,,,,,,,,,,,,,,,,,,,,,,,,,,,,,,,,,,,,,,,,,,,,,,,,,,,,,,,,,,,,,,,,,,,,,,,,,,,,,,,,,,,,,,,,,,,,,,,,,,,,,,,,,,,,,111.15287043100034,115.3579718280007,,,,,,,,,,,,,,,,,,,,,,,,,,,,,,,,,,,,,,,,,,,,,,,,,,,,,030422,1,3,0,2,3,1,1,0,52,2022_Mar_04_1141,listening_fmri,3.2.4,59.81269022046281,
,1,parcelated_audio/12/12_17.ogg,,,,,,,,,0,0,0,0,0,1,1,1,0,0,0,0,,,,,,,,,0,0,0,0,0,16,16,16,,,,,,,,,,,,,,,,,,,,,,,,,,,,,,,,,,,,,,,,,,,,,,,,,,,,,,,,,,,,,,,,,,,,,,,,,,,,,,,,,,,,,,,,,,,,,,,,,,,,,,,,,,,,,,,,,,115.35832508000021,120.34558462800032,,,,,,,,,,,,,,,,,,,,,,,,,,,,,,,,,,,,,,,,,,,,,,,,,,,,,030422,1,3,0,2,3,1,1,0,52,2022_Mar_04_1141,listening_fmri,3.2.4,59.81269022046281,
,1,parcelated_audio/12/12_18.ogg,,,,,,,,,0,0,0,0,0,1,1,1,0,0,0,0,,,,,,,,,0,0,0,0,0,17,17,17,,,,,,,,,,,,,,,,,,,,,,,,,,,,,,,,,,,,,,,,,,,,,,,,,,,,,,,,,,,,,,,,,,,,,,,,,,,,,,,,,,,,,,,,,,,,,,,,,,,,,,,,,,,,,,,,,,120.3459498480006,129.54558690000067,,,,,,,,,,,,,,,,,,,,,,,,,,,,,,,,,,,,,,,,,,,,,,,,,,,,,030422,1,3,0,2,3,1,1,0,52,2022_Mar_04_1141,listening_fmri,3.2.4,59.81269022046281,
,1,parcelated_audio/12/12_19.ogg,,,,,,,,,0,0,0,0,0,1,1,1,0,0,0,0,,,,,,,,,0,0,0,0,0,18,18,18,,,,,,,,,,,,,,,,,,,,,,,,,,,,,,,,,,,,,,,,,,,,,,,,,,,,,,,,,,,,,,,,,,,,,,,,,,,,,,,,,,,,,,,,,,,,,,,,,,,,,,,,,,,,,,,,,,129.54596639600004,139.56239328399988,,,,,,,,,,,,,,,,,,,,,,,,,,,,,,,,,,,,,,,,,,,,,,,,,,,,,030422,1,3,0,2,3,1,1,0,52,2022_Mar_04_1141,listening_fmri,3.2.4,59.81269022046281,
,1,parcelated_audio/12/12_20.ogg,,,,,,,,,0,0,0,0,0,1,1,1,0,0,0,0,,,,,,,,,0,0,0,0,0,19,19,19,,,,,,,,,,,,,,,,,,,,,,,,,,,,,,,,,,,,,,,,,,,,,,,,,,,,,,,,,,,,,,,,,,,,,,,,,,,,,,,,,,,,,,,,,,,,,,,,,,,,,,,,,,,,,,,,,,139.56326474600064,147.37601333900056,,,,,,,,,,,,,,,,,,,,,,,,,,,,,,,,,,,,,,,,,,,,,,,,,,,,,030422,1,3,0,2,3,1,1,0,52,2022_Mar_04_1141,listening_fmri,3.2.4,59.81269022046281,
,1,parcelated_audio/12/12_21.ogg,,,,,,,,,0,0,0,0,0,1,1,1,0,0,0,0,,,,,,,,,0,0,0,0,0,20,20,20,,,,,,,,,,,,,,,,,,,,,,,,,,,,,,,,,,,,,,,,,,,,,,,,,,,,,,,,,,,,,,,,,,,,,,,,,,,,,,,,,,,,,,,,,,,,,,,,,,,,,,,,,,,,,,,,,,147.376628729,152.87454496100054,,,,,,,,,,,,,,,,,,,,,,,,,,,,,,,,,,,,,,,,,,,,,,,,,,,,,030422,1,3,0,2,3,1,1,0,52,2022_Mar_04_1141,listening_fmri,3.2.4,59.81269022046281,
,1,parcelated_audio/12/12_22.ogg,,,,,,,,,0,0,0,0,0,1,1,1,0,0,0,0,,,,,,,,,0,0,0,0,0,21,21,21,,,,,,,,,,,,,,,,,,,,,,,,,,,,,,,,,,,,,,,,,,,,,,,,,,,,,,,,,,,,,,,,,,,,,,,,,,,,,,,,,,,,,,,,,,,,,,,,,,,,,,,,,,,,,,,,,,152.87481924800068,156.72234959700017,,,,,,,,,,,,,,,,,,,,,,,,,,,,,,,,,,,,,,,,,,,,,,,,,,,,,030422,1,3,0,2,3,1,1,0,52,2022_Mar_04_1141,listening_fmri,3.2.4,59.81269022046281,
,1,parcelated_audio/12/12_23.ogg,,,,,,,,,0,0,0,0,0,1,1,1,0,0,0,0,,,,,,,,,0,0,0,0,0,22,22,22,,,,,,,,,,,,,,,,,,,,,,,,,,,,,,,,,,,,,,,,,,,,,,,,,,,,,,,,,,,,,,,,,,,,,,,,,,,,,,,,,,,,,,,,,,,,,,,,,,,,,,,,,,,,,,,,,,156.72262979800053,163.57822676700016,,,,,,,,,,,,,,,,,,,,,,,,,,,,,,,,,,,,,,,,,,,,,,,,,,,,,030422,1,3,0,2,3,1,1,0,52,2022_Mar_04_1141,listening_fmri,3.2.4,59.81269022046281,
,1,parcelated_audio/12/12_24.ogg,,,,,,,,,0,0,0,0,0,1,1,1,0,0,0,0,,,,,,,,,0,0,0,0,0,23,23,23,,,,,,,,,,,,,,,,,,,,,,,,,,,,,,,,,,,,,,,,,,,,,,,,,,,,,,,,,,,,,,,,,,,,,,,,,,,,,,,,,,,,,,,,,,,,,,,,,,,,,,,,,,,,,,,,,,163.57850052100002,167.73273677500038,,,,,,,,,,,,,,,,,,,,,,,,,,,,,,,,,,,,,,,,,,,,,,,,,,,,,030422,1,3,0,2,3,1,1,0,52,2022_Mar_04_1141,listening_fmri,3.2.4,59.81269022046281,
,1,parcelated_audio/12/12_25.ogg,,,,,,,,,0,0,0,0,0,1,1,1,0,0,0,0,,,,,,,,,0,0,0,0,0,24,24,24,,,,,,,,,,,,,,,,,,,,,,,,,,,,,,,,,,,,,,,,,,,,,,,,,,,,,,,,,,,,,,,,,,,,,,,,,,,,,,,,,,,,,,,,,,,,,,,,,,,,,,,,,,,,,,,,,,167.7331458560002,178.17827375700017,,,,,,,,,,,,,,,,,,,,,,,,,,,,,,,,,,,,,,,,,,,,,,,,,,,,,030422,1,3,0,2,3,1,1,0,52,2022_Mar_04_1141,listening_fmri,3.2.4,59.81269022046281,
,1,parcelated_audio/12/12_26.ogg,,,,,,,,,0,0,0,0,0,1,1,1,0,0,0,0,,,,,,,,,0,0,0,0,0,25,25,25,,,,,,,,,,,,,,,,,,,,,,,,,,,,,,,,,,,,,,,,,,,,,,,,,,,,,,,,,,,,,,,,,,,,,,,,,,,,,,,,,,,,,,,,,,,,,,,,,,,,,,,,,,,,,,,,,,178.1785461770005,183.42308197300008,,,,,,,,,,,,,,,,,,,,,,,,,,,,,,,,,,,,,,,,,,,,,,,,,,,,,030422,1,3,0,2,3,1,1,0,52,2022_Mar_04_1141,listening_fmri,3.2.4,59.81269022046281,
,1,parcelated_audio/12/12_27.ogg,,,,,,,,,0,0,0,0,0,1,1,1,0,0,0,0,,,,,,,,,0,0,0,0,0,26,26,26,,,,,,,,,,,,,,,,,,,,,,,,,,,,,,,,,,,,,,,,,,,,,,,,,,,,,,,,,,,,,,,,,,,,,,,,,,,,,,,,,,,,,,,,,,,,,,,,,,,,,,,,,,,,,,,,,,183.42350178300057,191.09231117400032,,,,,,,,,,,,,,,,,,,,,,,,,,,,,,,,,,,,,,,,,,,,,,,,,,,,,030422,1,3,0,2,3,1,1,0,52,2022_Mar_04_1141,listening_fmri,3.2.4,59.81269022046281,
,1,parcelated_audio/12/12_28.ogg,,,,,,,,,0,0,0,0,0,1,1,1,0,0,0,0,,,,,,,,,0,0,0,0,0,27,27,27,,,,,,,,,,,,,,,,,,,,,,,,,,,,,,,,,,,,,,,,,,,,,,,,,,,,,,,,,,,,,,,,,,,,,,,,,,,,,,,,,,,,,,,,,,,,,,,,,,,,,,,,,,,,,,,,,,191.09272253000017,202.07738136800072,,,,,,,,,,,,,,,,,,,,,,,,,,,,,,,,,,,,,,,,,,,,,,,,,,,,,030422,1,3,0,2,3,1,1,0,52,2022_Mar_04_1141,listening_fmri,3.2.4,59.81269022046281,
,1,parcelated_audio/12/12_29.ogg,,,,,,,,,0,0,0,0,0,1,1,1,0,0,0,0,,,,,,,,,0,0,0,0,0,28,28,28,,,,,,,,,,,,,,,,,,,,,,,,,,,,,,,,,,,,,,,,,,,,,,,,,,,,,,,,,,,,,,,,,,,,,,,,,,,,,,,,,,,,,,,,,,,,,,,,,,,,,,,,,,,,,,,,,,202.0779051620002,208.16653871800008,,,,,,,,,,,,,,,,,,,,,,,,,,,,,,,,,,,,,,,,,,,,,,,,,,,,,030422,1,3,0,2,3,1,1,0,52,2022_Mar_04_1141,listening_fmri,3.2.4,59.81269022046281,
,1,parcelated_audio/12/12_30.ogg,,,,,,,,,0,0,0,0,0,1,1,1,0,0,0,0,,,,,,,,,0,0,0,0,0,29,29,29,,,,,,,,,,,,,,,,,,,,,,,,,,,,,,,,,,,,,,,,,,,,,,,,,,,,,,,,,,,,,,,,,,,,,,,,,,,,,,,,,,,,,,,,,,,,,,,,,,,,,,,,,,,,,,,,,,208.16692967400013,215.1236482000004,,,,,,,,,,,,,,,,,,,,,,,,,,,,,,,,,,,,,,,,,,,,,,,,,,,,,030422,1,3,0,2,3,1,1,0,52,2022_Mar_04_1141,listening_fmri,3.2.4,59.81269022046281,
,1,parcelated_audio/12/12_31.ogg,,,,,,,,,0,0,0,0,0,1,1,1,0,0,0,0,,,,,,,,,0,0,0,0,0,30,30,30,,,,,,,,,,,,,,,,,,,,,,,,,,,,,,,,,,,,,,,,,,,,,,,,,,,,,,,,,,,,,,,,,,,,,,,,,,,,,,,,,,,,,,,,,,,,,,,,,,,,,,,,,,,,,,,,,,215.124051625,222.27320984200014,,,,,,,,,,,,,,,,,,,,,,,,,,,,,,,,,,,,,,,,,,,,,,,,,,,,,030422,1,3,0,2,3,1,1,0,52,2022_Mar_04_1141,listening_fmri,3.2.4,59.81269022046281,
,1,,,,,,,,,,0,0,0,0,0,1,1,1,0,0,0,0,,,,,,,,,0,0,0,0,,,,,,,,,,,,,,,,,,,,,,,,,,,,,,,,,,,,,,,,,,,,,,,,,,,,,,,,,,,,,,,,,,,,,,,,,,,,,,,,,,,,,,,,,,,,,,,,,,,,,,,,,,,,,,,,,,,,,,,,,,,,,,,,,,,,,,,,,,,,,,,,,,,,,,,,,,,,,,,,,,,,,,,,,,,,030422,1,3,0,2,3,1,1,0,52,2022_Mar_04_1141,listening_fmri,3.2.4,59.81269022046281,
,1,,,,,,,,,,0,0,0,0,0,1,1,1,0,0,0,0,,,,,,,,,,,,,,,,,,,,,,,,,,,,,,,,,,,,,,,,,,,,,,,,,,,,,,,,,,,,,,,,,,,,,,,,,,,,,,,,,,,,,,,,,,,,,,,,,,,,,,,,,,,,222.27356758600035,228.261820533,266.5315578789996,None,,,,,,,,,,,,,,,,,,,,,272.5316319530002,None,272.5316319530002,None,,,,,,,,,,,,,,,,,,,,,,,,,,,,,,,,,,,,,,,,,,,,,,,,,030422,1,3,0,2,3,1,1,0,52,2022_Mar_04_1141,listening_fmri,3.2.4,59.81269022046281,
,1,,,,,,,,,,0,0,0,0,0,1,1,1,,,,,,,,,,,,,,,,,,,,,,,,,,,,,,,,,,,,,,,,,,,,,,,,,,,,,,,,,,,,,,,,,,,,,,,,,,,,,,,,,,,,,,,,,,,,,,,,,,,,,,,,,,,,,,,,,,,,,,,,,,,,,,,,,,,,,,,,,,,,,,,,,,,,,,,,,,,,,,,,,,,,,,,,,,,,,,,,,,,,,,,,,,,,030422,1,3,0,2,3,1,1,0,52,2022_Mar_04_1141,listening_fmri,3.2.4,59.81269022046281,
,2,,,,,,,,,,0,0,0,0,0,2,2,2,0,0,0,0,0,0,0,0,,,,,,,,,,,,,,,,,0,0,0,0,,,,,,,,,,,,,,,,,,,,,,,,,,,,,,,,,,,,,,,,,,,,,,,,,,,,,,,,,,,,,,,,,,,,,,,,,,,,,,,,,,,,,,,,273.54713621500014,None,1,0.8434091970002555,273.54713621500014,None,273.54713621500014,None,273.54713621500014,None,,,,,,,,,,,,,,,274.4201064279996,None,1,1.2595424390001426,274.4201064279996,None,274.4201064279996,None,275.7318046950004,None,275.7318046950004,None,275.7318046950004,None,1,1.2017985829997997,275.7318046950004,None,276.969461097,None,1,2.6542202310001812,276.969461097,None,276.969461097,None,279.71367674199973,None,279.71367674199973,None,279.71367674199973,None,279.71367674199973,None,279.71367674199973,None,279.71367674199973,None,279.71367674199973,None,,,,,,,,,030422,1,3,0,2,3,1,1,0,52,2022_Mar_04_1141,listening_fmri,3.2.4,59.81269022046281,
,2,,,,,,,,,,0,0,0,0,0,2,2,2,0,0,0,0,0,0,0,0,,,,,,,,,,,,,,,,,,,,,,,,,,,,,,,,,,,,,,,,,,,,,,,,,,,,,,,,,,,,,,,,,,,,,,,,,,,,,,,,,,,,,,,,,,,,,,,,,,,,,,,,,,,,,,,,,,,,,,,,,,,,,,,,,,,,,,,,,,,,299.781315491,None,299.781315491,None,299.781315491,None,1,1.19722052599991,299.781315491,None,,,,,,,,,,,,,,,,,,,,,,,297.931250269,None,1,1.8152466430001368,297.931250269,None,297.931250269,None,030422,1,3,0,2,3,1,1,0,52,2022_Mar_04_1141,listening_fmri,3.2.4,59.81269022046281,
,2,parcelated_audio/11/11_1.ogg,,,,,,,,,0,0,0,0,0,2,2,2,0,0,0,0,,,,,,,,,0,0,0,0,0,0,0,0,,,,,,,,,,,,,,,,,,,,,,,,,,,,,,,,,,,,,,,,,,,,,,,,,,,,,,,,,,,,,,,,,,,,,,,,,,,,,,,,,,,,,,,,,,,,,,,,,,,,,,,,,,301.0034484030002,None,1,2.185221235999961,301.0034484030002,None,258.9584529650001,261.9668608790007,261.9766882849999,274.0560551540002,,,,,,,,,,,,,,,,,,,,,,,,,,,,,,,,,,,,,,,,,,,,,,,,,,,,,030422,1,3,0,2,3,1,1,0,52,2022_Mar_04_1141,listening_fmri,3.2.4,59.81269022046281,
,2,parcelated_audio/11/11_2.ogg,,,,,,,,,0,0,0,0,0,2,2,2,0,0,0,0,,,,,,,,,0,0,0,0,0,1,1,1,,,,,,,,,,,,,,,,,,,,,,,,,,,,,,,,,,,,,,,,,,,,,,,,,,,,,,,,,,,,,,,,,,,,,,,,,,,,,,,,,,,,,,,,,,,,,,,,,,,,,,,,,,,,,,,,,,274.0565654530001,278.54788374300006,,,,,,,,,,,,,,,,,,,,,,,,,,,,,,,,,,,,,,,,,,,,,,,,,,,,,030422,1,3,0,2,3,1,1,0,52,2022_Mar_04_1141,listening_fmri,3.2.4,59.81269022046281,
,2,parcelated_audio/11/11_3.ogg,,,,,,,,,0,0,0,0,0,2,2,2,0,0,0,0,,,,,,,,,0,0,0,0,0,2,2,2,,,,,,,,,,,,,,,,,,,,,,,,,,,,,,,,,,,,,,,,,,,,,,,,,,,,,,,,,,,,,,,,,,,,,,,,,,,,,,,,,,,,,,,,,,,,,,,,,,,,,,,,,,,,,,,,,,278.54814330499994,283.5383448700004,,,,,,,,,,,,,,,,,,,,,,,,,,,,,,,,,,,,,,,,,,,,,,,,,,,,,030422,1,3,0,2,3,1,1,0,52,2022_Mar_04_1141,listening_fmri,3.2.4,59.81269022046281,
,2,parcelated_audio/11/11_4.ogg,,,,,,,,,0,0,0,0,0,2,2,2,0,0,0,0,,,,,,,,,0,0,0,0,0,3,3,3,,,,,,,,,,,,,,,,,,,,,,,,,,,,,,,,,,,,,,,,,,,,,,,,,,,,,,,,,,,,,,,,,,,,,,,,,,,,,,,,,,,,,,,,,,,,,,,,,,,,,,,,,,,,,,,,,,283.5389006129999,292.6395142470001,,,,,,,,,,,,,,,,,,,,,,,,,,,,,,,,,,,,,,,,,,,,,,,,,,,,,030422,1,3,0,2,3,1,1,0,52,2022_Mar_04_1141,listening_fmri,3.2.4,59.81269022046281,
,2,parcelated_audio/11/11_5.ogg,,,,,,,,,0,0,0,0,0,2,2,2,0,0,0,0,,,,,,,,,0,0,0,0,0,4,4,4,,,,,,,,,,,,,,,,,,,,,,,,,,,,,,,,,,,,,,,,,,,,,,,,,,,,,,,,,,,,,,,,,,,,,,,,,,,,,,,,,,,,,,,,,,,,,,,,,,,,,,,,,,,,,,,,,,292.63978997400045,298.4101221360006,,,,,,,,,,,,,,,,,,,,,,,,,,,,,,,,,,,,,,,,,,,,,,,,,,,,,030422,1,3,0,2,3,1,1,0,52,2022_Mar_04_1141,listening_fmri,3.2.4,59.81269022046281,
,2,parcelated_audio/11/11_6.ogg,,,,,,,,,0,0,0,0,0,2,2,2,0,0,0,0,,,,,,,,,0,0,0,0,0,5,5,5,,,,,,,,,,,,,,,,,,,,,,,,,,,,,,,,,,,,,,,,,,,,,,,,,,,,,,,,,,,,,,,,,,,,,,,,,,,,,,,,,,,,,,,,,,,,,,,,,,,,,,,,,,,,,,,,,,298.4107793510002,302.9945868680006,,,,,,,,,,,,,,,,,,,,,,,,,,,,,,,,,,,,,,,,,,,,,,,,,,,,,030422,1,3,0,2,3,1,1,0,52,2022_Mar_04_1141,listening_fmri,3.2.4,59.81269022046281,
,2,parcelated_audio/11/11_7.ogg,,,,,,,,,0,0,0,0,0,2,2,2,0,0,0,0,,,,,,,,,0,0,0,0,0,6,6,6,,,,,,,,,,,,,,,,,,,,,,,,,,,,,,,,,,,,,,,,,,,,,,,,,,,,,,,,,,,,,,,,,,,,,,,,,,,,,,,,,,,,,,,,,,,,,,,,,,,,,,,,,,,,,,,,,,302.9949214140006,309.54010699399987,,,,,,,,,,,,,,,,,,,,,,,,,,,,,,,,,,,,,,,,,,,,,,,,,,,,,030422,1,3,0,2,3,1,1,0,52,2022_Mar_04_1141,listening_fmri,3.2.4,59.81269022046281,
,2,parcelated_audio/11/11_8.ogg,,,,,,,,,0,0,0,0,0,2,2,2,0,0,0,0,,,,,,,,,0,0,0,0,0,7,7,7,,,,,,,,,,,,,,,,,,,,,,,,,,,,,,,,,,,,,,,,,,,,,,,,,,,,,,,,,,,,,,,,,,,,,,,,,,,,,,,,,,,,,,,,,,,,,,,,,,,,,,,,,,,,,,,,,,309.54051427600007,315.3162429670001,,,,,,,,,,,,,,,,,,,,,,,,,,,,,,,,,,,,,,,,,,,,,,,,,,,,,030422,1,3,0,2,3,1,1,0,52,2022_Mar_04_1141,listening_fmri,3.2.4,59.81269022046281,
,2,parcelated_audio/11/11_9.ogg,,,,,,,,,0,0,0,0,0,2,2,2,0,0,0,0,,,,,,,,,0,0,0,0,0,8,8,8,,,,,,,,,,,,,,,,,,,,,,,,,,,,,,,,,,,,,,,,,,,,,,,,,,,,,,,,,,,,,,,,,,,,,,,,,,,,,,,,,,,,,,,,,,,,,,,,,,,,,,,,,,,,,,,,,,315.3166164100003,319.62804189100007,,,,,,,,,,,,,,,,,,,,,,,,,,,,,,,,,,,,,,,,,,,,,,,,,,,,,030422,1,3,0,2,3,1,1,0,52,2022_Mar_04_1141,listening_fmri,3.2.4,59.81269022046281,
