count,audio,trials_14.thisRepN,trials_14.thisTrialN,trials_14.thisN,trials_14.thisIndex,trials_3.thisRepN,trials_3.thisTrialN,trials_3.thisN,trials_3.thisIndex,trials_4.thisRepN,trials_4.thisTrialN,trials_4.thisN,trials_4.thisIndex,trials_6.thisRepN,trials_6.thisTrialN,trials_6.thisN,trials_6.thisIndex,trials_9.thisRepN,trials_9.thisTrialN,trials_9.thisN,trials_9.thisIndex,trials_10.thisRepN,trials_10.thisTrialN,trials_10.thisN,trials_10.thisIndex,trials_11.thisRepN,trials_11.thisTrialN,trials_11.thisN,trials_11.thisIndex,trials_12.thisRepN,trials_12.thisTrialN,trials_12.thisN,trials_12.thisIndex,trials_25.thisRepN,trials_25.thisTrialN,trials_25.thisN,trials_25.thisIndex,trials_15.thisRepN,trials_15.thisTrialN,trials_15.thisN,trials_15.thisIndex,trials_26.thisRepN,trials_26.thisTrialN,trials_26.thisN,trials_26.thisIndex,story_list_block2,action_list_block2,textTrigger.started,textTrigger.stopped,getTrigger.keys,getTrigger.rt,getTrigger.started,getTrigger.stopped,triggerTime,text_76.started,text_76.stopped,text_77.started,text_77.stopped,startWait,endWait,image_23.started,image_23.stopped,text_55.started,text_55.stopped,text_56.started,text_56.stopped,key_resp_2.keys,key_resp_2.rt,key_resp_2.started,key_resp_2.stopped,text_82.started,text_82.stopped,text_57.started,text_57.stopped,key_resp_17.keys,key_resp_17.rt,key_resp_17.started,key_resp_17.stopped,text_83.started,text_83.stopped,text_60.started,text_60.stopped,image_2.started,image_2.stopped,text_58.started,text_58.stopped,key_resp_23.keys,key_resp_23.rt,key_resp_23.started,key_resp_23.stopped,text_62.started,text_62.stopped,key_resp_18.keys,key_resp_18.rt,key_resp_18.started,key_resp_18.stopped,text_84.started,text_84.stopped,question1_2.started,question1_2.stopped,question2_2.started,question2_2.stopped,question3_2.started,question3_2.stopped,question4_2.started,question4_2.stopped,question5_2.started,question5_2.stopped,question6_2.started,question6_2.stopped,image_15.started,image_15.stopped,key_resp.keys,key_resp.started,key_resp.stopped,text_59.started,text_59.stopped,key_resp_19.keys,key_resp_19.rt,key_resp_19.started,key_resp_19.stopped,text_85.started,text_85.stopped,text_61.started,text_61.stopped,image_17.started,image_17.stopped,text_63.started,text_63.stopped,key_resp_24.keys,key_resp_24.rt,key_resp_24.started,key_resp_24.stopped,text_64.started,text_64.stopped,key_resp_20.keys,key_resp_20.rt,key_resp_20.started,key_resp_20.stopped,storyImage_StartTime,storyImage_EndTime,clip_StartTime,clip_EndTime,text_67.started,text_67.stopped,text_68.started,text_68.stopped,participant,sA,sB,lA,lB,block_struct,play_stories,block,behavioral,random_seed,date,expName,psychopyVersion,frameRate,
0,,,,,,,,,,0,0,0,0,0,0,0,0,0,0,0,0,0,0,0,0,0,0,0,0,,,,,,,,,,,,,,,,,[23 34 21 32 12 41 43 14],[1 1 3 3 2 2 4 4],13.626284842001041,None,equal,17.19480041299903,13.626284842001041,None,17.21330375999969,13.626284842001041,None,13.626284842001041,None,0.00033676000020932406,5.999537917003181,30.843592489000002,None,36.85637986200163,None,36.85637986200163,None,1,1.3948639529990032,36.85637986200163,None,36.85637986200163,None,38.27739148399996,None,1,0.9949003709989483,38.27739148399996,None,38.27739148399996,None,39.3100806500006,None,39.3100806500006,None,39.3100806500006,None,1,1.2520985139999539,39.3100806500006,None,40.594018693002,None,1,1.3562241550025647,40.594018693002,None,40.594018693002,None,42.057044573000894,None,42.057044573000894,None,42.057044573000894,None,42.057044573000894,None,42.057044573000894,None,42.057044573000894,None,42.057044573000894,None,None,42.057044573000894,None,,,,,,,,,,,,,,,,,,,,,,,,,,,,,,,,,111721,1,2,0,1,1,1,2,0,38,2021_Nov_17_1138,listening_fmri,3.2.4,60.225908102803444,
0,,,,,,,,,,0,0,0,0,0,0,0,0,0,0,0,0,0,0,0,0,,,,,,,,,,,,,,,,,,,,,,,,,,,,,,,,,,,,,,,,,,,,,,,,,,,,,,,,,,,,,,,,,,,,,,,,,,,,,,,,,,,,,,,,,,,69.00616087199887,None,6,1.6059552219994657,69.00616087199887,None,69.00616087199887,None,70.65594184600195,None,70.65594184600195,None,70.65594184600195,None,6,0.8371892110008048,70.65594184600195,None,,,,,,,,,,,,,,,111721,1,2,0,1,1,1,2,0,38,2021_Nov_17_1138,listening_fmri,3.2.4,60.225908102803444,
0,parcelated_audio/23/23_1.ogg,,,,,,,,,0,0,0,0,0,0,0,0,0,0,0,0,,,,,,,,,,,,,0,0,0,0,0,0,0,0,,,,,,,,,,,,,,,,,,,,,,,,,,,,,,,,,,,,,,,,,,,,,,,,,,,,,,,,,,,,,,,,,,,,,,,,,,,,,,,,,,,,,,,,,,,,,71.51096139400033,None,6,1.380296344999806,71.51096139400033,None,42.09492434300046,45.09948825200263,45.104821879001975,55.51137218200165,,,,,111721,1,2,0,1,1,1,2,0,38,2021_Nov_17_1138,listening_fmri,3.2.4,60.225908102803444,
0,parcelated_audio/23/23_2.ogg,,,,,,,,,0,0,0,0,0,0,0,0,0,0,0,0,,,,,,,,,,,,,0,0,0,0,0,1,1,1,,,,,,,,,,,,,,,,,,,,,,,,,,,,,,,,,,,,,,,,,,,,,,,,,,,,,,,,,,,,,,,,,,,,,,,,,,,,,,,,,,,,,,,,,,,,,,,,,,,,,55.51178263800102,62.38638967100269,,,,,111721,1,2,0,1,1,1,2,0,38,2021_Nov_17_1138,listening_fmri,3.2.4,60.225908102803444,
0,parcelated_audio/23/23_3.ogg,,,,,,,,,0,0,0,0,0,0,0,0,0,0,0,0,,,,,,,,,,,,,0,0,0,0,0,2,2,2,,,,,,,,,,,,,,,,,,,,,,,,,,,,,,,,,,,,,,,,,,,,,,,,,,,,,,,,,,,,,,,,,,,,,,,,,,,,,,,,,,,,,,,,,,,,,,,,,,,,,62.386732126000425,68.15550736300065,,,,,111721,1,2,0,1,1,1,2,0,38,2021_Nov_17_1138,listening_fmri,3.2.4,60.225908102803444,
0,parcelated_audio/23/23_4.ogg,,,,,,,,,0,0,0,0,0,0,0,0,0,0,0,0,,,,,,,,,,,,,0,0,0,0,0,3,3,3,,,,,,,,,,,,,,,,,,,,,,,,,,,,,,,,,,,,,,,,,,,,,,,,,,,,,,,,,,,,,,,,,,,,,,,,,,,,,,,,,,,,,,,,,,,,,,,,,,,,,68.15585107800143,79.42756241000097,,,,,111721,1,2,0,1,1,1,2,0,38,2021_Nov_17_1138,listening_fmri,3.2.4,60.225908102803444,
0,parcelated_audio/23/23_5.ogg,,,,,,,,,0,0,0,0,0,0,0,0,0,0,0,0,,,,,,,,,,,,,0,0,0,0,0,4,4,4,,,,,,,,,,,,,,,,,,,,,,,,,,,,,,,,,,,,,,,,,,,,,,,,,,,,,,,,,,,,,,,,,,,,,,,,,,,,,,,,,,,,,,,,,,,,,,,,,,,,,79.42797201800204,85.63551510900288,,,,,111721,1,2,0,1,1,1,2,0,38,2021_Nov_17_1138,listening_fmri,3.2.4,60.225908102803444,
0,parcelated_audio/23/23_6.ogg,,,,,,,,,0,0,0,0,0,0,0,0,0,0,0,0,,,,,,,,,,,,,0,0,0,0,0,5,5,5,,,,,,,,,,,,,,,,,,,,,,,,,,,,,,,,,,,,,,,,,,,,,,,,,,,,,,,,,,,,,,,,,,,,,,,,,,,,,,,,,,,,,,,,,,,,,,,,,,,,,85.63586442700034,93.04643482900065,,,,,111721,1,2,0,1,1,1,2,0,38,2021_Nov_17_1138,listening_fmri,3.2.4,60.225908102803444,
0,parcelated_audio/23/23_7.ogg,,,,,,,,,0,0,0,0,0,0,0,0,0,0,0,0,,,,,,,,,,,,,0,0,0,0,0,6,6,6,,,,,,,,,,,,,,,,,,,,,,,,,,,,,,,,,,,,,,,,,,,,,,,,,,,,,,,,,,,,,,,,,,,,,,,,,,,,,,,,,,,,,,,,,,,,,,,,,,,,,93.04723374800233,99.80553359600162,,,,,111721,1,2,0,1,1,1,2,0,38,2021_Nov_17_1138,listening_fmri,3.2.4,60.225908102803444,
0,parcelated_audio/23/23_8.ogg,,,,,,,,,0,0,0,0,0,0,0,0,0,0,0,0,,,,,,,,,,,,,0,0,0,0,0,7,7,7,,,,,,,,,,,,,,,,,,,,,,,,,,,,,,,,,,,,,,,,,,,,,,,,,,,,,,,,,,,,,,,,,,,,,,,,,,,,,,,,,,,,,,,,,,,,,,,,,,,,,99.80580589200326,105.21969135000109,,,,,111721,1,2,0,1,1,1,2,0,38,2021_Nov_17_1138,listening_fmri,3.2.4,60.225908102803444,
0,parcelated_audio/23/23_9.ogg,,,,,,,,,0,0,0,0,0,0,0,0,0,0,0,0,,,,,,,,,,,,,0,0,0,0,0,8,8,8,,,,,,,,,,,,,,,,,,,,,,,,,,,,,,,,,,,,,,,,,,,,,,,,,,,,,,,,,,,,,,,,,,,,,,,,,,,,,,,,,,,,,,,,,,,,,,,,,,,,,105.22004680500322,109.61320242900183,,,,,111721,1,2,0,1,1,1,2,0,38,2021_Nov_17_1138,listening_fmri,3.2.4,60.225908102803444,
0,parcelated_audio/23/23_10.ogg,,,,,,,,,0,0,0,0,0,0,0,0,0,0,0,0,,,,,,,,,,,,,0,0,0,0,0,9,9,9,,,,,,,,,,,,,,,,,,,,,,,,,,,,,,,,,,,,,,,,,,,,,,,,,,,,,,,,,,,,,,,,,,,,,,,,,,,,,,,,,,,,,,,,,,,,,,,,,,,,,109.613554794003,113.56761575700148,,,,,111721,1,2,0,1,1,1,2,0,38,2021_Nov_17_1138,listening_fmri,3.2.4,60.225908102803444,
0,parcelated_audio/23/23_11.ogg,,,,,,,,,0,0,0,0,0,0,0,0,0,0,0,0,,,,,,,,,,,,,0,0,0,0,0,10,10,10,,,,,,,,,,,,,,,,,,,,,,,,,,,,,,,,,,,,,,,,,,,,,,,,,,,,,,,,,,,,,,,,,,,,,,,,,,,,,,,,,,,,,,,,,,,,,,,,,,,,,113.56814942300116,121.69849227300074,,,,,111721,1,2,0,1,1,1,2,0,38,2021_Nov_17_1138,listening_fmri,3.2.4,60.225908102803444,
0,parcelated_audio/23/23_12.ogg,,,,,,,,,0,0,0,0,0,0,0,0,0,0,0,0,,,,,,,,,,,,,0,0,0,0,0,11,11,11,,,,,,,,,,,,,,,,,,,,,,,,,,,,,,,,,,,,,,,,,,,,,,,,,,,,,,,,,,,,,,,,,,,,,,,,,,,,,,,,,,,,,,,,,,,,,,,,,,,,,121.69890427100108,128.85448186800204,,,,,111721,1,2,0,1,1,1,2,0,38,2021_Nov_17_1138,listening_fmri,3.2.4,60.225908102803444,
0,parcelated_audio/23/23_13.ogg,,,,,,,,,0,0,0,0,0,0,0,0,0,0,0,0,,,,,,,,,,,,,0,0,0,0,0,12,12,12,,,,,,,,,,,,,,,,,,,,,,,,,,,,,,,,,,,,,,,,,,,,,,,,,,,,,,,,,,,,,,,,,,,,,,,,,,,,,,,,,,,,,,,,,,,,,,,,,,,,,128.85484119800094,135.64186824100034,,,,,111721,1,2,0,1,1,1,2,0,38,2021_Nov_17_1138,listening_fmri,3.2.4,60.225908102803444,
0,parcelated_audio/23/23_14.ogg,,,,,,,,,0,0,0,0,0,0,0,0,0,0,0,0,,,,,,,,,,,,,0,0,0,0,0,13,13,13,,,,,,,,,,,,,,,,,,,,,,,,,,,,,,,,,,,,,,,,,,,,,,,,,,,,,,,,,,,,,,,,,,,,,,,,,,,,,,,,,,,,,,,,,,,,,,,,,,,,,135.64240294900083,140.00205449799978,,,,,111721,1,2,0,1,1,1,2,0,38,2021_Nov_17_1138,listening_fmri,3.2.4,60.225908102803444,
0,parcelated_audio/23/23_15.ogg,,,,,,,,,0,0,0,0,0,0,0,0,0,0,0,0,,,,,,,,,,,,,0,0,0,0,0,14,14,14,,,,,,,,,,,,,,,,,,,,,,,,,,,,,,,,,,,,,,,,,,,,,,,,,,,,,,,,,,,,,,,,,,,,,,,,,,,,,,,,,,,,,,,,,,,,,,,,,,,,,140.0025533600019,144.4235349160008,,,,,111721,1,2,0,1,1,1,2,0,38,2021_Nov_17_1138,listening_fmri,3.2.4,60.225908102803444,
0,parcelated_audio/23/23_16.ogg,,,,,,,,,0,0,0,0,0,0,0,0,0,0,0,0,,,,,,,,,,,,,0,0,0,0,0,15,15,15,,,,,,,,,,,,,,,,,,,,,,,,,,,,,,,,,,,,,,,,,,,,,,,,,,,,,,,,,,,,,,,,,,,,,,,,,,,,,,,,,,,,,,,,,,,,,,,,,,,,,144.42389228899992,150.99640936100332,,,,,111721,1,2,0,1,1,1,2,0,38,2021_Nov_17_1138,listening_fmri,3.2.4,60.225908102803444,
0,parcelated_audio/23/23_17.ogg,,,,,,,,,0,0,0,0,0,0,0,0,0,0,0,0,,,,,,,,,,,,,0,0,0,0,0,16,16,16,,,,,,,,,,,,,,,,,,,,,,,,,,,,,,,,,,,,,,,,,,,,,,,,,,,,,,,,,,,,,,,,,,,,,,,,,,,,,,,,,,,,,,,,,,,,,,,,,,,,,150.99676413900306,157.75244850000308,,,,,111721,1,2,0,1,1,1,2,0,38,2021_Nov_17_1138,listening_fmri,3.2.4,60.225908102803444,
0,parcelated_audio/23/23_18.ogg,,,,,,,,,0,0,0,0,0,0,0,0,0,0,0,0,,,,,,,,,,,,,0,0,0,0,0,17,17,17,,,,,,,,,,,,,,,,,,,,,,,,,,,,,,,,,,,,,,,,,,,,,,,,,,,,,,,,,,,,,,,,,,,,,,,,,,,,,,,,,,,,,,,,,,,,,,,,,,,,,157.75281738000194,169.73326142400037,,,,,111721,1,2,0,1,1,1,2,0,38,2021_Nov_17_1138,listening_fmri,3.2.4,60.225908102803444,
0,parcelated_audio/23/23_19.ogg,,,,,,,,,0,0,0,0,0,0,0,0,0,0,0,0,,,,,,,,,,,,,0,0,0,0,0,18,18,18,,,,,,,,,,,,,,,,,,,,,,,,,,,,,,,,,,,,,,,,,,,,,,,,,,,,,,,,,,,,,,,,,,,,,,,,,,,,,,,,,,,,,,,,,,,,,,,,,,,,,169.73361044400008,175.49773683400053,,,,,111721,1,2,0,1,1,1,2,0,38,2021_Nov_17_1138,listening_fmri,3.2.4,60.225908102803444,
0,parcelated_audio/23/23_20.ogg,,,,,,,,,0,0,0,0,0,0,0,0,0,0,0,0,,,,,,,,,,,,,0,0,0,0,0,19,19,19,,,,,,,,,,,,,,,,,,,,,,,,,,,,,,,,,,,,,,,,,,,,,,,,,,,,,,,,,,,,,,,,,,,,,,,,,,,,,,,,,,,,,,,,,,,,,,,,,,,,,175.4982115180028,178.46642474000328,,,,,111721,1,2,0,1,1,1,2,0,38,2021_Nov_17_1138,listening_fmri,3.2.4,60.225908102803444,
0,parcelated_audio/23/23_21.ogg,,,,,,,,,0,0,0,0,0,0,0,0,0,0,0,0,,,,,,,,,,,,,0,0,0,0,0,20,20,20,,,,,,,,,,,,,,,,,,,,,,,,,,,,,,,,,,,,,,,,,,,,,,,,,,,,,,,,,,,,,,,,,,,,,,,,,,,,,,,,,,,,,,,,,,,,,,,,,,,,,178.4667989380032,186.13175724500252,,,,,111721,1,2,0,1,1,1,2,0,38,2021_Nov_17_1138,listening_fmri,3.2.4,60.225908102803444,
0,parcelated_audio/23/23_22.ogg,,,,,,,,,0,0,0,0,0,0,0,0,0,0,0,0,,,,,,,,,,,,,0,0,0,0,0,21,21,21,,,,,,,,,,,,,,,,,,,,,,,,,,,,,,,,,,,,,,,,,,,,,,,,,,,,,,,,,,,,,,,,,,,,,,,,,,,,,,,,,,,,,,,,,,,,,,,,,,,,,186.13210745700053,188.78751604500212,,,,,111721,1,2,0,1,1,1,2,0,38,2021_Nov_17_1138,listening_fmri,3.2.4,60.225908102803444,
0,parcelated_audio/23/23_23.ogg,,,,,,,,,0,0,0,0,0,0,0,0,0,0,0,0,,,,,,,,,,,,,0,0,0,0,0,22,22,22,,,,,,,,,,,,,,,,,,,,,,,,,,,,,,,,,,,,,,,,,,,,,,,,,,,,,,,,,,,,,,,,,,,,,,,,,,,,,,,,,,,,,,,,,,,,,,,,,,,,,188.7880291649999,192.94355535900104,,,,,111721,1,2,0,1,1,1,2,0,38,2021_Nov_17_1138,listening_fmri,3.2.4,60.225908102803444,
0,parcelated_audio/23/23_24.ogg,,,,,,,,,0,0,0,0,0,0,0,0,0,0,0,0,,,,,,,,,,,,,0,0,0,0,0,23,23,23,,,,,,,,,,,,,,,,,,,,,,,,,,,,,,,,,,,,,,,,,,,,,,,,,,,,,,,,,,,,,,,,,,,,,,,,,,,,,,,,,,,,,,,,,,,,,,,,,,,,,192.94390135700087,196.39156426600312,,,,,111721,1,2,0,1,1,1,2,0,38,2021_Nov_17_1138,listening_fmri,3.2.4,60.225908102803444,
0,parcelated_audio/23/23_25.ogg,,,,,,,,,0,0,0,0,0,0,0,0,0,0,0,0,,,,,,,,,,,,,0,0,0,0,0,24,24,24,,,,,,,,,,,,,,,,,,,,,,,,,,,,,,,,,,,,,,,,,,,,,,,,,,,,,,,,,,,,,,,,,,,,,,,,,,,,,,,,,,,,,,,,,,,,,,,,,,,,,196.39215409900135,200.53760425400105,,,,,111721,1,2,0,1,1,1,2,0,38,2021_Nov_17_1138,listening_fmri,3.2.4,60.225908102803444,
0,parcelated_audio/23/23_26.ogg,,,,,,,,,0,0,0,0,0,0,0,0,0,0,0,0,,,,,,,,,,,,,0,0,0,0,0,25,25,25,,,,,,,,,,,,,,,,,,,,,,,,,,,,,,,,,,,,,,,,,,,,,,,,,,,,,,,,,,,,,,,,,,,,,,,,,,,,,,,,,,,,,,,,,,,,,,,,,,,,,200.53795710800114,206.76604781600327,,,,,111721,1,2,0,1,1,1,2,0,38,2021_Nov_17_1138,listening_fmri,3.2.4,60.225908102803444,
0,parcelated_audio/23/23_27.ogg,,,,,,,,,0,0,0,0,0,0,0,0,0,0,0,0,,,,,,,,,,,,,0,0,0,0,0,26,26,26,,,,,,,,,,,,,,,,,,,,,,,,,,,,,,,,,,,,,,,,,,,,,,,,,,,,,,,,,,,,,,,,,,,,,,,,,,,,,,,,,,,,,,,,,,,,,,,,,,,,,206.76651547400252,212.04372737400263,,,,,111721,1,2,0,1,1,1,2,0,38,2021_Nov_17_1138,listening_fmri,3.2.4,60.225908102803444,
0,parcelated_audio/23/23_28.ogg,,,,,,,,,0,0,0,0,0,0,0,0,0,0,0,0,,,,,,,,,,,,,0,0,0,0,0,27,27,27,,,,,,,,,,,,,,,,,,,,,,,,,,,,,,,,,,,,,,,,,,,,,,,,,,,,,,,,,,,,,,,,,,,,,,,,,,,,,,,,,,,,,,,,,,,,,,,,,,,,,212.04418096100198,220.00136345600185,,,,,111721,1,2,0,1,1,1,2,0,38,2021_Nov_17_1138,listening_fmri,3.2.4,60.225908102803444,
0,parcelated_audio/23/23_29.ogg,,,,,,,,,0,0,0,0,0,0,0,0,0,0,0,0,,,,,,,,,,,,,0,0,0,0,0,28,28,28,,,,,,,,,,,,,,,,,,,,,,,,,,,,,,,,,,,,,,,,,,,,,,,,,,,,,,,,,,,,,,,,,,,,,,,,,,,,,,,,,,,,,,,,,,,,,,,,,,,,,220.00170677700225,223.76412926500052,,,,,111721,1,2,0,1,1,1,2,0,38,2021_Nov_17_1138,listening_fmri,3.2.4,60.225908102803444,
0,parcelated_audio/23/23_30.ogg,,,,,,,,,0,0,0,0,0,0,0,0,0,0,0,0,,,,,,,,,,,,,0,0,0,0,0,29,29,29,,,,,,,,,,,,,,,,,,,,,,,,,,,,,,,,,,,,,,,,,,,,,,,,,,,,,,,,,,,,,,,,,,,,,,,,,,,,,,,,,,,,,,,,,,,,,,,,,,,,,223.76450658500107,229.68763088900232,,,,,111721,1,2,0,1,1,1,2,0,38,2021_Nov_17_1138,listening_fmri,3.2.4,60.225908102803444,
0,parcelated_audio/23/23_31.ogg,,,,,,,,,0,0,0,0,0,0,0,0,0,0,0,0,,,,,,,,,,,,,0,0,0,0,0,30,30,30,,,,,,,,,,,,,,,,,,,,,,,,,,,,,,,,,,,,,,,,,,,,,,,,,,,,,,,,,,,,,,,,,,,,,,,,,,,,,,,,,,,,,,,,,,,,,,,,,,,,,229.68806189700263,231.70360423500097,,,,,111721,1,2,0,1,1,1,2,0,38,2021_Nov_17_1138,listening_fmri,3.2.4,60.225908102803444,
0,parcelated_audio/23/23_32.ogg,,,,,,,,,0,0,0,0,0,0,0,0,0,0,0,0,,,,,,,,,,,,,0,0,0,0,0,31,31,31,,,,,,,,,,,,,,,,,,,,,,,,,,,,,,,,,,,,,,,,,,,,,,,,,,,,,,,,,,,,,,,,,,,,,,,,,,,,,,,,,,,,,,,,,,,,,,,,,,,,,231.70395018400086,235.31945660800193,,,,,111721,1,2,0,1,1,1,2,0,38,2021_Nov_17_1138,listening_fmri,3.2.4,60.225908102803444,
0,parcelated_audio/23/23_33.ogg,,,,,,,,,0,0,0,0,0,0,0,0,0,0,0,0,,,,,,,,,,,,,0,0,0,0,0,32,32,32,,,,,,,,,,,,,,,,,,,,,,,,,,,,,,,,,,,,,,,,,,,,,,,,,,,,,,,,,,,,,,,,,,,,,,,,,,,,,,,,,,,,,,,,,,,,,,,,,,,,,235.31993626700205,241.37580615800107,,,,,111721,1,2,0,1,1,1,2,0,38,2021_Nov_17_1138,listening_fmri,3.2.4,60.225908102803444,
0,parcelated_audio/23/23_34.ogg,,,,,,,,,0,0,0,0,0,0,0,0,0,0,0,0,,,,,,,,,,,,,0,0,0,0,0,33,33,33,,,,,,,,,,,,,,,,,,,,,,,,,,,,,,,,,,,,,,,,,,,,,,,,,,,,,,,,,,,,,,,,,,,,,,,,,,,,,,,,,,,,,,,,,,,,,,,,,,,,,241.37614723000297,244.91429759099992,,,,,111721,1,2,0,1,1,1,2,0,38,2021_Nov_17_1138,listening_fmri,3.2.4,60.225908102803444,
0,parcelated_audio/23/23_35.ogg,,,,,,,,,0,0,0,0,0,0,0,0,0,0,0,0,,,,,,,,,,,,,0,0,0,0,0,34,34,34,,,,,,,,,,,,,,,,,,,,,,,,,,,,,,,,,,,,,,,,,,,,,,,,,,,,,,,,,,,,,,,,,,,,,,,,,,,,,,,,,,,,,,,,,,,,,,,,,,,,,244.9146464990008,249.19558900600168,,,,,111721,1,2,0,1,1,1,2,0,38,2021_Nov_17_1138,listening_fmri,3.2.4,60.225908102803444,
0,parcelated_audio/23/23_36.ogg,,,,,,,,,0,0,0,0,0,0,0,0,0,0,0,0,,,,,,,,,,,,,0,0,0,0,0,35,35,35,,,,,,,,,,,,,,,,,,,,,,,,,,,,,,,,,,,,,,,,,,,,,,,,,,,,,,,,,,,,,,,,,,,,,,,,,,,,,,,,,,,,,,,,,,,,,,,,,,,,,249.1960450530023,253.8215672510014,,,,,111721,1,2,0,1,1,1,2,0,38,2021_Nov_17_1138,listening_fmri,3.2.4,60.225908102803444,
0,parcelated_audio/23/23_37.ogg,,,,,,,,,0,0,0,0,0,0,0,0,0,0,0,0,,,,,,,,,,,,,0,0,0,0,0,36,36,36,,,,,,,,,,,,,,,,,,,,,,,,,,,,,,,,,,,,,,,,,,,,,,,,,,,,,,,,,,,,,,,,,,,,,,,,,,,,,,,,,,,,,,,,,,,,,,,,,,,,,253.82184025800234,258.62375470700135,,,,,111721,1,2,0,1,1,1,2,0,38,2021_Nov_17_1138,listening_fmri,3.2.4,60.225908102803444,
0,parcelated_audio/23/23_38.ogg,,,,,,,,,0,0,0,0,0,0,0,0,0,0,0,0,,,,,,,,,,,,,0,0,0,0,0,37,37,37,,,,,,,,,,,,,,,,,,,,,,,,,,,,,,,,,,,,,,,,,,,,,,,,,,,,,,,,,,,,,,,,,,,,,,,,,,,,,,,,,,,,,,,,,,,,,,,,,,,,,258.62426048600173,266.11954845700166,,,,,111721,1,2,0,1,1,1,2,0,38,2021_Nov_17_1138,listening_fmri,3.2.4,60.225908102803444,
0,parcelated_audio/23/23_39.ogg,,,,,,,,,0,0,0,0,0,0,0,0,0,0,0,0,,,,,,,,,,,,,0,0,0,0,0,38,38,38,,,,,,,,,,,,,,,,,,,,,,,,,,,,,,,,,,,,,,,,,,,,,,,,,,,,,,,,,,,,,,,,,,,,,,,,,,,,,,,,,,,,,,,,,,,,,,,,,,,,,266.11989669000104,272.3916999080029,,,,,111721,1,2,0,1,1,1,2,0,38,2021_Nov_17_1138,listening_fmri,3.2.4,60.225908102803444,
0,,,,,,,,,,0,0,0,0,0,0,0,0,0,0,0,0,,,,,,,,,,,,,0,0,0,0,,,,,,,,,,,,,,,,,,,,,,,,,,,,,,,,,,,,,,,,,,,,,,,,,,,,,,,,,,,,,,,,,,,,,,,,,,,,,,,,,,,,,,,,,,,,,,,,,,,,,,,,,,,,,,,111721,1,2,0,1,1,1,2,0,38,2021_Nov_17_1138,listening_fmri,3.2.4,60.225908102803444,
,,,,,,,,,,,,,,,,,,,,,,,,,,,,,,,,,,,,,,,,,,,,,,,,,,,,,,,,,,,272.392201941002,278.3833246180002,303.2272897740004,None,,,,,,,,,,,,,,,,,,,,,,,,,,,,,,,,,,,,,,,,,,,,,,,,,,,,,,,,,,,,,,,,,,,,,,,,,,,,,,,,,,309.23706980600036,None,309.23706980600036,None,,,,,,,,,,,,,,,
﻿count,audio,trials_14.thisRepN,trials_14.thisTrialN,trials_14.thisN,trials_14.thisIndex,trials_3.thisRepN,trials_3.thisTrialN,trials_3.thisN,trials_3.thisIndex,trials_4.thisRepN,trials_4.thisTrialN,trials_4.thisN,trials_4.thisIndex,trials_6.thisRepN,trials_6.thisTrialN,trials_6.thisN,trials_6.thisIndex,trials_9.thisRepN,trials_9.thisTrialN,trials_9.thisN,trials_9.thisIndex,trials_10.thisRepN,trials_10.thisTrialN,trials_10.thisN,trials_10.thisIndex,trials_11.thisRepN,trials_11.thisTrialN,trials_11.thisN,trials_11.thisIndex,trials_12.thisRepN,trials_12.thisTrialN,trials_12.thisN,trials_12.thisIndex,trials_25.thisRepN,trials_25.thisTrialN,trials_25.thisN,trials_25.thisIndex,trials_15.thisRepN,trials_15.thisTrialN,trials_15.thisN,trials_15.thisIndex,trials_26.thisRepN,trials_26.thisTrialN,trials_26.thisN,trials_26.thisIndex,story_list_block2,action_list_block2,textTrigger.started,textTrigger.stopped,getTrigger.keys,getTrigger.rt,getTrigger.started,getTrigger.stopped,triggerTime,text_76.started,text_76.stopped,text_77.started,text_77.stopped,startWait,endWait,image_23.started,image_23.stopped,text_55.started,text_55.stopped,text_56.started,text_56.stopped,key_resp_2.keys,key_resp_2.rt,key_resp_2.started,key_resp_2.stopped,text_82.started,text_82.stopped,text_57.started,text_57.stopped,key_resp_17.keys,key_resp_17.rt,key_resp_17.started,key_resp_17.stopped,text_83.started,text_83.stopped,text_60.started,text_60.stopped,image_2.started,image_2.stopped,text_58.started,text_58.stopped,key_resp_23.keys,key_resp_23.rt,key_resp_23.started,key_resp_23.stopped,text_62.started,text_62.stopped,key_resp_18.keys,key_resp_18.rt,key_resp_18.started,key_resp_18.stopped,text_84.started,text_84.stopped,question1_2.started,question1_2.stopped,question2_2.started,question2_2.stopped,question3_2.started,question3_2.stopped,question4_2.started,question4_2.stopped,question5_2.started,question5_2.stopped,question6_2.started,question6_2.stopped,image_15.started,image_15.stopped,key_resp.keys,key_resp.started,key_resp.stopped,text_59.started,text_59.stopped,key_resp_19.keys,key_resp_19.rt,key_resp_19.started,key_resp_19.stopped,text_85.started,text_85.stopped,text_61.started,text_61.stopped,image_17.started,image_17.stopped,text_63.started,text_63.stopped,key_resp_24.keys,key_resp_24.rt,key_resp_24.started,key_resp_24.stopped,text_64.started,text_64.stopped,key_resp_20.keys,key_resp_20.rt,key_resp_20.started,key_resp_20.stopped,storyImage_StartTime,storyImage_EndTime,clip_StartTime,clip_EndTime,text_67.started,text_67.stopped,text_68.started,text_68.stopped,participant,sA,sB,lA,lB,block_struct,play_stories,block,behavioral,random_seed,date,expName,psychopyVersion,frameRate,
0,,,,,,,,,,0,0,0,0,0,0,0,0,0,0,0,0,0,0,0,0,0,0,0,0,,,,,,,,,,,,,,,,,[23 34 21 32 12 41 43 14],[1 1 3 3 2 2 4 4],13.626284842001041,None,equal,17.19480041299903,13.626284842001041,None,17.21330375999969,13.626284842001041,None,13.626284842001041,None,0.00033676000020932406,5.999537917003181,30.843592489000002,None,36.85637986200163,None,36.85637986200163,None,1,1.3948639529990032,36.85637986200163,None,36.85637986200163,None,38.27739148399996,None,1,0.9949003709989483,38.27739148399996,None,38.27739148399996,None,39.3100806500006,None,39.3100806500006,None,39.3100806500006,None,1,1.2520985139999539,39.3100806500006,None,40.594018693002,None,1,1.3562241550025647,40.594018693002,None,40.594018693002,None,42.057044573000894,None,42.057044573000894,None,42.057044573000894,None,42.057044573000894,None,42.057044573000894,None,42.057044573000894,None,42.057044573000894,None,None,42.057044573000894,None,,,,,,,,,,,,,,,,,,,,,,,,,,,,,,,,,111721,1,2,0,1,1,1,2,0,38,2021_Nov_17_1138,listening_fmri,3.2.4,60.225908102803444,
0,,,,,,,,,,0,0,0,0,0,0,0,0,0,0,0,0,0,0,0,0,,,,,,,,,,,,,,,,,,,,,,,,,,,,,,,,,,,,,,,,,,,,,,,,,,,,,,,,,,,,,,,,,,,,,,,,,,,,,,,,,,,,,,,,,,,69.00616087199887,None,6,1.6059552219994657,69.00616087199887,None,69.00616087199887,None,70.65594184600195,None,70.65594184600195,None,70.65594184600195,None,6,0.8371892110008048,70.65594184600195,None,,,,,,,,,,,,,,,111721,1,2,0,1,1,1,2,0,38,2021_Nov_17_1138,listening_fmri,3.2.4,60.225908102803444,
0,parcelated_audio/23/23_1.ogg,,,,,,,,,0,0,0,0,0,0,0,0,0,0,0,0,,,,,,,,,,,,,0,0,0,0,0,0,0,0,,,,,,,,,,,,,,,,,,,,,,,,,,,,,,,,,,,,,,,,,,,,,,,,,,,,,,,,,,,,,,,,,,,,,,,,,,,,,,,,,,,,,,,,,,,,,71.51096139400033,None,6,1.380296344999806,71.51096139400033,None,42.09492434300046,45.09948825200263,45.104821879001975,55.51137218200165,,,,,111721,1,2,0,1,1,1,2,0,38,2021_Nov_17_1138,listening_fmri,3.2.4,60.225908102803444,
0,parcelated_audio/23/23_2.ogg,,,,,,,,,0,0,0,0,0,0,0,0,0,0,0,0,,,,,,,,,,,,,0,0,0,0,0,1,1,1,,,,,,,,,,,,,,,,,,,,,,,,,,,,,,,,,,,,,,,,,,,,,,,,,,,,,,,,,,,,,,,,,,,,,,,,,,,,,,,,,,,,,,,,,,,,,,,,,,,,,55.51178263800102,62.38638967100269,,,,,111721,1,2,0,1,1,1,2,0,38,2021_Nov_17_1138,listening_fmri,3.2.4,60.225908102803444,
0,parcelated_audio/23/23_3.ogg,,,,,,,,,0,0,0,0,0,0,0,0,0,0,0,0,,,,,,,,,,,,,0,0,0,0,0,2,2,2,,,,,,,,,,,,,,,,,,,,,,,,,,,,,,,,,,,,,,,,,,,,,,,,,,,,,,,,,,,,,,,,,,,,,,,,,,,,,,,,,,,,,,,,,,,,,,,,,,,,,62.386732126000425,68.15550736300065,,,,,111721,1,2,0,1,1,1,2,0,38,2021_Nov_17_1138,listening_fmri,3.2.4,60.225908102803444,
0,parcelated_audio/23/23_4.ogg,,,,,,,,,0,0,0,0,0,0,0,0,0,0,0,0,,,,,,,,,,,,,0,0,0,0,0,3,3,3,,,,,,,,,,,,,,,,,,,,,,,,,,,,,,,,,,,,,,,,,,,,,,,,,,,,,,,,,,,,,,,,,,,,,,,,,,,,,,,,,,,,,,,,,,,,,,,,,,,,,68.15585107800143,79.42756241000097,,,,,111721,1,2,0,1,1,1,2,0,38,2021_Nov_17_1138,listening_fmri,3.2.4,60.225908102803444,
0,parcelated_audio/23/23_5.ogg,,,,,,,,,0,0,0,0,0,0,0,0,0,0,0,0,,,,,,,,,,,,,0,0,0,0,0,4,4,4,,,,,,,,,,,,,,,,,,,,,,,,,,,,,,,,,,,,,,,,,,,,,,,,,,,,,,,,,,,,,,,,,,,,,,,,,,,,,,,,,,,,,,,,,,,,,,,,,,,,,79.42797201800204,85.63551510900288,,,,,111721,1,2,0,1,1,1,2,0,38,2021_Nov_17_1138,listening_fmri,3.2.4,60.225908102803444,
0,parcelated_audio/23/23_6.ogg,,,,,,,,,0,0,0,0,0,0,0,0,0,0,0,0,,,,,,,,,,,,,0,0,0,0,0,5,5,5,,,,,,,,,,,,,,,,,,,,,,,,,,,,,,,,,,,,,,,,,,,,,,,,,,,,,,,,,,,,,,,,,,,,,,,,,,,,,,,,,,,,,,,,,,,,,,,,,,,,,85.63586442700034,93.04643482900065,,,,,111721,1,2,0,1,1,1,2,0,38,2021_Nov_17_1138,listening_fmri,3.2.4,60.225908102803444,
0,parcelated_audio/23/23_7.ogg,,,,,,,,,0,0,0,0,0,0,0,0,0,0,0,0,,,,,,,,,,,,,0,0,0,0,0,6,6,6,,,,,,,,,,,,,,,,,,,,,,,,,,,,,,,,,,,,,,,,,,,,,,,,,,,,,,,,,,,,,,,,,,,,,,,,,,,,,,,,,,,,,,,,,,,,,,,,,,,,,93.04723374800233,99.80553359600162,,,,,111721,1,2,0,1,1,1,2,0,38,2021_Nov_17_1138,listening_fmri,3.2.4,60.225908102803444,
0,parcelated_audio/23/23_8.ogg,,,,,,,,,0,0,0,0,0,0,0,0,0,0,0,0,,,,,,,,,,,,,0,0,0,0,0,7,7,7,,,,,,,,,,,,,,,,,,,,,,,,,,,,,,,,,,,,,,,,,,,,,,,,,,,,,,,,,,,,,,,,,,,,,,,,,,,,,,,,,,,,,,,,,,,,,,,,,,,,,99.80580589200326,105.21969135000109,,,,,111721,1,2,0,1,1,1,2,0,38,2021_Nov_17_1138,listening_fmri,3.2.4,60.225908102803444,
0,parcelated_audio/23/23_9.ogg,,,,,,,,,0,0,0,0,0,0,0,0,0,0,0,0,,,,,,,,,,,,,0,0,0,0,0,8,8,8,,,,,,,,,,,,,,,,,,,,,,,,,,,,,,,,,,,,,,,,,,,,,,,,,,,,,,,,,,,,,,,,,,,,,,,,,,,,,,,,,,,,,,,,,,,,,,,,,,,,,105.22004680500322,109.61320242900183,,,,,111721,1,2,0,1,1,1,2,0,38,2021_Nov_17_1138,listening_fmri,3.2.4,60.225908102803444,
0,parcelated_audio/23/23_10.ogg,,,,,,,,,0,0,0,0,0,0,0,0,0,0,0,0,,,,,,,,,,,,,0,0,0,0,0,9,9,9,,,,,,,,,,,,,,,,,,,,,,,,,,,,,,,,,,,,,,,,,,,,,,,,,,,,,,,,,,,,,,,,,,,,,,,,,,,,,,,,,,,,,,,,,,,,,,,,,,,,,109.613554794003,113.56761575700148,,,,,111721,1,2,0,1,1,1,2,0,38,2021_Nov_17_1138,listening_fmri,3.2.4,60.225908102803444,
0,parcelated_audio/23/23_11.ogg,,,,,,,,,0,0,0,0,0,0,0,0,0,0,0,0,,,,,,,,,,,,,0,0,0,0,0,10,10,10,,,,,,,,,,,,,,,,,,,,,,,,,,,,,,,,,,,,,,,,,,,,,,,,,,,,,,,,,,,,,,,,,,,,,,,,,,,,,,,,,,,,,,,,,,,,,,,,,,,,,113.56814942300116,121.69849227300074,,,,,111721,1,2,0,1,1,1,2,0,38,2021_Nov_17_1138,listening_fmri,3.2.4,60.225908102803444,
0,parcelated_audio/23/23_12.ogg,,,,,,,,,0,0,0,0,0,0,0,0,0,0,0,0,,,,,,,,,,,,,0,0,0,0,0,11,11,11,,,,,,,,,,,,,,,,,,,,,,,,,,,,,,,,,,,,,,,,,,,,,,,,,,,,,,,,,,,,,,,,,,,,,,,,,,,,,,,,,,,,,,,,,,,,,,,,,,,,,121.69890427100108,128.85448186800204,,,,,111721,1,2,0,1,1,1,2,0,38,2021_Nov_17_1138,listening_fmri,3.2.4,60.225908102803444,
0,parcelated_audio/23/23_13.ogg,,,,,,,,,0,0,0,0,0,0,0,0,0,0,0,0,,,,,,,,,,,,,0,0,0,0,0,12,12,12,,,,,,,,,,,,,,,,,,,,,,,,,,,,,,,,,,,,,,,,,,,,,,,,,,,,,,,,,,,,,,,,,,,,,,,,,,,,,,,,,,,,,,,,,,,,,,,,,,,,,128.85484119800094,135.64186824100034,,,,,111721,1,2,0,1,1,1,2,0,38,2021_Nov_17_1138,listening_fmri,3.2.4,60.225908102803444,
0,parcelated_audio/23/23_14.ogg,,,,,,,,,0,0,0,0,0,0,0,0,0,0,0,0,,,,,,,,,,,,,0,0,0,0,0,13,13,13,,,,,,,,,,,,,,,,,,,,,,,,,,,,,,,,,,,,,,,,,,,,,,,,,,,,,,,,,,,,,,,,,,,,,,,,,,,,,,,,,,,,,,,,,,,,,,,,,,,,,135.64240294900083,140.00205449799978,,,,,111721,1,2,0,1,1,1,2,0,38,2021_Nov_17_1138,listening_fmri,3.2.4,60.225908102803444,
0,parcelated_audio/23/23_15.ogg,,,,,,,,,0,0,0,0,0,0,0,0,0,0,0,0,,,,,,,,,,,,,0,0,0,0,0,14,14,14,,,,,,,,,,,,,,,,,,,,,,,,,,,,,,,,,,,,,,,,,,,,,,,,,,,,,,,,,,,,,,,,,,,,,,,,,,,,,,,,,,,,,,,,,,,,,,,,,,,,,140.0025533600019,144.4235349160008,,,,,111721,1,2,0,1,1,1,2,0,38,2021_Nov_17_1138,listening_fmri,3.2.4,60.225908102803444,
0,parcelated_audio/23/23_16.ogg,,,,,,,,,0,0,0,0,0,0,0,0,0,0,0,0,,,,,,,,,,,,,0,0,0,0,0,15,15,15,,,,,,,,,,,,,,,,,,,,,,,,,,,,,,,,,,,,,,,,,,,,,,,,,,,,,,,,,,,,,,,,,,,,,,,,,,,,,,,,,,,,,,,,,,,,,,,,,,,,,144.42389228899992,150.99640936100332,,,,,111721,1,2,0,1,1,1,2,0,38,2021_Nov_17_1138,listening_fmri,3.2.4,60.225908102803444,
0,parcelated_audio/23/23_17.ogg,,,,,,,,,0,0,0,0,0,0,0,0,0,0,0,0,,,,,,,,,,,,,0,0,0,0,0,16,16,16,,,,,,,,,,,,,,,,,,,,,,,,,,,,,,,,,,,,,,,,,,,,,,,,,,,,,,,,,,,,,,,,,,,,,,,,,,,,,,,,,,,,,,,,,,,,,,,,,,,,,150.99676413900306,157.75244850000308,,,,,111721,1,2,0,1,1,1,2,0,38,2021_Nov_17_1138,listening_fmri,3.2.4,60.225908102803444,
0,parcelated_audio/23/23_18.ogg,,,,,,,,,0,0,0,0,0,0,0,0,0,0,0,0,,,,,,,,,,,,,0,0,0,0,0,17,17,17,,,,,,,,,,,,,,,,,,,,,,,,,,,,,,,,,,,,,,,,,,,,,,,,,,,,,,,,,,,,,,,,,,,,,,,,,,,,,,,,,,,,,,,,,,,,,,,,,,,,,157.75281738000194,169.73326142400037,,,,,111721,1,2,0,1,1,1,2,0,38,2021_Nov_17_1138,listening_fmri,3.2.4,60.225908102803444,
0,parcelated_audio/23/23_19.ogg,,,,,,,,,0,0,0,0,0,0,0,0,0,0,0,0,,,,,,,,,,,,,0,0,0,0,0,18,18,18,,,,,,,,,,,,,,,,,,,,,,,,,,,,,,,,,,,,,,,,,,,,,,,,,,,,,,,,,,,,,,,,,,,,,,,,,,,,,,,,,,,,,,,,,,,,,,,,,,,,,169.73361044400008,175.49773683400053,,,,,111721,1,2,0,1,1,1,2,0,38,2021_Nov_17_1138,listening_fmri,3.2.4,60.225908102803444,
0,parcelated_audio/23/23_20.ogg,,,,,,,,,0,0,0,0,0,0,0,0,0,0,0,0,,,,,,,,,,,,,0,0,0,0,0,19,19,19,,,,,,,,,,,,,,,,,,,,,,,,,,,,,,,,,,,,,,,,,,,,,,,,,,,,,,,,,,,,,,,,,,,,,,,,,,,,,,,,,,,,,,,,,,,,,,,,,,,,,175.4982115180028,178.46642474000328,,,,,111721,1,2,0,1,1,1,2,0,38,2021_Nov_17_1138,listening_fmri,3.2.4,60.225908102803444,
0,parcelated_audio/23/23_21.ogg,,,,,,,,,0,0,0,0,0,0,0,0,0,0,0,0,,,,,,,,,,,,,0,0,0,0,0,20,20,20,,,,,,,,,,,,,,,,,,,,,,,,,,,,,,,,,,,,,,,,,,,,,,,,,,,,,,,,,,,,,,,,,,,,,,,,,,,,,,,,,,,,,,,,,,,,,,,,,,,,,178.4667989380032,186.13175724500252,,,,,111721,1,2,0,1,1,1,2,0,38,2021_Nov_17_1138,listening_fmri,3.2.4,60.225908102803444,
0,parcelated_audio/23/23_22.ogg,,,,,,,,,0,0,0,0,0,0,0,0,0,0,0,0,,,,,,,,,,,,,0,0,0,0,0,21,21,21,,,,,,,,,,,,,,,,,,,,,,,,,,,,,,,,,,,,,,,,,,,,,,,,,,,,,,,,,,,,,,,,,,,,,,,,,,,,,,,,,,,,,,,,,,,,,,,,,,,,,186.13210745700053,188.78751604500212,,,,,111721,1,2,0,1,1,1,2,0,38,2021_Nov_17_1138,listening_fmri,3.2.4,60.225908102803444,
0,parcelated_audio/23/23_23.ogg,,,,,,,,,0,0,0,0,0,0,0,0,0,0,0,0,,,,,,,,,,,,,0,0,0,0,0,22,22,22,,,,,,,,,,,,,,,,,,,,,,,,,,,,,,,,,,,,,,,,,,,,,,,,,,,,,,,,,,,,,,,,,,,,,,,,,,,,,,,,,,,,,,,,,,,,,,,,,,,,,188.7880291649999,192.94355535900104,,,,,111721,1,2,0,1,1,1,2,0,38,2021_Nov_17_1138,listening_fmri,3.2.4,60.225908102803444,
0,parcelated_audio/23/23_24.ogg,,,,,,,,,0,0,0,0,0,0,0,0,0,0,0,0,,,,,,,,,,,,,0,0,0,0,0,23,23,23,,,,,,,,,,,,,,,,,,,,,,,,,,,,,,,,,,,,,,,,,,,,,,,,,,,,,,,,,,,,,,,,,,,,,,,,,,,,,,,,,,,,,,,,,,,,,,,,,,,,,192.94390135700087,196.39156426600312,,,,,111721,1,2,0,1,1,1,2,0,38,2021_Nov_17_1138,listening_fmri,3.2.4,60.225908102803444,
0,parcelated_audio/23/23_25.ogg,,,,,,,,,0,0,0,0,0,0,0,0,0,0,0,0,,,,,,,,,,,,,0,0,0,0,0,24,24,24,,,,,,,,,,,,,,,,,,,,,,,,,,,,,,,,,,,,,,,,,,,,,,,,,,,,,,,,,,,,,,,,,,,,,,,,,,,,,,,,,,,,,,,,,,,,,,,,,,,,,196.39215409900135,200.53760425400105,,,,,111721,1,2,0,1,1,1,2,0,38,2021_Nov_17_1138,listening_fmri,3.2.4,60.225908102803444,
0,parcelated_audio/23/23_26.ogg,,,,,,,,,0,0,0,0,0,0,0,0,0,0,0,0,,,,,,,,,,,,,0,0,0,0,0,25,25,25,,,,,,,,,,,,,,,,,,,,,,,,,,,,,,,,,,,,,,,,,,,,,,,,,,,,,,,,,,,,,,,,,,,,,,,,,,,,,,,,,,,,,,,,,,,,,,,,,,,,,200.53795710800114,206.76604781600327,,,,,111721,1,2,0,1,1,1,2,0,38,2021_Nov_17_1138,listening_fmri,3.2.4,60.225908102803444,
0,parcelated_audio/23/23_27.ogg,,,,,,,,,0,0,0,0,0,0,0,0,0,0,0,0,,,,,,,,,,,,,0,0,0,0,0,26,26,26,,,,,,,,,,,,,,,,,,,,,,,,,,,,,,,,,,,,,,,,,,,,,,,,,,,,,,,,,,,,,,,,,,,,,,,,,,,,,,,,,,,,,,,,,,,,,,,,,,,,,206.76651547400252,212.04372737400263,,,,,111721,1,2,0,1,1,1,2,0,38,2021_Nov_17_1138,listening_fmri,3.2.4,60.225908102803444,
0,parcelated_audio/23/23_28.ogg,,,,,,,,,0,0,0,0,0,0,0,0,0,0,0,0,,,,,,,,,,,,,0,0,0,0,0,27,27,27,,,,,,,,,,,,,,,,,,,,,,,,,,,,,,,,,,,,,,,,,,,,,,,,,,,,,,,,,,,,,,,,,,,,,,,,,,,,,,,,,,,,,,,,,,,,,,,,,,,,,212.04418096100198,220.00136345600185,,,,,111721,1,2,0,1,1,1,2,0,38,2021_Nov_17_1138,listening_fmri,3.2.4,60.225908102803444,
0,parcelated_audio/23/23_29.ogg,,,,,,,,,0,0,0,0,0,0,0,0,0,0,0,0,,,,,,,,,,,,,0,0,0,0,0,28,28,28,,,,,,,,,,,,,,,,,,,,,,,,,,,,,,,,,,,,,,,,,,,,,,,,,,,,,,,,,,,,,,,,,,,,,,,,,,,,,,,,,,,,,,,,,,,,,,,,,,,,,220.00170677700225,223.76412926500052,,,,,111721,1,2,0,1,1,1,2,0,38,2021_Nov_17_1138,listening_fmri,3.2.4,60.225908102803444,
0,parcelated_audio/23/23_30.ogg,,,,,,,,,0,0,0,0,0,0,0,0,0,0,0,0,,,,,,,,,,,,,0,0,0,0,0,29,29,29,,,,,,,,,,,,,,,,,,,,,,,,,,,,,,,,,,,,,,,,,,,,,,,,,,,,,,,,,,,,,,,,,,,,,,,,,,,,,,,,,,,,,,,,,,,,,,,,,,,,,223.76450658500107,229.68763088900232,,,,,111721,1,2,0,1,1,1,2,0,38,2021_Nov_17_1138,listening_fmri,3.2.4,60.225908102803444,
0,parcelated_audio/23/23_31.ogg,,,,,,,,,0,0,0,0,0,0,0,0,0,0,0,0,,,,,,,,,,,,,0,0,0,0,0,30,30,30,,,,,,,,,,,,,,,,,,,,,,,,,,,,,,,,,,,,,,,,,,,,,,,,,,,,,,,,,,,,,,,,,,,,,,,,,,,,,,,,,,,,,,,,,,,,,,,,,,,,,229.68806189700263,231.70360423500097,,,,,111721,1,2,0,1,1,1,2,0,38,2021_Nov_17_1138,listening_fmri,3.2.4,60.225908102803444,
0,parcelated_audio/23/23_32.ogg,,,,,,,,,0,0,0,0,0,0,0,0,0,0,0,0,,,,,,,,,,,,,0,0,0,0,0,31,31,31,,,,,,,,,,,,,,,,,,,,,,,,,,,,,,,,,,,,,,,,,,,,,,,,,,,,,,,,,,,,,,,,,,,,,,,,,,,,,,,,,,,,,,,,,,,,,,,,,,,,,231.70395018400086,235.31945660800193,,,,,111721,1,2,0,1,1,1,2,0,38,2021_Nov_17_1138,listening_fmri,3.2.4,60.225908102803444,
0,parcelated_audio/23/23_33.ogg,,,,,,,,,0,0,0,0,0,0,0,0,0,0,0,0,,,,,,,,,,,,,0,0,0,0,0,32,32,32,,,,,,,,,,,,,,,,,,,,,,,,,,,,,,,,,,,,,,,,,,,,,,,,,,,,,,,,,,,,,,,,,,,,,,,,,,,,,,,,,,,,,,,,,,,,,,,,,,,,,235.31993626700205,241.37580615800107,,,,,111721,1,2,0,1,1,1,2,0,38,2021_Nov_17_1138,listening_fmri,3.2.4,60.225908102803444,
0,parcelated_audio/23/23_34.ogg,,,,,,,,,0,0,0,0,0,0,0,0,0,0,0,0,,,,,,,,,,,,,0,0,0,0,0,33,33,33,,,,,,,,,,,,,,,,,,,,,,,,,,,,,,,,,,,,,,,,,,,,,,,,,,,,,,,,,,,,,,,,,,,,,,,,,,,,,,,,,,,,,,,,,,,,,,,,,,,,,241.37614723000297,244.91429759099992,,,,,111721,1,2,0,1,1,1,2,0,38,2021_Nov_17_1138,listening_fmri,3.2.4,60.225908102803444,
0,parcelated_audio/23/23_35.ogg,,,,,,,,,0,0,0,0,0,0,0,0,0,0,0,0,,,,,,,,,,,,,0,0,0,0,0,34,34,34,,,,,,,,,,,,,,,,,,,,,,,,,,,,,,,,,,,,,,,,,,,,,,,,,,,,,,,,,,,,,,,,,,,,,,,,,,,,,,,,,,,,,,,,,,,,,,,,,,,,,244.9146464990008,249.19558900600168,,,,,111721,1,2,0,1,1,1,2,0,38,2021_Nov_17_1138,listening_fmri,3.2.4,60.225908102803444,
0,parcelated_audio/23/23_36.ogg,,,,,,,,,0,0,0,0,0,0,0,0,0,0,0,0,,,,,,,,,,,,,0,0,0,0,0,35,35,35,,,,,,,,,,,,,,,,,,,,,,,,,,,,,,,,,,,,,,,,,,,,,,,,,,,,,,,,,,,,,,,,,,,,,,,,,,,,,,,,,,,,,,,,,,,,,,,,,,,,,249.1960450530023,253.8215672510014,,,,,111721,1,2,0,1,1,1,2,0,38,2021_Nov_17_1138,listening_fmri,3.2.4,60.225908102803444,
0,parcelated_audio/23/23_37.ogg,,,,,,,,,0,0,0,0,0,0,0,0,0,0,0,0,,,,,,,,,,,,,0,0,0,0,0,36,36,36,,,,,,,,,,,,,,,,,,,,,,,,,,,,,,,,,,,,,,,,,,,,,,,,,,,,,,,,,,,,,,,,,,,,,,,,,,,,,,,,,,,,,,,,,,,,,,,,,,,,,253.82184025800234,258.62375470700135,,,,,111721,1,2,0,1,1,1,2,0,38,2021_Nov_17_1138,listening_fmri,3.2.4,60.225908102803444,
0,parcelated_audio/23/23_38.ogg,,,,,,,,,0,0,0,0,0,0,0,0,0,0,0,0,,,,,,,,,,,,,0,0,0,0,0,37,37,37,,,,,,,,,,,,,,,,,,,,,,,,,,,,,,,,,,,,,,,,,,,,,,,,,,,,,,,,,,,,,,,,,,,,,,,,,,,,,,,,,,,,,,,,,,,,,,,,,,,,,258.62426048600173,266.11954845700166,,,,,111721,1,2,0,1,1,1,2,0,38,2021_Nov_17_1138,listening_fmri,3.2.4,60.225908102803444,
0,parcelated_audio/23/23_39.ogg,,,,,,,,,0,0,0,0,0,0,0,0,0,0,0,0,,,,,,,,,,,,,0,0,0,0,0,38,38,38,,,,,,,,,,,,,,,,,,,,,,,,,,,,,,,,,,,,,,,,,,,,,,,,,,,,,,,,,,,,,,,,,,,,,,,,,,,,,,,,,,,,,,,,,,,,,,,,,,,,,266.11989669000104,272.3916999080029,,,,,111721,1,2,0,1,1,1,2,0,38,2021_Nov_17_1138,listening_fmri,3.2.4,60.225908102803444,
0,,,,,,,,,,0,0,0,0,0,0,0,0,0,0,0,0,,,,,,,,,,,,,0,0,0,0,,,,,,,,,,,,,,,,,,,,,,,,,,,,,,,,,,,,,,,,,,,,,,,,,,,,,,,,,,,,,,,,,,,,,,,,,,,,,,,,,,,,,,,,,,,,,,,,,,,,,,,,,,,,,,,111721,1,2,0,1,1,1,2,0,38,2021_Nov_17_1138,listening_fmri,3.2.4,60.225908102803444,
0,,,,,,,,,,0,0,0,0,0,0,0,0,0,0,0,0,,,,,,,,,,,,,,,,,,,,,,,,,,,,,,,,,,,,,,272.392201941002,278.3833246180002,303.2272897740004,None,,,,,,,,,,,,,,,,,,,,,,,,,,,,,,,,,,,,,,,,,,,,,,,,,,,,,,,,,,,,,,,,,,,,,,,,,,,,,,,,,,309.23706980600036,None,309.23706980600036,None,111721,1,2,0,1,1,1,2,0,38,2021_Nov_17_1138,listening_fmri,3.2.4,60.225908102803444,
0,,,,,,,,,,0,0,0,0,0,0,0,0,,,,,,,,,,,,,,,,,,,,,,,,,,,,,,,,,,,,,,,,,,,,,,,,,,,,,,,,,,,,,,,,,,,,,,,,,,,,,,,,,,,,,,,,,,,,,,,,,,,,,,,,,,,,,,,,,,,,,,,,,,,,,,,,,,,111721,1,2,0,1,1,1,2,0,38,2021_Nov_17_1138,listening_fmri,3.2.4,60.225908102803444,
1,,,,,,,,,,0,0,0,0,0,1,1,1,0,0,0,0,0,0,0,0,0,0,0,0,,,,,,,,,,,,,,,,,,,,,,,,,,,,,,,,,,310.2440534490015,None,310.2440534490015,None,1,0.7901881769976171,310.2440534490015,None,310.2440534490015,None,311.0610917660015,None,1,0.7640077100004419,311.0610917660015,None,311.0610917660015,None,311.86020560900215,None,311.86020560900215,None,311.86020560900215,None,1,0.7348689600003127,311.86020560900215,None,312.61059690600086,None,1,0.9886594749987125,312.61059690600086,None,312.61059690600086,None,313.7033287660015,None,313.7033287660015,None,313.7033287660015,None,313.7033287660015,None,313.7033287660015,None,313.7033287660015,None,313.7033287660015,None,None,313.7033287660015,None,,,,,,,,,,,,,,,,,,,,,,,,,,,,,,,,,111721,1,2,0,1,1,1,2,0,38,2021_Nov_17_1138,listening_fmri,3.2.4,60.225908102803444,
1,,,,,,,,,,0,0,0,0,0,1,1,1,0,0,0,0,0,0,0,0,,,,,,,,,,,,,,,,,,,,,,,,,,,,,,,,,,,,,,,,,,,,,,,,,,,,,,,,,,,,,,,,,,,,,,,,,,,,,,,,,,,,,,,,,,,338.9441622080012,None,1,1.1839294580022397,338.9441622080012,None,338.9441622080012,None,340.16846968900063,None,340.16846968900063,None,340.16846968900063,None,1,0.6807638350001071,340.16846968900063,None,,,,,,,,,,,,,,,111721,1,2,0,1,1,1,2,0,38,2021_Nov_17_1138,listening_fmri,3.2.4,60.225908102803444,
1,parcelated_audio/34/34_1.ogg,,,,,,,,,0,0,0,0,0,1,1,1,0,0,0,0,,,,,,,,,,,,,0,0,0,0,0,0,0,0,,,,,,,,,,,,,,,,,,,,,,,,,,,,,,,,,,,,,,,,,,,,,,,,,,,,,,,,,,,,,,,,,,,,,,,,,,,,,,,,,,,,,,,,,,,,,340.88597312099955,None,1,0.9602897730001132,340.88597312099955,None,311.0320188000005,314.0330101630025,314.0531524750004,322.7455827210033,,,,,111721,1,2,0,1,1,1,2,0,38,2021_Nov_17_1138,listening_fmri,3.2.4,60.225908102803444,
1,parcelated_audio/34/34_2.ogg,,,,,,,,,0,0,0,0,0,1,1,1,0,0,0,0,,,,,,,,,,,,,0,0,0,0,0,1,1,1,,,,,,,,,,,,,,,,,,,,,,,,,,,,,,,,,,,,,,,,,,,,,,,,,,,,,,,,,,,,,,,,,,,,,,,,,,,,,,,,,,,,,,,,,,,,,,,,,,,,,322.74593821200324,327.29540857900065,,,,,111721,1,2,0,1,1,1,2,0,38,2021_Nov_17_1138,listening_fmri,3.2.4,60.225908102803444,
1,parcelated_audio/34/34_3.ogg,,,,,,,,,0,0,0,0,0,1,1,1,0,0,0,0,,,,,,,,,,,,,0,0,0,0,0,2,2,2,,,,,,,,,,,,,,,,,,,,,,,,,,,,,,,,,,,,,,,,,,,,,,,,,,,,,,,,,,,,,,,,,,,,,,,,,,,,,,,,,,,,,,,,,,,,,,,,,,,,,327.29575600700264,331.9377732050016,,,,,111721,1,2,0,1,1,1,2,0,38,2021_Nov_17_1138,listening_fmri,3.2.4,60.225908102803444,
1,parcelated_audio/34/34_4.ogg,,,,,,,,,0,0,0,0,0,1,1,1,0,0,0,0,,,,,,,,,,,,,0,0,0,0,0,3,3,3,,,,,,,,,,,,,,,,,,,,,,,,,,,,,,,,,,,,,,,,,,,,,,,,,,,,,,,,,,,,,,,,,,,,,,,,,,,,,,,,,,,,,,,,,,,,,,,,,,,,,331.938480443001,341.5556662070012,,,,,111721,1,2,0,1,1,1,2,0,38,2021_Nov_17_1138,listening_fmri,3.2.4,60.225908102803444,
1,parcelated_audio/34/34_5.ogg,,,,,,,,,0,0,0,0,0,1,1,1,0,0,0,0,,,,,,,,,,,,,0,0,0,0,0,4,4,4,,,,,,,,,,,,,,,,,,,,,,,,,,,,,,,,,,,,,,,,,,,,,,,,,,,,,,,,,,,,,,,,,,,,,,,,,,,,,,,,,,,,,,,,,,,,,,,,,,,,,341.55602325900327,351.97445118500036,,,,,111721,1,2,0,1,1,1,2,0,38,2021_Nov_17_1138,listening_fmri,3.2.4,60.225908102803444,
1,parcelated_audio/34/34_6.ogg,,,,,,,,,0,0,0,0,0,1,1,1,0,0,0,0,,,,,,,,,,,,,0,0,0,0,0,5,5,5,,,,,,,,,,,,,,,,,,,,,,,,,,,,,,,,,,,,,,,,,,,,,,,,,,,,,,,,,,,,,,,,,,,,,,,,,,,,,,,,,,,,,,,,,,,,,,,,,,,,,351.97546233200046,360.6935609510001,,,,,111721,1,2,0,1,1,1,2,0,38,2021_Nov_17_1138,listening_fmri,3.2.4,60.225908102803444,
1,parcelated_audio/34/34_7.ogg,,,,,,,,,0,0,0,0,0,1,1,1,0,0,0,0,,,,,,,,,,,,,0,0,0,0,0,6,6,6,,,,,,,,,,,,,,,,,,,,,,,,,,,,,,,,,,,,,,,,,,,,,,,,,,,,,,,,,,,,,,,,,,,,,,,,,,,,,,,,,,,,,,,,,,,,,,,,,,,,,360.693835768001,366.69565661600063,,,,,111721,1,2,0,1,1,1,2,0,38,2021_Nov_17_1138,listening_fmri,3.2.4,60.225908102803444,
1,parcelated_audio/34/34_8.ogg,,,,,,,,,0,0,0,0,0,1,1,1,0,0,0,0,,,,,,,,,,,,,0,0,0,0,0,7,7,7,,,,,,,,,,,,,,,,,,,,,,,,,,,,,,,,,,,,,,,,,,,,,,,,,,,,,,,,,,,,,,,,,,,,,,,,,,,,,,,,,,,,,,,,,,,,,,,,,,,,,366.6960117939998,374.66359384300085,,,,,111721,1,2,0,1,1,1,2,0,38,2021_Nov_17_1138,listening_fmri,3.2.4,60.225908102803444,
1,parcelated_audio/34/34_9.ogg,,,,,,,,,0,0,0,0,0,1,1,1,0,0,0,0,,,,,,,,,,,,,0,0,0,0,0,8,8,8,,,,,,,,,,,,,,,,,,,,,,,,,,,,,,,,,,,,,,,,,,,,,,,,,,,,,,,,,,,,,,,,,,,,,,,,,,,,,,,,,,,,,,,,,,,,,,,,,,,,,374.6640554450023,379.4449789520004,,,,,111721,1,2,0,1,1,1,2,0,38,2021_Nov_17_1138,listening_fmri,3.2.4,60.225908102803444,
1,parcelated_audio/34/34_10.ogg,,,,,,,,,0,0,0,0,0,1,1,1,0,0,0,0,,,,,,,,,,,,,0,0,0,0,0,9,9,9,,,,,,,,,,,,,,,,,,,,,,,,,,,,,,,,,,,,,,,,,,,,,,,,,,,,,,,,,,,,,,,,,,,,,,,,,,,,,,,,,,,,,,,,,,,,,,,,,,,,,379.4452841670027,386.5623558799998,,,,,111721,1,2,0,1,1,1,2,0,38,2021_Nov_17_1138,listening_fmri,3.2.4,60.225908102803444,
1,parcelated_audio/34/34_11.ogg,,,,,,,,,0,0,0,0,0,1,1,1,0,0,0,0,,,,,,,,,,,,,0,0,0,0,0,10,10,10,,,,,,,,,,,,,,,,,,,,,,,,,,,,,,,,,,,,,,,,,,,,,,,,,,,,,,,,,,,,,,,,,,,,,,,,,,,,,,,,,,,,,,,,,,,,,,,,,,,,,386.5627128470005,390.00773719500285,,,,,111721,1,2,0,1,1,1,2,0,38,2021_Nov_17_1138,listening_fmri,3.2.4,60.225908102803444,
1,parcelated_audio/34/34_12.ogg,,,,,,,,,0,0,0,0,0,1,1,1,0,0,0,0,,,,,,,,,,,,,0,0,0,0,0,11,11,11,,,,,,,,,,,,,,,,,,,,,,,,,,,,,,,,,,,,,,,,,,,,,,,,,,,,,,,,,,,,,,,,,,,,,,,,,,,,,,,,,,,,,,,,,,,,,,,,,,,,,390.00808243100255,398.16751275200295,,,,,111721,1,2,0,1,1,1,2,0,38,2021_Nov_17_1138,listening_fmri,3.2.4,60.225908102803444,
1,parcelated_audio/34/34_13.ogg,,,,,,,,,0,0,0,0,0,1,1,1,0,0,0,0,,,,,,,,,,,,,0,0,0,0,0,12,12,12,,,,,,,,,,,,,,,,,,,,,,,,,,,,,,,,,,,,,,,,,,,,,,,,,,,,,,,,,,,,,,,,,,,,,,,,,,,,,,,,,,,,,,,,,,,,,,,,,,,,,398.1681620690033,402.06049503300164,,,,,111721,1,2,0,1,1,1,2,0,38,2021_Nov_17_1138,listening_fmri,3.2.4,60.225908102803444,
1,parcelated_audio/34/34_14.ogg,,,,,,,,,0,0,0,0,0,1,1,1,0,0,0,0,,,,,,,,,,,,,0,0,0,0,0,13,13,13,,,,,,,,,,,,,,,,,,,,,,,,,,,,,,,,,,,,,,,,,,,,,,,,,,,,,,,,,,,,,,,,,,,,,,,,,,,,,,,,,,,,,,,,,,,,,,,,,,,,,402.0608550020006,406.71159401600016,,,,,111721,1,2,0,1,1,1,2,0,38,2021_Nov_17_1138,listening_fmri,3.2.4,60.225908102803444,
1,parcelated_audio/34/34_15.ogg,,,,,,,,,0,0,0,0,0,1,1,1,0,0,0,0,,,,,,,,,,,,,0,0,0,0,0,14,14,14,,,,,,,,,,,,,,,,,,,,,,,,,,,,,,,,,,,,,,,,,,,,,,,,,,,,,,,,,,,,,,,,,,,,,,,,,,,,,,,,,,,,,,,,,,,,,,,,,,,,,406.7119449359998,410.90347134600233,,,,,111721,1,2,0,1,1,1,2,0,38,2021_Nov_17_1138,listening_fmri,3.2.4,60.225908102803444,
1,parcelated_audio/34/34_16.ogg,,,,,,,,,0,0,0,0,0,1,1,1,0,0,0,0,,,,,,,,,,,,,0,0,0,0,0,15,15,15,,,,,,,,,,,,,,,,,,,,,,,,,,,,,,,,,,,,,,,,,,,,,,,,,,,,,,,,,,,,,,,,,,,,,,,,,,,,,,,,,,,,,,,,,,,,,,,,,,,,,410.9045443840005,423.91147431900026,,,,,111721,1,2,0,1,1,1,2,0,38,2021_Nov_17_1138,listening_fmri,3.2.4,60.225908102803444,
1,parcelated_audio/34/34_17.ogg,,,,,,,,,0,0,0,0,0,1,1,1,0,0,0,0,,,,,,,,,,,,,0,0,0,0,0,16,16,16,,,,,,,,,,,,,,,,,,,,,,,,,,,,,,,,,,,,,,,,,,,,,,,,,,,,,,,,,,,,,,,,,,,,,,,,,,,,,,,,,,,,,,,,,,,,,,,,,,,,,423.9118220160017,432.84065024400115,,,,,111721,1,2,0,1,1,1,2,0,38,2021_Nov_17_1138,listening_fmri,3.2.4,60.225908102803444,
1,parcelated_audio/34/34_18.ogg,,,,,,,,,0,0,0,0,0,1,1,1,0,0,0,0,,,,,,,,,,,,,0,0,0,0,0,17,17,17,,,,,,,,,,,,,,,,,,,,,,,,,,,,,,,,,,,,,,,,,,,,,,,,,,,,,,,,,,,,,,,,,,,,,,,,,,,,,,,,,,,,,,,,,,,,,,,,,,,,,432.840904744,438.72153634700226,,,,,111721,1,2,0,1,1,1,2,0,38,2021_Nov_17_1138,listening_fmri,3.2.4,60.225908102803444,
1,parcelated_audio/34/34_19.ogg,,,,,,,,,0,0,0,0,0,1,1,1,0,0,0,0,,,,,,,,,,,,,0,0,0,0,0,18,18,18,,,,,,,,,,,,,,,,,,,,,,,,,,,,,,,,,,,,,,,,,,,,,,,,,,,,,,,,,,,,,,,,,,,,,,,,,,,,,,,,,,,,,,,,,,,,,,,,,,,,,438.7220109780028,444.94893487599984,,,,,111721,1,2,0,1,1,1,2,0,38,2021_Nov_17_1138,listening_fmri,3.2.4,60.225908102803444,
1,parcelated_audio/34/34_20.ogg,,,,,,,,,0,0,0,0,0,1,1,1,0,0,0,0,,,,,,,,,,,,,0,0,0,0,0,19,19,19,,,,,,,,,,,,,,,,,,,,,,,,,,,,,,,,,,,,,,,,,,,,,,,,,,,,,,,,,,,,,,,,,,,,,,,,,,,,,,,,,,,,,,,,,,,,,,,,,,,,,444.9492839960003,453.4046844330005,,,,,111721,1,2,0,1,1,1,2,0,38,2021_Nov_17_1138,listening_fmri,3.2.4,60.225908102803444,
1,parcelated_audio/34/34_21.ogg,,,,,,,,,0,0,0,0,0,1,1,1,0,0,0,0,,,,,,,,,,,,,0,0,0,0,0,20,20,20,,,,,,,,,,,,,,,,,,,,,,,,,,,,,,,,,,,,,,,,,,,,,,,,,,,,,,,,,,,,,,,,,,,,,,,,,,,,,,,,,,,,,,,,,,,,,,,,,,,,,453.405035638003,459.76757924900085,,,,,111721,1,2,0,1,1,1,2,0,38,2021_Nov_17_1138,listening_fmri,3.2.4,60.225908102803444,
1,parcelated_audio/34/34_22.ogg,,,,,,,,,0,0,0,0,0,1,1,1,0,0,0,0,,,,,,,,,,,,,0,0,0,0,0,21,21,21,,,,,,,,,,,,,,,,,,,,,,,,,,,,,,,,,,,,,,,,,,,,,,,,,,,,,,,,,,,,,,,,,,,,,,,,,,,,,,,,,,,,,,,,,,,,,,,,,,,,,459.76794541800336,464.892671935002,,,,,111721,1,2,0,1,1,1,2,0,38,2021_Nov_17_1138,listening_fmri,3.2.4,60.225908102803444,
1,parcelated_audio/34/34_23.ogg,,,,,,,,,0,0,0,0,0,1,1,1,0,0,0,0,,,,,,,,,,,,,0,0,0,0,0,22,22,22,,,,,,,,,,,,,,,,,,,,,,,,,,,,,,,,,,,,,,,,,,,,,,,,,,,,,,,,,,,,,,,,,,,,,,,,,,,,,,,,,,,,,,,,,,,,,,,,,,,,,464.8930228980025,472.6762693580022,,,,,111721,1,2,0,1,1,1,2,0,38,2021_Nov_17_1138,listening_fmri,3.2.4,60.225908102803444,
1,parcelated_audio/34/34_24.ogg,,,,,,,,,0,0,0,0,0,1,1,1,0,0,0,0,,,,,,,,,,,,,0,0,0,0,0,23,23,23,,,,,,,,,,,,,,,,,,,,,,,,,,,,,,,,,,,,,,,,,,,,,,,,,,,,,,,,,,,,,,,,,,,,,,,,,,,,,,,,,,,,,,,,,,,,,,,,,,,,,472.67662582600315,478.4760133270029,,,,,111721,1,2,0,1,1,1,2,0,38,2021_Nov_17_1138,listening_fmri,3.2.4,60.225908102803444,
1,parcelated_audio/34/34_25.ogg,,,,,,,,,0,0,0,0,0,1,1,1,0,0,0,0,,,,,,,,,,,,,0,0,0,0,0,24,24,24,,,,,,,,,,,,,,,,,,,,,,,,,,,,,,,,,,,,,,,,,,,,,,,,,,,,,,,,,,,,,,,,,,,,,,,,,,,,,,,,,,,,,,,,,,,,,,,,,,,,,478.476385836002,485.04047492500104,,,,,111721,1,2,0,1,1,1,2,0,38,2021_Nov_17_1138,listening_fmri,3.2.4,60.225908102803444,
1,parcelated_audio/34/34_26.ogg,,,,,,,,,0,0,0,0,0,1,1,1,0,0,0,0,,,,,,,,,,,,,0,0,0,0,0,25,25,25,,,,,,,,,,,,,,,,,,,,,,,,,,,,,,,,,,,,,,,,,,,,,,,,,,,,,,,,,,,,,,,,,,,,,,,,,,,,,,,,,,,,,,,,,,,,,,,,,,,,,485.0409360130034,494.7010195410003,,,,,111721,1,2,0,1,1,1,2,0,38,2021_Nov_17_1138,listening_fmri,3.2.4,60.225908102803444,
1,parcelated_audio/34/34_27.ogg,,,,,,,,,0,0,0,0,0,1,1,1,0,0,0,0,,,,,,,,,,,,,0,0,0,0,0,26,26,26,,,,,,,,,,,,,,,,,,,,,,,,,,,,,,,,,,,,,,,,,,,,,,,,,,,,,,,,,,,,,,,,,,,,,,,,,,,,,,,,,,,,,,,,,,,,,,,,,,,,,494.70155321700076,502.20240998400186,,,,,111721,1,2,0,1,1,1,2,0,38,2021_Nov_17_1138,listening_fmri,3.2.4,60.225908102803444,
1,,,,,,,,,,0,0,0,0,0,1,1,1,0,0,0,0,,,,,,,,,,,,,0,0,0,0,,,,,,,,,,,,,,,,,,,,,,,,,,,,,,,,,,,,,,,,,,,,,,,,,,,,,,,,,,,,,,,,,,,,,,,,,,,,,,,,,,,,,,,,,,,,,,,,,,,,,,,,,,,,,,,111721,1,2,0,1,1,1,2,0,38,2021_Nov_17_1138,listening_fmri,3.2.4,60.225908102803444,
,,,,,,,,,,,,,,,,,,,,,,,,,,,,,,,,,,,,,,,,,,,,,,,,,,,,,,,,,,,502.2029009720027,508.2001887510014,533.0334513790003,None,,,,,,,,,,,,,,,,,,,,,,,,,,,,,,,,,,,,,,,,,,,,,,,,,,,,,,,,,,,,,,,,,,,,,,,,,,,,,,,,,,539.0442990769989,None,539.0442990769989,None,,,,,,,,,,,,,,,
﻿count,audio,trials_14.thisRepN,trials_14.thisTrialN,trials_14.thisN,trials_14.thisIndex,trials_3.thisRepN,trials_3.thisTrialN,trials_3.thisN,trials_3.thisIndex,trials_4.thisRepN,trials_4.thisTrialN,trials_4.thisN,trials_4.thisIndex,trials_6.thisRepN,trials_6.thisTrialN,trials_6.thisN,trials_6.thisIndex,trials_9.thisRepN,trials_9.thisTrialN,trials_9.thisN,trials_9.thisIndex,trials_10.thisRepN,trials_10.thisTrialN,trials_10.thisN,trials_10.thisIndex,trials_11.thisRepN,trials_11.thisTrialN,trials_11.thisN,trials_11.thisIndex,trials_12.thisRepN,trials_12.thisTrialN,trials_12.thisN,trials_12.thisIndex,trials_25.thisRepN,trials_25.thisTrialN,trials_25.thisN,trials_25.thisIndex,trials_15.thisRepN,trials_15.thisTrialN,trials_15.thisN,trials_15.thisIndex,trials_26.thisRepN,trials_26.thisTrialN,trials_26.thisN,trials_26.thisIndex,story_list_block2,action_list_block2,textTrigger.started,textTrigger.stopped,getTrigger.keys,getTrigger.rt,getTrigger.started,getTrigger.stopped,triggerTime,text_76.started,text_76.stopped,text_77.started,text_77.stopped,startWait,endWait,image_23.started,image_23.stopped,text_55.started,text_55.stopped,text_56.started,text_56.stopped,key_resp_2.keys,key_resp_2.rt,key_resp_2.started,key_resp_2.stopped,text_82.started,text_82.stopped,text_57.started,text_57.stopped,key_resp_17.keys,key_resp_17.rt,key_resp_17.started,key_resp_17.stopped,text_83.started,text_83.stopped,text_60.started,text_60.stopped,image_2.started,image_2.stopped,text_58.started,text_58.stopped,key_resp_23.keys,key_resp_23.rt,key_resp_23.started,key_resp_23.stopped,text_62.started,text_62.stopped,key_resp_18.keys,key_resp_18.rt,key_resp_18.started,key_resp_18.stopped,text_84.started,text_84.stopped,question1_2.started,question1_2.stopped,question2_2.started,question2_2.stopped,question3_2.started,question3_2.stopped,question4_2.started,question4_2.stopped,question5_2.started,question5_2.stopped,question6_2.started,question6_2.stopped,image_15.started,image_15.stopped,key_resp.keys,key_resp.started,key_resp.stopped,text_59.started,text_59.stopped,key_resp_19.keys,key_resp_19.rt,key_resp_19.started,key_resp_19.stopped,text_85.started,text_85.stopped,text_61.started,text_61.stopped,image_17.started,image_17.stopped,text_63.started,text_63.stopped,key_resp_24.keys,key_resp_24.rt,key_resp_24.started,key_resp_24.stopped,text_64.started,text_64.stopped,key_resp_20.keys,key_resp_20.rt,key_resp_20.started,key_resp_20.stopped,storyImage_StartTime,storyImage_EndTime,clip_StartTime,clip_EndTime,text_67.started,text_67.stopped,text_68.started,text_68.stopped,participant,sA,sB,lA,lB,block_struct,play_stories,block,behavioral,random_seed,date,expName,psychopyVersion,frameRate,
0,,,,,,,,,,0,0,0,0,0,0,0,0,0,0,0,0,0,0,0,0,0,0,0,0,,,,,,,,,,,,,,,,,[23 34 21 32 12 41 43 14],[1 1 3 3 2 2 4 4],13.626284842001041,None,equal,17.19480041299903,13.626284842001041,None,17.21330375999969,13.626284842001041,None,13.626284842001041,None,0.00033676000020932406,5.999537917003181,30.843592489000002,None,36.85637986200163,None,36.85637986200163,None,1,1.3948639529990032,36.85637986200163,None,36.85637986200163,None,38.27739148399996,None,1,0.9949003709989483,38.27739148399996,None,38.27739148399996,None,39.3100806500006,None,39.3100806500006,None,39.3100806500006,None,1,1.2520985139999539,39.3100806500006,None,40.594018693002,None,1,1.3562241550025647,40.594018693002,None,40.594018693002,None,42.057044573000894,None,42.057044573000894,None,42.057044573000894,None,42.057044573000894,None,42.057044573000894,None,42.057044573000894,None,42.057044573000894,None,None,42.057044573000894,None,,,,,,,,,,,,,,,,,,,,,,,,,,,,,,,,,111721,1,2,0,1,1,1,2,0,38,2021_Nov_17_1138,listening_fmri,3.2.4,60.225908102803444,
0,,,,,,,,,,0,0,0,0,0,0,0,0,0,0,0,0,0,0,0,0,,,,,,,,,,,,,,,,,,,,,,,,,,,,,,,,,,,,,,,,,,,,,,,,,,,,,,,,,,,,,,,,,,,,,,,,,,,,,,,,,,,,,,,,,,,69.00616087199887,None,6,1.6059552219994657,69.00616087199887,None,69.00616087199887,None,70.65594184600195,None,70.65594184600195,None,70.65594184600195,None,6,0.8371892110008048,70.65594184600195,None,,,,,,,,,,,,,,,111721,1,2,0,1,1,1,2,0,38,2021_Nov_17_1138,listening_fmri,3.2.4,60.225908102803444,
0,parcelated_audio/23/23_1.ogg,,,,,,,,,0,0,0,0,0,0,0,0,0,0,0,0,,,,,,,,,,,,,0,0,0,0,0,0,0,0,,,,,,,,,,,,,,,,,,,,,,,,,,,,,,,,,,,,,,,,,,,,,,,,,,,,,,,,,,,,,,,,,,,,,,,,,,,,,,,,,,,,,,,,,,,,,71.51096139400033,None,6,1.380296344999806,71.51096139400033,None,42.09492434300046,45.09948825200263,45.104821879001975,55.51137218200165,,,,,111721,1,2,0,1,1,1,2,0,38,2021_Nov_17_1138,listening_fmri,3.2.4,60.225908102803444,
0,parcelated_audio/23/23_2.ogg,,,,,,,,,0,0,0,0,0,0,0,0,0,0,0,0,,,,,,,,,,,,,0,0,0,0,0,1,1,1,,,,,,,,,,,,,,,,,,,,,,,,,,,,,,,,,,,,,,,,,,,,,,,,,,,,,,,,,,,,,,,,,,,,,,,,,,,,,,,,,,,,,,,,,,,,,,,,,,,,,55.51178263800102,62.38638967100269,,,,,111721,1,2,0,1,1,1,2,0,38,2021_Nov_17_1138,listening_fmri,3.2.4,60.225908102803444,
0,parcelated_audio/23/23_3.ogg,,,,,,,,,0,0,0,0,0,0,0,0,0,0,0,0,,,,,,,,,,,,,0,0,0,0,0,2,2,2,,,,,,,,,,,,,,,,,,,,,,,,,,,,,,,,,,,,,,,,,,,,,,,,,,,,,,,,,,,,,,,,,,,,,,,,,,,,,,,,,,,,,,,,,,,,,,,,,,,,,62.386732126000425,68.15550736300065,,,,,111721,1,2,0,1,1,1,2,0,38,2021_Nov_17_1138,listening_fmri,3.2.4,60.225908102803444,
0,parcelated_audio/23/23_4.ogg,,,,,,,,,0,0,0,0,0,0,0,0,0,0,0,0,,,,,,,,,,,,,0,0,0,0,0,3,3,3,,,,,,,,,,,,,,,,,,,,,,,,,,,,,,,,,,,,,,,,,,,,,,,,,,,,,,,,,,,,,,,,,,,,,,,,,,,,,,,,,,,,,,,,,,,,,,,,,,,,,68.15585107800143,79.42756241000097,,,,,111721,1,2,0,1,1,1,2,0,38,2021_Nov_17_1138,listening_fmri,3.2.4,60.225908102803444,
0,parcelated_audio/23/23_5.ogg,,,,,,,,,0,0,0,0,0,0,0,0,0,0,0,0,,,,,,,,,,,,,0,0,0,0,0,4,4,4,,,,,,,,,,,,,,,,,,,,,,,,,,,,,,,,,,,,,,,,,,,,,,,,,,,,,,,,,,,,,,,,,,,,,,,,,,,,,,,,,,,,,,,,,,,,,,,,,,,,,79.42797201800204,85.63551510900288,,,,,111721,1,2,0,1,1,1,2,0,38,2021_Nov_17_1138,listening_fmri,3.2.4,60.225908102803444,
0,parcelated_audio/23/23_6.ogg,,,,,,,,,0,0,0,0,0,0,0,0,0,0,0,0,,,,,,,,,,,,,0,0,0,0,0,5,5,5,,,,,,,,,,,,,,,,,,,,,,,,,,,,,,,,,,,,,,,,,,,,,,,,,,,,,,,,,,,,,,,,,,,,,,,,,,,,,,,,,,,,,,,,,,,,,,,,,,,,,85.63586442700034,93.04643482900065,,,,,111721,1,2,0,1,1,1,2,0,38,2021_Nov_17_1138,listening_fmri,3.2.4,60.225908102803444,
0,parcelated_audio/23/23_7.ogg,,,,,,,,,0,0,0,0,0,0,0,0,0,0,0,0,,,,,,,,,,,,,0,0,0,0,0,6,6,6,,,,,,,,,,,,,,,,,,,,,,,,,,,,,,,,,,,,,,,,,,,,,,,,,,,,,,,,,,,,,,,,,,,,,,,,,,,,,,,,,,,,,,,,,,,,,,,,,,,,,93.04723374800233,99.80553359600162,,,,,111721,1,2,0,1,1,1,2,0,38,2021_Nov_17_1138,listening_fmri,3.2.4,60.225908102803444,
0,parcelated_audio/23/23_8.ogg,,,,,,,,,0,0,0,0,0,0,0,0,0,0,0,0,,,,,,,,,,,,,0,0,0,0,0,7,7,7,,,,,,,,,,,,,,,,,,,,,,,,,,,,,,,,,,,,,,,,,,,,,,,,,,,,,,,,,,,,,,,,,,,,,,,,,,,,,,,,,,,,,,,,,,,,,,,,,,,,,99.80580589200326,105.21969135000109,,,,,111721,1,2,0,1,1,1,2,0,38,2021_Nov_17_1138,listening_fmri,3.2.4,60.225908102803444,
0,parcelated_audio/23/23_9.ogg,,,,,,,,,0,0,0,0,0,0,0,0,0,0,0,0,,,,,,,,,,,,,0,0,0,0,0,8,8,8,,,,,,,,,,,,,,,,,,,,,,,,,,,,,,,,,,,,,,,,,,,,,,,,,,,,,,,,,,,,,,,,,,,,,,,,,,,,,,,,,,,,,,,,,,,,,,,,,,,,,105.22004680500322,109.61320242900183,,,,,111721,1,2,0,1,1,1,2,0,38,2021_Nov_17_1138,listening_fmri,3.2.4,60.225908102803444,
0,parcelated_audio/23/23_10.ogg,,,,,,,,,0,0,0,0,0,0,0,0,0,0,0,0,,,,,,,,,,,,,0,0,0,0,0,9,9,9,,,,,,,,,,,,,,,,,,,,,,,,,,,,,,,,,,,,,,,,,,,,,,,,,,,,,,,,,,,,,,,,,,,,,,,,,,,,,,,,,,,,,,,,,,,,,,,,,,,,,109.613554794003,113.56761575700148,,,,,111721,1,2,0,1,1,1,2,0,38,2021_Nov_17_1138,listening_fmri,3.2.4,60.225908102803444,
0,parcelated_audio/23/23_11.ogg,,,,,,,,,0,0,0,0,0,0,0,0,0,0,0,0,,,,,,,,,,,,,0,0,0,0,0,10,10,10,,,,,,,,,,,,,,,,,,,,,,,,,,,,,,,,,,,,,,,,,,,,,,,,,,,,,,,,,,,,,,,,,,,,,,,,,,,,,,,,,,,,,,,,,,,,,,,,,,,,,113.56814942300116,121.69849227300074,,,,,111721,1,2,0,1,1,1,2,0,38,2021_Nov_17_1138,listening_fmri,3.2.4,60.225908102803444,
0,parcelated_audio/23/23_12.ogg,,,,,,,,,0,0,0,0,0,0,0,0,0,0,0,0,,,,,,,,,,,,,0,0,0,0,0,11,11,11,,,,,,,,,,,,,,,,,,,,,,,,,,,,,,,,,,,,,,,,,,,,,,,,,,,,,,,,,,,,,,,,,,,,,,,,,,,,,,,,,,,,,,,,,,,,,,,,,,,,,121.69890427100108,128.85448186800204,,,,,111721,1,2,0,1,1,1,2,0,38,2021_Nov_17_1138,listening_fmri,3.2.4,60.225908102803444,
0,parcelated_audio/23/23_13.ogg,,,,,,,,,0,0,0,0,0,0,0,0,0,0,0,0,,,,,,,,,,,,,0,0,0,0,0,12,12,12,,,,,,,,,,,,,,,,,,,,,,,,,,,,,,,,,,,,,,,,,,,,,,,,,,,,,,,,,,,,,,,,,,,,,,,,,,,,,,,,,,,,,,,,,,,,,,,,,,,,,128.85484119800094,135.64186824100034,,,,,111721,1,2,0,1,1,1,2,0,38,2021_Nov_17_1138,listening_fmri,3.2.4,60.225908102803444,
0,parcelated_audio/23/23_14.ogg,,,,,,,,,0,0,0,0,0,0,0,0,0,0,0,0,,,,,,,,,,,,,0,0,0,0,0,13,13,13,,,,,,,,,,,,,,,,,,,,,,,,,,,,,,,,,,,,,,,,,,,,,,,,,,,,,,,,,,,,,,,,,,,,,,,,,,,,,,,,,,,,,,,,,,,,,,,,,,,,,135.64240294900083,140.00205449799978,,,,,111721,1,2,0,1,1,1,2,0,38,2021_Nov_17_1138,listening_fmri,3.2.4,60.225908102803444,
0,parcelated_audio/23/23_15.ogg,,,,,,,,,0,0,0,0,0,0,0,0,0,0,0,0,,,,,,,,,,,,,0,0,0,0,0,14,14,14,,,,,,,,,,,,,,,,,,,,,,,,,,,,,,,,,,,,,,,,,,,,,,,,,,,,,,,,,,,,,,,,,,,,,,,,,,,,,,,,,,,,,,,,,,,,,,,,,,,,,140.0025533600019,144.4235349160008,,,,,111721,1,2,0,1,1,1,2,0,38,2021_Nov_17_1138,listening_fmri,3.2.4,60.225908102803444,
0,parcelated_audio/23/23_16.ogg,,,,,,,,,0,0,0,0,0,0,0,0,0,0,0,0,,,,,,,,,,,,,0,0,0,0,0,15,15,15,,,,,,,,,,,,,,,,,,,,,,,,,,,,,,,,,,,,,,,,,,,,,,,,,,,,,,,,,,,,,,,,,,,,,,,,,,,,,,,,,,,,,,,,,,,,,,,,,,,,,144.42389228899992,150.99640936100332,,,,,111721,1,2,0,1,1,1,2,0,38,2021_Nov_17_1138,listening_fmri,3.2.4,60.225908102803444,
0,parcelated_audio/23/23_17.ogg,,,,,,,,,0,0,0,0,0,0,0,0,0,0,0,0,,,,,,,,,,,,,0,0,0,0,0,16,16,16,,,,,,,,,,,,,,,,,,,,,,,,,,,,,,,,,,,,,,,,,,,,,,,,,,,,,,,,,,,,,,,,,,,,,,,,,,,,,,,,,,,,,,,,,,,,,,,,,,,,,150.99676413900306,157.75244850000308,,,,,111721,1,2,0,1,1,1,2,0,38,2021_Nov_17_1138,listening_fmri,3.2.4,60.225908102803444,
0,parcelated_audio/23/23_18.ogg,,,,,,,,,0,0,0,0,0,0,0,0,0,0,0,0,,,,,,,,,,,,,0,0,0,0,0,17,17,17,,,,,,,,,,,,,,,,,,,,,,,,,,,,,,,,,,,,,,,,,,,,,,,,,,,,,,,,,,,,,,,,,,,,,,,,,,,,,,,,,,,,,,,,,,,,,,,,,,,,,157.75281738000194,169.73326142400037,,,,,111721,1,2,0,1,1,1,2,0,38,2021_Nov_17_1138,listening_fmri,3.2.4,60.225908102803444,
0,parcelated_audio/23/23_19.ogg,,,,,,,,,0,0,0,0,0,0,0,0,0,0,0,0,,,,,,,,,,,,,0,0,0,0,0,18,18,18,,,,,,,,,,,,,,,,,,,,,,,,,,,,,,,,,,,,,,,,,,,,,,,,,,,,,,,,,,,,,,,,,,,,,,,,,,,,,,,,,,,,,,,,,,,,,,,,,,,,,169.73361044400008,175.49773683400053,,,,,111721,1,2,0,1,1,1,2,0,38,2021_Nov_17_1138,listening_fmri,3.2.4,60.225908102803444,
0,parcelated_audio/23/23_20.ogg,,,,,,,,,0,0,0,0,0,0,0,0,0,0,0,0,,,,,,,,,,,,,0,0,0,0,0,19,19,19,,,,,,,,,,,,,,,,,,,,,,,,,,,,,,,,,,,,,,,,,,,,,,,,,,,,,,,,,,,,,,,,,,,,,,,,,,,,,,,,,,,,,,,,,,,,,,,,,,,,,175.4982115180028,178.46642474000328,,,,,111721,1,2,0,1,1,1,2,0,38,2021_Nov_17_1138,listening_fmri,3.2.4,60.225908102803444,
0,parcelated_audio/23/23_21.ogg,,,,,,,,,0,0,0,0,0,0,0,0,0,0,0,0,,,,,,,,,,,,,0,0,0,0,0,20,20,20,,,,,,,,,,,,,,,,,,,,,,,,,,,,,,,,,,,,,,,,,,,,,,,,,,,,,,,,,,,,,,,,,,,,,,,,,,,,,,,,,,,,,,,,,,,,,,,,,,,,,178.4667989380032,186.13175724500252,,,,,111721,1,2,0,1,1,1,2,0,38,2021_Nov_17_1138,listening_fmri,3.2.4,60.225908102803444,
0,parcelated_audio/23/23_22.ogg,,,,,,,,,0,0,0,0,0,0,0,0,0,0,0,0,,,,,,,,,,,,,0,0,0,0,0,21,21,21,,,,,,,,,,,,,,,,,,,,,,,,,,,,,,,,,,,,,,,,,,,,,,,,,,,,,,,,,,,,,,,,,,,,,,,,,,,,,,,,,,,,,,,,,,,,,,,,,,,,,186.13210745700053,188.78751604500212,,,,,111721,1,2,0,1,1,1,2,0,38,2021_Nov_17_1138,listening_fmri,3.2.4,60.225908102803444,
0,parcelated_audio/23/23_23.ogg,,,,,,,,,0,0,0,0,0,0,0,0,0,0,0,0,,,,,,,,,,,,,0,0,0,0,0,22,22,22,,,,,,,,,,,,,,,,,,,,,,,,,,,,,,,,,,,,,,,,,,,,,,,,,,,,,,,,,,,,,,,,,,,,,,,,,,,,,,,,,,,,,,,,,,,,,,,,,,,,,188.7880291649999,192.94355535900104,,,,,111721,1,2,0,1,1,1,2,0,38,2021_Nov_17_1138,listening_fmri,3.2.4,60.225908102803444,
0,parcelated_audio/23/23_24.ogg,,,,,,,,,0,0,0,0,0,0,0,0,0,0,0,0,,,,,,,,,,,,,0,0,0,0,0,23,23,23,,,,,,,,,,,,,,,,,,,,,,,,,,,,,,,,,,,,,,,,,,,,,,,,,,,,,,,,,,,,,,,,,,,,,,,,,,,,,,,,,,,,,,,,,,,,,,,,,,,,,192.94390135700087,196.39156426600312,,,,,111721,1,2,0,1,1,1,2,0,38,2021_Nov_17_1138,listening_fmri,3.2.4,60.225908102803444,
0,parcelated_audio/23/23_25.ogg,,,,,,,,,0,0,0,0,0,0,0,0,0,0,0,0,,,,,,,,,,,,,0,0,0,0,0,24,24,24,,,,,,,,,,,,,,,,,,,,,,,,,,,,,,,,,,,,,,,,,,,,,,,,,,,,,,,,,,,,,,,,,,,,,,,,,,,,,,,,,,,,,,,,,,,,,,,,,,,,,196.39215409900135,200.53760425400105,,,,,111721,1,2,0,1,1,1,2,0,38,2021_Nov_17_1138,listening_fmri,3.2.4,60.225908102803444,
0,parcelated_audio/23/23_26.ogg,,,,,,,,,0,0,0,0,0,0,0,0,0,0,0,0,,,,,,,,,,,,,0,0,0,0,0,25,25,25,,,,,,,,,,,,,,,,,,,,,,,,,,,,,,,,,,,,,,,,,,,,,,,,,,,,,,,,,,,,,,,,,,,,,,,,,,,,,,,,,,,,,,,,,,,,,,,,,,,,,200.53795710800114,206.76604781600327,,,,,111721,1,2,0,1,1,1,2,0,38,2021_Nov_17_1138,listening_fmri,3.2.4,60.225908102803444,
0,parcelated_audio/23/23_27.ogg,,,,,,,,,0,0,0,0,0,0,0,0,0,0,0,0,,,,,,,,,,,,,0,0,0,0,0,26,26,26,,,,,,,,,,,,,,,,,,,,,,,,,,,,,,,,,,,,,,,,,,,,,,,,,,,,,,,,,,,,,,,,,,,,,,,,,,,,,,,,,,,,,,,,,,,,,,,,,,,,,206.76651547400252,212.04372737400263,,,,,111721,1,2,0,1,1,1,2,0,38,2021_Nov_17_1138,listening_fmri,3.2.4,60.225908102803444,
0,parcelated_audio/23/23_28.ogg,,,,,,,,,0,0,0,0,0,0,0,0,0,0,0,0,,,,,,,,,,,,,0,0,0,0,0,27,27,27,,,,,,,,,,,,,,,,,,,,,,,,,,,,,,,,,,,,,,,,,,,,,,,,,,,,,,,,,,,,,,,,,,,,,,,,,,,,,,,,,,,,,,,,,,,,,,,,,,,,,212.04418096100198,220.00136345600185,,,,,111721,1,2,0,1,1,1,2,0,38,2021_Nov_17_1138,listening_fmri,3.2.4,60.225908102803444,
0,parcelated_audio/23/23_29.ogg,,,,,,,,,0,0,0,0,0,0,0,0,0,0,0,0,,,,,,,,,,,,,0,0,0,0,0,28,28,28,,,,,,,,,,,,,,,,,,,,,,,,,,,,,,,,,,,,,,,,,,,,,,,,,,,,,,,,,,,,,,,,,,,,,,,,,,,,,,,,,,,,,,,,,,,,,,,,,,,,,220.00170677700225,223.76412926500052,,,,,111721,1,2,0,1,1,1,2,0,38,2021_Nov_17_1138,listening_fmri,3.2.4,60.225908102803444,
0,parcelated_audio/23/23_30.ogg,,,,,,,,,0,0,0,0,0,0,0,0,0,0,0,0,,,,,,,,,,,,,0,0,0,0,0,29,29,29,,,,,,,,,,,,,,,,,,,,,,,,,,,,,,,,,,,,,,,,,,,,,,,,,,,,,,,,,,,,,,,,,,,,,,,,,,,,,,,,,,,,,,,,,,,,,,,,,,,,,223.76450658500107,229.68763088900232,,,,,111721,1,2,0,1,1,1,2,0,38,2021_Nov_17_1138,listening_fmri,3.2.4,60.225908102803444,
0,parcelated_audio/23/23_31.ogg,,,,,,,,,0,0,0,0,0,0,0,0,0,0,0,0,,,,,,,,,,,,,0,0,0,0,0,30,30,30,,,,,,,,,,,,,,,,,,,,,,,,,,,,,,,,,,,,,,,,,,,,,,,,,,,,,,,,,,,,,,,,,,,,,,,,,,,,,,,,,,,,,,,,,,,,,,,,,,,,,229.68806189700263,231.70360423500097,,,,,111721,1,2,0,1,1,1,2,0,38,2021_Nov_17_1138,listening_fmri,3.2.4,60.225908102803444,
0,parcelated_audio/23/23_32.ogg,,,,,,,,,0,0,0,0,0,0,0,0,0,0,0,0,,,,,,,,,,,,,0,0,0,0,0,31,31,31,,,,,,,,,,,,,,,,,,,,,,,,,,,,,,,,,,,,,,,,,,,,,,,,,,,,,,,,,,,,,,,,,,,,,,,,,,,,,,,,,,,,,,,,,,,,,,,,,,,,,231.70395018400086,235.31945660800193,,,,,111721,1,2,0,1,1,1,2,0,38,2021_Nov_17_1138,listening_fmri,3.2.4,60.225908102803444,
0,parcelated_audio/23/23_33.ogg,,,,,,,,,0,0,0,0,0,0,0,0,0,0,0,0,,,,,,,,,,,,,0,0,0,0,0,32,32,32,,,,,,,,,,,,,,,,,,,,,,,,,,,,,,,,,,,,,,,,,,,,,,,,,,,,,,,,,,,,,,,,,,,,,,,,,,,,,,,,,,,,,,,,,,,,,,,,,,,,,235.31993626700205,241.37580615800107,,,,,111721,1,2,0,1,1,1,2,0,38,2021_Nov_17_1138,listening_fmri,3.2.4,60.225908102803444,
0,parcelated_audio/23/23_34.ogg,,,,,,,,,0,0,0,0,0,0,0,0,0,0,0,0,,,,,,,,,,,,,0,0,0,0,0,33,33,33,,,,,,,,,,,,,,,,,,,,,,,,,,,,,,,,,,,,,,,,,,,,,,,,,,,,,,,,,,,,,,,,,,,,,,,,,,,,,,,,,,,,,,,,,,,,,,,,,,,,,241.37614723000297,244.91429759099992,,,,,111721,1,2,0,1,1,1,2,0,38,2021_Nov_17_1138,listening_fmri,3.2.4,60.225908102803444,
0,parcelated_audio/23/23_35.ogg,,,,,,,,,0,0,0,0,0,0,0,0,0,0,0,0,,,,,,,,,,,,,0,0,0,0,0,34,34,34,,,,,,,,,,,,,,,,,,,,,,,,,,,,,,,,,,,,,,,,,,,,,,,,,,,,,,,,,,,,,,,,,,,,,,,,,,,,,,,,,,,,,,,,,,,,,,,,,,,,,244.9146464990008,249.19558900600168,,,,,111721,1,2,0,1,1,1,2,0,38,2021_Nov_17_1138,listening_fmri,3.2.4,60.225908102803444,
0,parcelated_audio/23/23_36.ogg,,,,,,,,,0,0,0,0,0,0,0,0,0,0,0,0,,,,,,,,,,,,,0,0,0,0,0,35,35,35,,,,,,,,,,,,,,,,,,,,,,,,,,,,,,,,,,,,,,,,,,,,,,,,,,,,,,,,,,,,,,,,,,,,,,,,,,,,,,,,,,,,,,,,,,,,,,,,,,,,,249.1960450530023,253.8215672510014,,,,,111721,1,2,0,1,1,1,2,0,38,2021_Nov_17_1138,listening_fmri,3.2.4,60.225908102803444,
0,parcelated_audio/23/23_37.ogg,,,,,,,,,0,0,0,0,0,0,0,0,0,0,0,0,,,,,,,,,,,,,0,0,0,0,0,36,36,36,,,,,,,,,,,,,,,,,,,,,,,,,,,,,,,,,,,,,,,,,,,,,,,,,,,,,,,,,,,,,,,,,,,,,,,,,,,,,,,,,,,,,,,,,,,,,,,,,,,,,253.82184025800234,258.62375470700135,,,,,111721,1,2,0,1,1,1,2,0,38,2021_Nov_17_1138,listening_fmri,3.2.4,60.225908102803444,
0,parcelated_audio/23/23_38.ogg,,,,,,,,,0,0,0,0,0,0,0,0,0,0,0,0,,,,,,,,,,,,,0,0,0,0,0,37,37,37,,,,,,,,,,,,,,,,,,,,,,,,,,,,,,,,,,,,,,,,,,,,,,,,,,,,,,,,,,,,,,,,,,,,,,,,,,,,,,,,,,,,,,,,,,,,,,,,,,,,,258.62426048600173,266.11954845700166,,,,,111721,1,2,0,1,1,1,2,0,38,2021_Nov_17_1138,listening_fmri,3.2.4,60.225908102803444,
0,parcelated_audio/23/23_39.ogg,,,,,,,,,0,0,0,0,0,0,0,0,0,0,0,0,,,,,,,,,,,,,0,0,0,0,0,38,38,38,,,,,,,,,,,,,,,,,,,,,,,,,,,,,,,,,,,,,,,,,,,,,,,,,,,,,,,,,,,,,,,,,,,,,,,,,,,,,,,,,,,,,,,,,,,,,,,,,,,,,266.11989669000104,272.3916999080029,,,,,111721,1,2,0,1,1,1,2,0,38,2021_Nov_17_1138,listening_fmri,3.2.4,60.225908102803444,
0,,,,,,,,,,0,0,0,0,0,0,0,0,0,0,0,0,,,,,,,,,,,,,0,0,0,0,,,,,,,,,,,,,,,,,,,,,,,,,,,,,,,,,,,,,,,,,,,,,,,,,,,,,,,,,,,,,,,,,,,,,,,,,,,,,,,,,,,,,,,,,,,,,,,,,,,,,,,,,,,,,,,111721,1,2,0,1,1,1,2,0,38,2021_Nov_17_1138,listening_fmri,3.2.4,60.225908102803444,
0,,,,,,,,,,0,0,0,0,0,0,0,0,0,0,0,0,,,,,,,,,,,,,,,,,,,,,,,,,,,,,,,,,,,,,,272.392201941002,278.3833246180002,303.2272897740004,None,,,,,,,,,,,,,,,,,,,,,,,,,,,,,,,,,,,,,,,,,,,,,,,,,,,,,,,,,,,,,,,,,,,,,,,,,,,,,,,,,,309.23706980600036,None,309.23706980600036,None,111721,1,2,0,1,1,1,2,0,38,2021_Nov_17_1138,listening_fmri,3.2.4,60.225908102803444,
0,,,,,,,,,,0,0,0,0,0,0,0,0,,,,,,,,,,,,,,,,,,,,,,,,,,,,,,,,,,,,,,,,,,,,,,,,,,,,,,,,,,,,,,,,,,,,,,,,,,,,,,,,,,,,,,,,,,,,,,,,,,,,,,,,,,,,,,,,,,,,,,,,,,,,,,,,,,,111721,1,2,0,1,1,1,2,0,38,2021_Nov_17_1138,listening_fmri,3.2.4,60.225908102803444,
1,,,,,,,,,,0,0,0,0,0,1,1,1,0,0,0,0,0,0,0,0,0,0,0,0,,,,,,,,,,,,,,,,,,,,,,,,,,,,,,,,,,310.2440534490015,None,310.2440534490015,None,1,0.7901881769976171,310.2440534490015,None,310.2440534490015,None,311.0610917660015,None,1,0.7640077100004419,311.0610917660015,None,311.0610917660015,None,311.86020560900215,None,311.86020560900215,None,311.86020560900215,None,1,0.7348689600003127,311.86020560900215,None,312.61059690600086,None,1,0.9886594749987125,312.61059690600086,None,312.61059690600086,None,313.7033287660015,None,313.7033287660015,None,313.7033287660015,None,313.7033287660015,None,313.7033287660015,None,313.7033287660015,None,313.7033287660015,None,None,313.7033287660015,None,,,,,,,,,,,,,,,,,,,,,,,,,,,,,,,,,111721,1,2,0,1,1,1,2,0,38,2021_Nov_17_1138,listening_fmri,3.2.4,60.225908102803444,
1,,,,,,,,,,0,0,0,0,0,1,1,1,0,0,0,0,0,0,0,0,,,,,,,,,,,,,,,,,,,,,,,,,,,,,,,,,,,,,,,,,,,,,,,,,,,,,,,,,,,,,,,,,,,,,,,,,,,,,,,,,,,,,,,,,,,338.9441622080012,None,1,1.1839294580022397,338.9441622080012,None,338.9441622080012,None,340.16846968900063,None,340.16846968900063,None,340.16846968900063,None,1,0.6807638350001071,340.16846968900063,None,,,,,,,,,,,,,,,111721,1,2,0,1,1,1,2,0,38,2021_Nov_17_1138,listening_fmri,3.2.4,60.225908102803444,
1,parcelated_audio/34/34_1.ogg,,,,,,,,,0,0,0,0,0,1,1,1,0,0,0,0,,,,,,,,,,,,,0,0,0,0,0,0,0,0,,,,,,,,,,,,,,,,,,,,,,,,,,,,,,,,,,,,,,,,,,,,,,,,,,,,,,,,,,,,,,,,,,,,,,,,,,,,,,,,,,,,,,,,,,,,,340.88597312099955,None,1,0.9602897730001132,340.88597312099955,None,311.0320188000005,314.0330101630025,314.0531524750004,322.7455827210033,,,,,111721,1,2,0,1,1,1,2,0,38,2021_Nov_17_1138,listening_fmri,3.2.4,60.225908102803444,
1,parcelated_audio/34/34_2.ogg,,,,,,,,,0,0,0,0,0,1,1,1,0,0,0,0,,,,,,,,,,,,,0,0,0,0,0,1,1,1,,,,,,,,,,,,,,,,,,,,,,,,,,,,,,,,,,,,,,,,,,,,,,,,,,,,,,,,,,,,,,,,,,,,,,,,,,,,,,,,,,,,,,,,,,,,,,,,,,,,,322.74593821200324,327.29540857900065,,,,,111721,1,2,0,1,1,1,2,0,38,2021_Nov_17_1138,listening_fmri,3.2.4,60.225908102803444,
1,parcelated_audio/34/34_3.ogg,,,,,,,,,0,0,0,0,0,1,1,1,0,0,0,0,,,,,,,,,,,,,0,0,0,0,0,2,2,2,,,,,,,,,,,,,,,,,,,,,,,,,,,,,,,,,,,,,,,,,,,,,,,,,,,,,,,,,,,,,,,,,,,,,,,,,,,,,,,,,,,,,,,,,,,,,,,,,,,,,327.29575600700264,331.9377732050016,,,,,111721,1,2,0,1,1,1,2,0,38,2021_Nov_17_1138,listening_fmri,3.2.4,60.225908102803444,
1,parcelated_audio/34/34_4.ogg,,,,,,,,,0,0,0,0,0,1,1,1,0,0,0,0,,,,,,,,,,,,,0,0,0,0,0,3,3,3,,,,,,,,,,,,,,,,,,,,,,,,,,,,,,,,,,,,,,,,,,,,,,,,,,,,,,,,,,,,,,,,,,,,,,,,,,,,,,,,,,,,,,,,,,,,,,,,,,,,,331.938480443001,341.5556662070012,,,,,111721,1,2,0,1,1,1,2,0,38,2021_Nov_17_1138,listening_fmri,3.2.4,60.225908102803444,
1,parcelated_audio/34/34_5.ogg,,,,,,,,,0,0,0,0,0,1,1,1,0,0,0,0,,,,,,,,,,,,,0,0,0,0,0,4,4,4,,,,,,,,,,,,,,,,,,,,,,,,,,,,,,,,,,,,,,,,,,,,,,,,,,,,,,,,,,,,,,,,,,,,,,,,,,,,,,,,,,,,,,,,,,,,,,,,,,,,,341.55602325900327,351.97445118500036,,,,,111721,1,2,0,1,1,1,2,0,38,2021_Nov_17_1138,listening_fmri,3.2.4,60.225908102803444,
1,parcelated_audio/34/34_6.ogg,,,,,,,,,0,0,0,0,0,1,1,1,0,0,0,0,,,,,,,,,,,,,0,0,0,0,0,5,5,5,,,,,,,,,,,,,,,,,,,,,,,,,,,,,,,,,,,,,,,,,,,,,,,,,,,,,,,,,,,,,,,,,,,,,,,,,,,,,,,,,,,,,,,,,,,,,,,,,,,,,351.97546233200046,360.6935609510001,,,,,111721,1,2,0,1,1,1,2,0,38,2021_Nov_17_1138,listening_fmri,3.2.4,60.225908102803444,
1,parcelated_audio/34/34_7.ogg,,,,,,,,,0,0,0,0,0,1,1,1,0,0,0,0,,,,,,,,,,,,,0,0,0,0,0,6,6,6,,,,,,,,,,,,,,,,,,,,,,,,,,,,,,,,,,,,,,,,,,,,,,,,,,,,,,,,,,,,,,,,,,,,,,,,,,,,,,,,,,,,,,,,,,,,,,,,,,,,,360.693835768001,366.69565661600063,,,,,111721,1,2,0,1,1,1,2,0,38,2021_Nov_17_1138,listening_fmri,3.2.4,60.225908102803444,
1,parcelated_audio/34/34_8.ogg,,,,,,,,,0,0,0,0,0,1,1,1,0,0,0,0,,,,,,,,,,,,,0,0,0,0,0,7,7,7,,,,,,,,,,,,,,,,,,,,,,,,,,,,,,,,,,,,,,,,,,,,,,,,,,,,,,,,,,,,,,,,,,,,,,,,,,,,,,,,,,,,,,,,,,,,,,,,,,,,,366.6960117939998,374.66359384300085,,,,,111721,1,2,0,1,1,1,2,0,38,2021_Nov_17_1138,listening_fmri,3.2.4,60.225908102803444,
1,parcelated_audio/34/34_9.ogg,,,,,,,,,0,0,0,0,0,1,1,1,0,0,0,0,,,,,,,,,,,,,0,0,0,0,0,8,8,8,,,,,,,,,,,,,,,,,,,,,,,,,,,,,,,,,,,,,,,,,,,,,,,,,,,,,,,,,,,,,,,,,,,,,,,,,,,,,,,,,,,,,,,,,,,,,,,,,,,,,374.6640554450023,379.4449789520004,,,,,111721,1,2,0,1,1,1,2,0,38,2021_Nov_17_1138,listening_fmri,3.2.4,60.225908102803444,
1,parcelated_audio/34/34_10.ogg,,,,,,,,,0,0,0,0,0,1,1,1,0,0,0,0,,,,,,,,,,,,,0,0,0,0,0,9,9,9,,,,,,,,,,,,,,,,,,,,,,,,,,,,,,,,,,,,,,,,,,,,,,,,,,,,,,,,,,,,,,,,,,,,,,,,,,,,,,,,,,,,,,,,,,,,,,,,,,,,,379.4452841670027,386.5623558799998,,,,,111721,1,2,0,1,1,1,2,0,38,2021_Nov_17_1138,listening_fmri,3.2.4,60.225908102803444,
1,parcelated_audio/34/34_11.ogg,,,,,,,,,0,0,0,0,0,1,1,1,0,0,0,0,,,,,,,,,,,,,0,0,0,0,0,10,10,10,,,,,,,,,,,,,,,,,,,,,,,,,,,,,,,,,,,,,,,,,,,,,,,,,,,,,,,,,,,,,,,,,,,,,,,,,,,,,,,,,,,,,,,,,,,,,,,,,,,,,386.5627128470005,390.00773719500285,,,,,111721,1,2,0,1,1,1,2,0,38,2021_Nov_17_1138,listening_fmri,3.2.4,60.225908102803444,
1,parcelated_audio/34/34_12.ogg,,,,,,,,,0,0,0,0,0,1,1,1,0,0,0,0,,,,,,,,,,,,,0,0,0,0,0,11,11,11,,,,,,,,,,,,,,,,,,,,,,,,,,,,,,,,,,,,,,,,,,,,,,,,,,,,,,,,,,,,,,,,,,,,,,,,,,,,,,,,,,,,,,,,,,,,,,,,,,,,,390.00808243100255,398.16751275200295,,,,,111721,1,2,0,1,1,1,2,0,38,2021_Nov_17_1138,listening_fmri,3.2.4,60.225908102803444,
1,parcelated_audio/34/34_13.ogg,,,,,,,,,0,0,0,0,0,1,1,1,0,0,0,0,,,,,,,,,,,,,0,0,0,0,0,12,12,12,,,,,,,,,,,,,,,,,,,,,,,,,,,,,,,,,,,,,,,,,,,,,,,,,,,,,,,,,,,,,,,,,,,,,,,,,,,,,,,,,,,,,,,,,,,,,,,,,,,,,398.1681620690033,402.06049503300164,,,,,111721,1,2,0,1,1,1,2,0,38,2021_Nov_17_1138,listening_fmri,3.2.4,60.225908102803444,
1,parcelated_audio/34/34_14.ogg,,,,,,,,,0,0,0,0,0,1,1,1,0,0,0,0,,,,,,,,,,,,,0,0,0,0,0,13,13,13,,,,,,,,,,,,,,,,,,,,,,,,,,,,,,,,,,,,,,,,,,,,,,,,,,,,,,,,,,,,,,,,,,,,,,,,,,,,,,,,,,,,,,,,,,,,,,,,,,,,,402.0608550020006,406.71159401600016,,,,,111721,1,2,0,1,1,1,2,0,38,2021_Nov_17_1138,listening_fmri,3.2.4,60.225908102803444,
1,parcelated_audio/34/34_15.ogg,,,,,,,,,0,0,0,0,0,1,1,1,0,0,0,0,,,,,,,,,,,,,0,0,0,0,0,14,14,14,,,,,,,,,,,,,,,,,,,,,,,,,,,,,,,,,,,,,,,,,,,,,,,,,,,,,,,,,,,,,,,,,,,,,,,,,,,,,,,,,,,,,,,,,,,,,,,,,,,,,406.7119449359998,410.90347134600233,,,,,111721,1,2,0,1,1,1,2,0,38,2021_Nov_17_1138,listening_fmri,3.2.4,60.225908102803444,
1,parcelated_audio/34/34_16.ogg,,,,,,,,,0,0,0,0,0,1,1,1,0,0,0,0,,,,,,,,,,,,,0,0,0,0,0,15,15,15,,,,,,,,,,,,,,,,,,,,,,,,,,,,,,,,,,,,,,,,,,,,,,,,,,,,,,,,,,,,,,,,,,,,,,,,,,,,,,,,,,,,,,,,,,,,,,,,,,,,,410.9045443840005,423.91147431900026,,,,,111721,1,2,0,1,1,1,2,0,38,2021_Nov_17_1138,listening_fmri,3.2.4,60.225908102803444,
1,parcelated_audio/34/34_17.ogg,,,,,,,,,0,0,0,0,0,1,1,1,0,0,0,0,,,,,,,,,,,,,0,0,0,0,0,16,16,16,,,,,,,,,,,,,,,,,,,,,,,,,,,,,,,,,,,,,,,,,,,,,,,,,,,,,,,,,,,,,,,,,,,,,,,,,,,,,,,,,,,,,,,,,,,,,,,,,,,,,423.9118220160017,432.84065024400115,,,,,111721,1,2,0,1,1,1,2,0,38,2021_Nov_17_1138,listening_fmri,3.2.4,60.225908102803444,
1,parcelated_audio/34/34_18.ogg,,,,,,,,,0,0,0,0,0,1,1,1,0,0,0,0,,,,,,,,,,,,,0,0,0,0,0,17,17,17,,,,,,,,,,,,,,,,,,,,,,,,,,,,,,,,,,,,,,,,,,,,,,,,,,,,,,,,,,,,,,,,,,,,,,,,,,,,,,,,,,,,,,,,,,,,,,,,,,,,,432.840904744,438.72153634700226,,,,,111721,1,2,0,1,1,1,2,0,38,2021_Nov_17_1138,listening_fmri,3.2.4,60.225908102803444,
1,parcelated_audio/34/34_19.ogg,,,,,,,,,0,0,0,0,0,1,1,1,0,0,0,0,,,,,,,,,,,,,0,0,0,0,0,18,18,18,,,,,,,,,,,,,,,,,,,,,,,,,,,,,,,,,,,,,,,,,,,,,,,,,,,,,,,,,,,,,,,,,,,,,,,,,,,,,,,,,,,,,,,,,,,,,,,,,,,,,438.7220109780028,444.94893487599984,,,,,111721,1,2,0,1,1,1,2,0,38,2021_Nov_17_1138,listening_fmri,3.2.4,60.225908102803444,
1,parcelated_audio/34/34_20.ogg,,,,,,,,,0,0,0,0,0,1,1,1,0,0,0,0,,,,,,,,,,,,,0,0,0,0,0,19,19,19,,,,,,,,,,,,,,,,,,,,,,,,,,,,,,,,,,,,,,,,,,,,,,,,,,,,,,,,,,,,,,,,,,,,,,,,,,,,,,,,,,,,,,,,,,,,,,,,,,,,,444.9492839960003,453.4046844330005,,,,,111721,1,2,0,1,1,1,2,0,38,2021_Nov_17_1138,listening_fmri,3.2.4,60.225908102803444,
1,parcelated_audio/34/34_21.ogg,,,,,,,,,0,0,0,0,0,1,1,1,0,0,0,0,,,,,,,,,,,,,0,0,0,0,0,20,20,20,,,,,,,,,,,,,,,,,,,,,,,,,,,,,,,,,,,,,,,,,,,,,,,,,,,,,,,,,,,,,,,,,,,,,,,,,,,,,,,,,,,,,,,,,,,,,,,,,,,,,453.405035638003,459.76757924900085,,,,,111721,1,2,0,1,1,1,2,0,38,2021_Nov_17_1138,listening_fmri,3.2.4,60.225908102803444,
1,parcelated_audio/34/34_22.ogg,,,,,,,,,0,0,0,0,0,1,1,1,0,0,0,0,,,,,,,,,,,,,0,0,0,0,0,21,21,21,,,,,,,,,,,,,,,,,,,,,,,,,,,,,,,,,,,,,,,,,,,,,,,,,,,,,,,,,,,,,,,,,,,,,,,,,,,,,,,,,,,,,,,,,,,,,,,,,,,,,459.76794541800336,464.892671935002,,,,,111721,1,2,0,1,1,1,2,0,38,2021_Nov_17_1138,listening_fmri,3.2.4,60.225908102803444,
1,parcelated_audio/34/34_23.ogg,,,,,,,,,0,0,0,0,0,1,1,1,0,0,0,0,,,,,,,,,,,,,0,0,0,0,0,22,22,22,,,,,,,,,,,,,,,,,,,,,,,,,,,,,,,,,,,,,,,,,,,,,,,,,,,,,,,,,,,,,,,,,,,,,,,,,,,,,,,,,,,,,,,,,,,,,,,,,,,,,464.8930228980025,472.6762693580022,,,,,111721,1,2,0,1,1,1,2,0,38,2021_Nov_17_1138,listening_fmri,3.2.4,60.225908102803444,
1,parcelated_audio/34/34_24.ogg,,,,,,,,,0,0,0,0,0,1,1,1,0,0,0,0,,,,,,,,,,,,,0,0,0,0,0,23,23,23,,,,,,,,,,,,,,,,,,,,,,,,,,,,,,,,,,,,,,,,,,,,,,,,,,,,,,,,,,,,,,,,,,,,,,,,,,,,,,,,,,,,,,,,,,,,,,,,,,,,,472.67662582600315,478.4760133270029,,,,,111721,1,2,0,1,1,1,2,0,38,2021_Nov_17_1138,listening_fmri,3.2.4,60.225908102803444,
1,parcelated_audio/34/34_25.ogg,,,,,,,,,0,0,0,0,0,1,1,1,0,0,0,0,,,,,,,,,,,,,0,0,0,0,0,24,24,24,,,,,,,,,,,,,,,,,,,,,,,,,,,,,,,,,,,,,,,,,,,,,,,,,,,,,,,,,,,,,,,,,,,,,,,,,,,,,,,,,,,,,,,,,,,,,,,,,,,,,478.476385836002,485.04047492500104,,,,,111721,1,2,0,1,1,1,2,0,38,2021_Nov_17_1138,listening_fmri,3.2.4,60.225908102803444,
1,parcelated_audio/34/34_26.ogg,,,,,,,,,0,0,0,0,0,1,1,1,0,0,0,0,,,,,,,,,,,,,0,0,0,0,0,25,25,25,,,,,,,,,,,,,,,,,,,,,,,,,,,,,,,,,,,,,,,,,,,,,,,,,,,,,,,,,,,,,,,,,,,,,,,,,,,,,,,,,,,,,,,,,,,,,,,,,,,,,485.0409360130034,494.7010195410003,,,,,111721,1,2,0,1,1,1,2,0,38,2021_Nov_17_1138,listening_fmri,3.2.4,60.225908102803444,
1,parcelated_audio/34/34_27.ogg,,,,,,,,,0,0,0,0,0,1,1,1,0,0,0,0,,,,,,,,,,,,,0,0,0,0,0,26,26,26,,,,,,,,,,,,,,,,,,,,,,,,,,,,,,,,,,,,,,,,,,,,,,,,,,,,,,,,,,,,,,,,,,,,,,,,,,,,,,,,,,,,,,,,,,,,,,,,,,,,,494.70155321700076,502.20240998400186,,,,,111721,1,2,0,1,1,1,2,0,38,2021_Nov_17_1138,listening_fmri,3.2.4,60.225908102803444,
1,,,,,,,,,,0,0,0,0,0,1,1,1,0,0,0,0,,,,,,,,,,,,,0,0,0,0,,,,,,,,,,,,,,,,,,,,,,,,,,,,,,,,,,,,,,,,,,,,,,,,,,,,,,,,,,,,,,,,,,,,,,,,,,,,,,,,,,,,,,,,,,,,,,,,,,,,,,,,,,,,,,,111721,1,2,0,1,1,1,2,0,38,2021_Nov_17_1138,listening_fmri,3.2.4,60.225908102803444,
1,,,,,,,,,,0,0,0,0,0,1,1,1,0,0,0,0,,,,,,,,,,,,,,,,,,,,,,,,,,,,,,,,,,,,,,502.2029009720027,508.2001887510014,533.0334513790003,None,,,,,,,,,,,,,,,,,,,,,,,,,,,,,,,,,,,,,,,,,,,,,,,,,,,,,,,,,,,,,,,,,,,,,,,,,,,,,,,,,,539.0442990769989,None,539.0442990769989,None,111721,1,2,0,1,1,1,2,0,38,2021_Nov_17_1138,listening_fmri,3.2.4,60.225908102803444,
1,,,,,,,,,,0,0,0,0,0,1,1,1,,,,,,,,,,,,,,,,,,,,,,,,,,,,,,,,,,,,,,,,,,,,,,,,,,,,,,,,,,,,,,,,,,,,,,,,,,,,,,,,,,,,,,,,,,,,,,,,,,,,,,,,,,,,,,,,,,,,,,,,,,,,,,,,,,,111721,1,2,0,1,1,1,2,0,38,2021_Nov_17_1138,listening_fmri,3.2.4,60.225908102803444,
2,,,,,,,,,,0,0,0,0,0,2,2,2,,,,,,,,,,,,,,,,,,,,,,,,,,,,,,,,,,,,,,,,,,,,,,,,,,,,,,,,,,,,,,,,,,,,,,,,,,,,,,,,,,,,,,,,,,,,,,,,,,,,,,,,,,,,,,,,,,,,,,,,,,,,,,,,,,,111721,1,2,0,1,1,1,2,0,38,2021_Nov_17_1138,listening_fmri,3.2.4,60.225908102803444,
3,,,,,,,,,,0,0,0,0,0,3,3,3,,,,,,,,,,,,,,,,,,,,,,,,,,,,,,,,,,,,,,,,,,,,,,,,,,,,,,,,,,,,,,,,,,,,,,,,,,,,,,,,,,,,,,,,,,,,,,,,,,,,,,,,,,,,,,,,,,,,,,,,,,,,,,,,,,,111721,1,2,0,1,1,1,2,0,38,2021_Nov_17_1138,listening_fmri,3.2.4,60.225908102803444,
4,,,,,,,,,,0,0,0,0,0,4,4,4,0,0,0,0,0,0,0,0,0,0,0,0,,,,,,,,,,,,,,,,,,,,,,,,,,,,,,,,,,540.0616533809989,None,540.0616533809989,None,1,0.7945863460008695,540.0616533809989,None,540.0616533809989,None,540.8780969700019,None,1,0.693146699002682,540.8780969700019,None,540.8780969700019,None,541.616860776001,None,541.616860776001,None,541.616860776001,None,1,1.7742855079995934,541.616860776001,None,543.4118790270004,None,1,0.9503857769996102,543.4118790270004,None,543.4118790270004,None,544.4611068760023,None,544.4611068760023,None,544.4611068760023,None,544.4611068760023,None,544.4611068760023,None,544.4611068760023,None,544.4611068760023,None,None,544.4611068760023,None,,,,,,,,,,,,,,,,,,,,,,,,,,,,,,,,,111721,1,2,0,1,1,1,2,0,38,2021_Nov_17_1138,listening_fmri,3.2.4,60.225908102803444,
4,,,,,,,,,,0,0,0,0,0,4,4,4,0,0,0,0,0,0,0,0,,,,,,,,,,,,,,,,,,,,,,,,,,,,,,,,,,,,,,,,,,,,,,,,,,,,,,,,,,,,,,,,,,,,,,,,,,,,,,,,,,,,,,,,,,,567.077388345002,None,1,1.119753426999523,567.077388345002,None,567.077388345002,None,568.2452764119989,None,568.2452764119989,None,568.2452764119989,None,1,0.5299580840000999,568.2452764119989,None,,,,,,,,,,,,,,,111721,1,2,0,1,1,1,2,0,38,2021_Nov_17_1138,listening_fmri,3.2.4,60.225908102803444,
4,parcelated_audio/12/12_1.ogg,,,,,,,,,0,0,0,0,0,4,4,4,0,0,0,0,,,,,,,,,,,,,0,0,0,0,0,0,0,0,,,,,,,,,,,,,,,,,,,,,,,,,,,,,,,,,,,,,,,,,,,,,,,,,,,,,,,,,,,,,,,,,,,,,,,,,,,,,,,,,,,,,,,,,,,,,568.7947765009994,None,1,1.115450770001189,568.7947765009994,None,539.1080411510011,542.1222533630025,542.1281072660022,551.9744745120006,,,,,111721,1,2,0,1,1,1,2,0,38,2021_Nov_17_1138,listening_fmri,3.2.4,60.225908102803444,
4,parcelated_audio/12/12_2.ogg,,,,,,,,,0,0,0,0,0,4,4,4,0,0,0,0,,,,,,,,,,,,,0,0,0,0,0,1,1,1,,,,,,,,,,,,,,,,,,,,,,,,,,,,,,,,,,,,,,,,,,,,,,,,,,,,,,,,,,,,,,,,,,,,,,,,,,,,,,,,,,,,,,,,,,,,,,,,,,,,,551.9749636150009,559.7138392699999,,,,,111721,1,2,0,1,1,1,2,0,38,2021_Nov_17_1138,listening_fmri,3.2.4,60.225908102803444,
4,parcelated_audio/12/12_3.ogg,,,,,,,,,0,0,0,0,0,4,4,4,0,0,0,0,,,,,,,,,,,,,0,0,0,0,0,2,2,2,,,,,,,,,,,,,,,,,,,,,,,,,,,,,,,,,,,,,,,,,,,,,,,,,,,,,,,,,,,,,,,,,,,,,,,,,,,,,,,,,,,,,,,,,,,,,,,,,,,,,559.7145134940001,567.0558219710001,,,,,111721,1,2,0,1,1,1,2,0,38,2021_Nov_17_1138,listening_fmri,3.2.4,60.225908102803444,
4,parcelated_audio/12/12_4.ogg,,,,,,,,,0,0,0,0,0,4,4,4,0,0,0,0,,,,,,,,,,,,,0,0,0,0,0,3,3,3,,,,,,,,,,,,,,,,,,,,,,,,,,,,,,,,,,,,,,,,,,,,,,,,,,,,,,,,,,,,,,,,,,,,,,,,,,,,,,,,,,,,,,,,,,,,,,,,,,,,,567.0561839070033,573.6183529629998,,,,,111721,1,2,0,1,1,1,2,0,38,2021_Nov_17_1138,listening_fmri,3.2.4,60.225908102803444,
4,parcelated_audio/12/12_5.ogg,,,,,,,,,0,0,0,0,0,4,4,4,0,0,0,0,,,,,,,,,,,,,0,0,0,0,0,4,4,4,,,,,,,,,,,,,,,,,,,,,,,,,,,,,,,,,,,,,,,,,,,,,,,,,,,,,,,,,,,,,,,,,,,,,,,,,,,,,,,,,,,,,,,,,,,,,,,,,,,,,573.6191021390005,581.5597386890004,,,,,111721,1,2,0,1,1,1,2,0,38,2021_Nov_17_1138,listening_fmri,3.2.4,60.225908102803444,
4,parcelated_audio/12/12_6.ogg,,,,,,,,,0,0,0,0,0,4,4,4,0,0,0,0,,,,,,,,,,,,,0,0,0,0,0,5,5,5,,,,,,,,,,,,,,,,,,,,,,,,,,,,,,,,,,,,,,,,,,,,,,,,,,,,,,,,,,,,,,,,,,,,,,,,,,,,,,,,,,,,,,,,,,,,,,,,,,,,,581.5602769510006,585.1916396720007,,,,,111721,1,2,0,1,1,1,2,0,38,2021_Nov_17_1138,listening_fmri,3.2.4,60.225908102803444,
4,parcelated_audio/12/12_7.ogg,,,,,,,,,0,0,0,0,0,4,4,4,0,0,0,0,,,,,,,,,,,,,0,0,0,0,0,6,6,6,,,,,,,,,,,,,,,,,,,,,,,,,,,,,,,,,,,,,,,,,,,,,,,,,,,,,,,,,,,,,,,,,,,,,,,,,,,,,,,,,,,,,,,,,,,,,,,,,,,,,585.191995964,595.5171606240001,,,,,111721,1,2,0,1,1,1,2,0,38,2021_Nov_17_1138,listening_fmri,3.2.4,60.225908102803444,
4,parcelated_audio/12/12_8.ogg,,,,,,,,,0,0,0,0,0,4,4,4,0,0,0,0,,,,,,,,,,,,,0,0,0,0,0,7,7,7,,,,,,,,,,,,,,,,,,,,,,,,,,,,,,,,,,,,,,,,,,,,,,,,,,,,,,,,,,,,,,,,,,,,,,,,,,,,,,,,,,,,,,,,,,,,,,,,,,,,,595.517506008,604.2955543380012,,,,,111721,1,2,0,1,1,1,2,0,38,2021_Nov_17_1138,listening_fmri,3.2.4,60.225908102803444,
4,parcelated_audio/12/12_9.ogg,,,,,,,,,0,0,0,0,0,4,4,4,0,0,0,0,,,,,,,,,,,,,0,0,0,0,0,8,8,8,,,,,,,,,,,,,,,,,,,,,,,,,,,,,,,,,,,,,,,,,,,,,,,,,,,,,,,,,,,,,,,,,,,,,,,,,,,,,,,,,,,,,,,,,,,,,,,,,,,,,604.2959190220026,608.143593912002,,,,,111721,1,2,0,1,1,1,2,0,38,2021_Nov_17_1138,listening_fmri,3.2.4,60.225908102803444,
4,parcelated_audio/12/12_10.ogg,,,,,,,,,0,0,0,0,0,4,4,4,0,0,0,0,,,,,,,,,,,,,0,0,0,0,0,9,9,9,,,,,,,,,,,,,,,,,,,,,,,,,,,,,,,,,,,,,,,,,,,,,,,,,,,,,,,,,,,,,,,,,,,,,,,,,,,,,,,,,,,,,,,,,,,,,,,,,,,,,608.143944393003,612.9444038070033,,,,,111721,1,2,0,1,1,1,2,0,38,2021_Nov_17_1138,listening_fmri,3.2.4,60.225908102803444,
4,parcelated_audio/12/12_11.ogg,,,,,,,,,0,0,0,0,0,4,4,4,0,0,0,0,,,,,,,,,,,,,0,0,0,0,0,10,10,10,,,,,,,,,,,,,,,,,,,,,,,,,,,,,,,,,,,,,,,,,,,,,,,,,,,,,,,,,,,,,,,,,,,,,,,,,,,,,,,,,,,,,,,,,,,,,,,,,,,,,612.9448939030008,615.8131389000009,,,,,111721,1,2,0,1,1,1,2,0,38,2021_Nov_17_1138,listening_fmri,3.2.4,60.225908102803444,
4,parcelated_audio/12/12_12.ogg,,,,,,,,,0,0,0,0,0,4,4,4,0,0,0,0,,,,,,,,,,,,,0,0,0,0,0,11,11,11,,,,,,,,,,,,,,,,,,,,,,,,,,,,,,,,,,,,,,,,,,,,,,,,,,,,,,,,,,,,,,,,,,,,,,,,,,,,,,,,,,,,,,,,,,,,,,,,,,,,,615.8136934050017,624.6931347099999,,,,,111721,1,2,0,1,1,1,2,0,38,2021_Nov_17_1138,listening_fmri,3.2.4,60.225908102803444,
4,parcelated_audio/12/12_13.ogg,,,,,,,,,0,0,0,0,0,4,4,4,0,0,0,0,,,,,,,,,,,,,0,0,0,0,0,12,12,12,,,,,,,,,,,,,,,,,,,,,,,,,,,,,,,,,,,,,,,,,,,,,,,,,,,,,,,,,,,,,,,,,,,,,,,,,,,,,,,,,,,,,,,,,,,,,,,,,,,,,624.6938160810023,629.9423286250021,,,,,111721,1,2,0,1,1,1,2,0,38,2021_Nov_17_1138,listening_fmri,3.2.4,60.225908102803444,
4,parcelated_audio/12/12_14.ogg,,,,,,,,,0,0,0,0,0,4,4,4,0,0,0,0,,,,,,,,,,,,,0,0,0,0,0,13,13,13,,,,,,,,,,,,,,,,,,,,,,,,,,,,,,,,,,,,,,,,,,,,,,,,,,,,,,,,,,,,,,,,,,,,,,,,,,,,,,,,,,,,,,,,,,,,,,,,,,,,,629.9430051859999,634.866312901002,,,,,111721,1,2,0,1,1,1,2,0,38,2021_Nov_17_1138,listening_fmri,3.2.4,60.225908102803444,
4,parcelated_audio/12/12_15.ogg,,,,,,,,,0,0,0,0,0,4,4,4,0,0,0,0,,,,,,,,,,,,,0,0,0,0,0,14,14,14,,,,,,,,,,,,,,,,,,,,,,,,,,,,,,,,,,,,,,,,,,,,,,,,,,,,,,,,,,,,,,,,,,,,,,,,,,,,,,,,,,,,,,,,,,,,,,,,,,,,,634.8666723040005,640.860997810003,,,,,111721,1,2,0,1,1,1,2,0,38,2021_Nov_17_1138,listening_fmri,3.2.4,60.225908102803444,
4,parcelated_audio/12/12_16.ogg,,,,,,,,,0,0,0,0,0,4,4,4,0,0,0,0,,,,,,,,,,,,,0,0,0,0,0,15,15,15,,,,,,,,,,,,,,,,,,,,,,,,,,,,,,,,,,,,,,,,,,,,,,,,,,,,,,,,,,,,,,,,,,,,,,,,,,,,,,,,,,,,,,,,,,,,,,,,,,,,,640.8613435910011,645.0635014310028,,,,,111721,1,2,0,1,1,1,2,0,38,2021_Nov_17_1138,listening_fmri,3.2.4,60.225908102803444,
4,parcelated_audio/12/12_17.ogg,,,,,,,,,0,0,0,0,0,4,4,4,0,0,0,0,,,,,,,,,,,,,0,0,0,0,0,16,16,16,,,,,,,,,,,,,,,,,,,,,,,,,,,,,,,,,,,,,,,,,,,,,,,,,,,,,,,,,,,,,,,,,,,,,,,,,,,,,,,,,,,,,,,,,,,,,,,,,,,,,645.064131375002,650.063615189003,,,,,111721,1,2,0,1,1,1,2,0,38,2021_Nov_17_1138,listening_fmri,3.2.4,60.225908102803444,
4,parcelated_audio/12/12_18.ogg,,,,,,,,,0,0,0,0,0,4,4,4,0,0,0,0,,,,,,,,,,,,,0,0,0,0,0,17,17,17,,,,,,,,,,,,,,,,,,,,,,,,,,,,,,,,,,,,,,,,,,,,,,,,,,,,,,,,,,,,,,,,,,,,,,,,,,,,,,,,,,,,,,,,,,,,,,,,,,,,,650.0648942309999,659.2686207040024,,,,,111721,1,2,0,1,1,1,2,0,38,2021_Nov_17_1138,listening_fmri,3.2.4,60.225908102803444,
4,parcelated_audio/12/12_19.ogg,,,,,,,,,0,0,0,0,0,4,4,4,0,0,0,0,,,,,,,,,,,,,0,0,0,0,0,18,18,18,,,,,,,,,,,,,,,,,,,,,,,,,,,,,,,,,,,,,,,,,,,,,,,,,,,,,,,,,,,,,,,,,,,,,,,,,,,,,,,,,,,,,,,,,,,,,,,,,,,,,659.2691191869999,669.271379793001,,,,,111721,1,2,0,1,1,1,2,0,38,2021_Nov_17_1138,listening_fmri,3.2.4,60.225908102803444,
4,parcelated_audio/12/12_20.ogg,,,,,,,,,0,0,0,0,0,4,4,4,0,0,0,0,,,,,,,,,,,,,0,0,0,0,0,19,19,19,,,,,,,,,,,,,,,,,,,,,,,,,,,,,,,,,,,,,,,,,,,,,,,,,,,,,,,,,,,,,,,,,,,,,,,,,,,,,,,,,,,,,,,,,,,,,,,,,,,,,669.2717467180009,677.0737814580025,,,,,111721,1,2,0,1,1,1,2,0,38,2021_Nov_17_1138,listening_fmri,3.2.4,60.225908102803444,
4,parcelated_audio/12/12_21.ogg,,,,,,,,,0,0,0,0,0,4,4,4,0,0,0,0,,,,,,,,,,,,,0,0,0,0,0,20,20,20,,,,,,,,,,,,,,,,,,,,,,,,,,,,,,,,,,,,,,,,,,,,,,,,,,,,,,,,,,,,,,,,,,,,,,,,,,,,,,,,,,,,,,,,,,,,,,,,,,,,,677.0741463100021,682.5678437560018,,,,,111721,1,2,0,1,1,1,2,0,38,2021_Nov_17_1138,listening_fmri,3.2.4,60.225908102803444,
4,parcelated_audio/12/12_22.ogg,,,,,,,,,0,0,0,0,0,4,4,4,0,0,0,0,,,,,,,,,,,,,0,0,0,0,0,21,21,21,,,,,,,,,,,,,,,,,,,,,,,,,,,,,,,,,,,,,,,,,,,,,,,,,,,,,,,,,,,,,,,,,,,,,,,,,,,,,,,,,,,,,,,,,,,,,,,,,,,,,682.5681951120023,686.4209896440007,,,,,111721,1,2,0,1,1,1,2,0,38,2021_Nov_17_1138,listening_fmri,3.2.4,60.225908102803444,
4,parcelated_audio/12/12_23.ogg,,,,,,,,,0,0,0,0,0,4,4,4,0,0,0,0,,,,,,,,,,,,,0,0,0,0,0,22,22,22,,,,,,,,,,,,,,,,,,,,,,,,,,,,,,,,,,,,,,,,,,,,,,,,,,,,,,,,,,,,,,,,,,,,,,,,,,,,,,,,,,,,,,,,,,,,,,,,,,,,,686.4213374580031,693.2557769090017,,,,,111721,1,2,0,1,1,1,2,0,38,2021_Nov_17_1138,listening_fmri,3.2.4,60.225908102803444,
4,parcelated_audio/12/12_24.ogg,,,,,,,,,0,0,0,0,0,4,4,4,0,0,0,0,,,,,,,,,,,,,0,0,0,0,0,23,23,23,,,,,,,,,,,,,,,,,,,,,,,,,,,,,,,,,,,,,,,,,,,,,,,,,,,,,,,,,,,,,,,,,,,,,,,,,,,,,,,,,,,,,,,,,,,,,,,,,,,,,693.2568900210026,697.3915498090028,,,,,111721,1,2,0,1,1,1,2,0,38,2021_Nov_17_1138,listening_fmri,3.2.4,60.225908102803444,
4,parcelated_audio/12/12_25.ogg,,,,,,,,,0,0,0,0,0,4,4,4,0,0,0,0,,,,,,,,,,,,,0,0,0,0,0,24,24,24,,,,,,,,,,,,,,,,,,,,,,,,,,,,,,,,,,,,,,,,,,,,,,,,,,,,,,,,,,,,,,,,,,,,,,,,,,,,,,,,,,,,,,,,,,,,,,,,,,,,,697.3918947890015,707.735612335,,,,,111721,1,2,0,1,1,1,2,0,38,2021_Nov_17_1138,listening_fmri,3.2.4,60.225908102803444,
4,parcelated_audio/12/12_26.ogg,,,,,,,,,0,0,0,0,0,4,4,4,0,0,0,0,,,,,,,,,,,,,0,0,0,0,0,25,25,25,,,,,,,,,,,,,,,,,,,,,,,,,,,,,,,,,,,,,,,,,,,,,,,,,,,,,,,,,,,,,,,,,,,,,,,,,,,,,,,,,,,,,,,,,,,,,,,,,,,,,707.7359548430031,712.9725319730023,,,,,111721,1,2,0,1,1,1,2,0,38,2021_Nov_17_1138,listening_fmri,3.2.4,60.225908102803444,
4,parcelated_audio/12/12_27.ogg,,,,,,,,,0,0,0,0,0,4,4,4,0,0,0,0,,,,,,,,,,,,,0,0,0,0,0,26,26,26,,,,,,,,,,,,,,,,,,,,,,,,,,,,,,,,,,,,,,,,,,,,,,,,,,,,,,,,,,,,,,,,,,,,,,,,,,,,,,,,,,,,,,,,,,,,,,,,,,,,,712.9728806700004,720.6337648490007,,,,,111721,1,2,0,1,1,1,2,0,38,2021_Nov_17_1138,listening_fmri,3.2.4,60.225908102803444,
4,parcelated_audio/12/12_28.ogg,,,,,,,,,0,0,0,0,0,4,4,4,0,0,0,0,,,,,,,,,,,,,0,0,0,0,0,27,27,27,,,,,,,,,,,,,,,,,,,,,,,,,,,,,,,,,,,,,,,,,,,,,,,,,,,,,,,,,,,,,,,,,,,,,,,,,,,,,,,,,,,,,,,,,,,,,,,,,,,,,720.6341270310004,731.617762306003,,,,,111721,1,2,0,1,1,1,2,0,38,2021_Nov_17_1138,listening_fmri,3.2.4,60.225908102803444,
4,parcelated_audio/12/12_29.ogg,,,,,,,,,0,0,0,0,0,4,4,4,0,0,0,0,,,,,,,,,,,,,0,0,0,0,0,28,28,28,,,,,,,,,,,,,,,,,,,,,,,,,,,,,,,,,,,,,,,,,,,,,,,,,,,,,,,,,,,,,,,,,,,,,,,,,,,,,,,,,,,,,,,,,,,,,,,,,,,,,731.6181076600005,737.7030045080028,,,,,111721,1,2,0,1,1,1,2,0,38,2021_Nov_17_1138,listening_fmri,3.2.4,60.225908102803444,
4,parcelated_audio/12/12_30.ogg,,,,,,,,,0,0,0,0,0,4,4,4,0,0,0,0,,,,,,,,,,,,,0,0,0,0,0,29,29,29,,,,,,,,,,,,,,,,,,,,,,,,,,,,,,,,,,,,,,,,,,,,,,,,,,,,,,,,,,,,,,,,,,,,,,,,,,,,,,,,,,,,,,,,,,,,,,,,,,,,,737.7034846650022,744.6537096160027,,,,,111721,1,2,0,1,1,1,2,0,38,2021_Nov_17_1138,listening_fmri,3.2.4,60.225908102803444,
4,parcelated_audio/12/12_31.ogg,,,,,,,,,0,0,0,0,0,4,4,4,0,0,0,0,,,,,,,,,,,,,0,0,0,0,0,30,30,30,,,,,,,,,,,,,,,,,,,,,,,,,,,,,,,,,,,,,,,,,,,,,,,,,,,,,,,,,,,,,,,,,,,,,,,,,,,,,,,,,,,,,,,,,,,,,,,,,,,,,744.6539845770021,751.7944810970002,,,,,111721,1,2,0,1,1,1,2,0,38,2021_Nov_17_1138,listening_fmri,3.2.4,60.225908102803444,
4,,,,,,,,,,0,0,0,0,0,4,4,4,0,0,0,0,,,,,,,,,,,,,0,0,0,0,,,,,,,,,,,,,,,,,,,,,,,,,,,,,,,,,,,,,,,,,,,,,,,,,,,,,,,,,,,,,,,,,,,,,,,,,,,,,,,,,,,,,,,,,,,,,,,,,,,,,,,,,,,,,,,111721,1,2,0,1,1,1,2,0,38,2021_Nov_17_1138,listening_fmri,3.2.4,60.225908102803444,
,,,,,,,,,,,,,,,,,,,,,,,,,,,,,,,,,,,,,,,,,,,,,,,,,,,,,,,,,,,751.7949433610011,757.7839539230008,782.6277365300011,None,,,,,,,,,,,,,,,,,,,,,,,,,,,,,,,,,,,,,,,,,,,,,,,,,,,,,,,,,,,,,,,,,,,,,,,,,,,,,,,,,,788.6282045350017,None,788.6282045350017,None,,,,,,,,,,,,,,,
﻿count,audio,trials_14.thisRepN,trials_14.thisTrialN,trials_14.thisN,trials_14.thisIndex,trials_3.thisRepN,trials_3.thisTrialN,trials_3.thisN,trials_3.thisIndex,trials_4.thisRepN,trials_4.thisTrialN,trials_4.thisN,trials_4.thisIndex,trials_6.thisRepN,trials_6.thisTrialN,trials_6.thisN,trials_6.thisIndex,trials_9.thisRepN,trials_9.thisTrialN,trials_9.thisN,trials_9.thisIndex,trials_10.thisRepN,trials_10.thisTrialN,trials_10.thisN,trials_10.thisIndex,trials_11.thisRepN,trials_11.thisTrialN,trials_11.thisN,trials_11.thisIndex,trials_12.thisRepN,trials_12.thisTrialN,trials_12.thisN,trials_12.thisIndex,trials_25.thisRepN,trials_25.thisTrialN,trials_25.thisN,trials_25.thisIndex,trials_15.thisRepN,trials_15.thisTrialN,trials_15.thisN,trials_15.thisIndex,trials_26.thisRepN,trials_26.thisTrialN,trials_26.thisN,trials_26.thisIndex,story_list_block2,action_list_block2,textTrigger.started,textTrigger.stopped,getTrigger.keys,getTrigger.rt,getTrigger.started,getTrigger.stopped,triggerTime,text_76.started,text_76.stopped,text_77.started,text_77.stopped,startWait,endWait,image_23.started,image_23.stopped,text_55.started,text_55.stopped,text_56.started,text_56.stopped,key_resp_2.keys,key_resp_2.rt,key_resp_2.started,key_resp_2.stopped,text_82.started,text_82.stopped,text_57.started,text_57.stopped,key_resp_17.keys,key_resp_17.rt,key_resp_17.started,key_resp_17.stopped,text_83.started,text_83.stopped,text_60.started,text_60.stopped,image_2.started,image_2.stopped,text_58.started,text_58.stopped,key_resp_23.keys,key_resp_23.rt,key_resp_23.started,key_resp_23.stopped,text_62.started,text_62.stopped,key_resp_18.keys,key_resp_18.rt,key_resp_18.started,key_resp_18.stopped,text_84.started,text_84.stopped,question1_2.started,question1_2.stopped,question2_2.started,question2_2.stopped,question3_2.started,question3_2.stopped,question4_2.started,question4_2.stopped,question5_2.started,question5_2.stopped,question6_2.started,question6_2.stopped,image_15.started,image_15.stopped,key_resp.keys,key_resp.started,key_resp.stopped,text_59.started,text_59.stopped,key_resp_19.keys,key_resp_19.rt,key_resp_19.started,key_resp_19.stopped,text_85.started,text_85.stopped,text_61.started,text_61.stopped,image_17.started,image_17.stopped,text_63.started,text_63.stopped,key_resp_24.keys,key_resp_24.rt,key_resp_24.started,key_resp_24.stopped,text_64.started,text_64.stopped,key_resp_20.keys,key_resp_20.rt,key_resp_20.started,key_resp_20.stopped,storyImage_StartTime,storyImage_EndTime,clip_StartTime,clip_EndTime,text_67.started,text_67.stopped,text_68.started,text_68.stopped,participant,sA,sB,lA,lB,block_struct,play_stories,block,behavioral,random_seed,date,expName,psychopyVersion,frameRate,
0,,,,,,,,,,0,0,0,0,0,0,0,0,0,0,0,0,0,0,0,0,0,0,0,0,,,,,,,,,,,,,,,,,[23 34 21 32 12 41 43 14],[1 1 3 3 2 2 4 4],13.626284842001041,None,equal,17.19480041299903,13.626284842001041,None,17.21330375999969,13.626284842001041,None,13.626284842001041,None,0.00033676000020932406,5.999537917003181,30.843592489000002,None,36.85637986200163,None,36.85637986200163,None,1,1.3948639529990032,36.85637986200163,None,36.85637986200163,None,38.27739148399996,None,1,0.9949003709989483,38.27739148399996,None,38.27739148399996,None,39.3100806500006,None,39.3100806500006,None,39.3100806500006,None,1,1.2520985139999539,39.3100806500006,None,40.594018693002,None,1,1.3562241550025647,40.594018693002,None,40.594018693002,None,42.057044573000894,None,42.057044573000894,None,42.057044573000894,None,42.057044573000894,None,42.057044573000894,None,42.057044573000894,None,42.057044573000894,None,None,42.057044573000894,None,,,,,,,,,,,,,,,,,,,,,,,,,,,,,,,,,111721,1,2,0,1,1,1,2,0,38,2021_Nov_17_1138,listening_fmri,3.2.4,60.225908102803444,
0,,,,,,,,,,0,0,0,0,0,0,0,0,0,0,0,0,0,0,0,0,,,,,,,,,,,,,,,,,,,,,,,,,,,,,,,,,,,,,,,,,,,,,,,,,,,,,,,,,,,,,,,,,,,,,,,,,,,,,,,,,,,,,,,,,,,69.00616087199887,None,6,1.6059552219994657,69.00616087199887,None,69.00616087199887,None,70.65594184600195,None,70.65594184600195,None,70.65594184600195,None,6,0.8371892110008048,70.65594184600195,None,,,,,,,,,,,,,,,111721,1,2,0,1,1,1,2,0,38,2021_Nov_17_1138,listening_fmri,3.2.4,60.225908102803444,
0,parcelated_audio/23/23_1.ogg,,,,,,,,,0,0,0,0,0,0,0,0,0,0,0,0,,,,,,,,,,,,,0,0,0,0,0,0,0,0,,,,,,,,,,,,,,,,,,,,,,,,,,,,,,,,,,,,,,,,,,,,,,,,,,,,,,,,,,,,,,,,,,,,,,,,,,,,,,,,,,,,,,,,,,,,,71.51096139400033,None,6,1.380296344999806,71.51096139400033,None,42.09492434300046,45.09948825200263,45.104821879001975,55.51137218200165,,,,,111721,1,2,0,1,1,1,2,0,38,2021_Nov_17_1138,listening_fmri,3.2.4,60.225908102803444,
0,parcelated_audio/23/23_2.ogg,,,,,,,,,0,0,0,0,0,0,0,0,0,0,0,0,,,,,,,,,,,,,0,0,0,0,0,1,1,1,,,,,,,,,,,,,,,,,,,,,,,,,,,,,,,,,,,,,,,,,,,,,,,,,,,,,,,,,,,,,,,,,,,,,,,,,,,,,,,,,,,,,,,,,,,,,,,,,,,,,55.51178263800102,62.38638967100269,,,,,111721,1,2,0,1,1,1,2,0,38,2021_Nov_17_1138,listening_fmri,3.2.4,60.225908102803444,
0,parcelated_audio/23/23_3.ogg,,,,,,,,,0,0,0,0,0,0,0,0,0,0,0,0,,,,,,,,,,,,,0,0,0,0,0,2,2,2,,,,,,,,,,,,,,,,,,,,,,,,,,,,,,,,,,,,,,,,,,,,,,,,,,,,,,,,,,,,,,,,,,,,,,,,,,,,,,,,,,,,,,,,,,,,,,,,,,,,,62.386732126000425,68.15550736300065,,,,,111721,1,2,0,1,1,1,2,0,38,2021_Nov_17_1138,listening_fmri,3.2.4,60.225908102803444,
0,parcelated_audio/23/23_4.ogg,,,,,,,,,0,0,0,0,0,0,0,0,0,0,0,0,,,,,,,,,,,,,0,0,0,0,0,3,3,3,,,,,,,,,,,,,,,,,,,,,,,,,,,,,,,,,,,,,,,,,,,,,,,,,,,,,,,,,,,,,,,,,,,,,,,,,,,,,,,,,,,,,,,,,,,,,,,,,,,,,68.15585107800143,79.42756241000097,,,,,111721,1,2,0,1,1,1,2,0,38,2021_Nov_17_1138,listening_fmri,3.2.4,60.225908102803444,
0,parcelated_audio/23/23_5.ogg,,,,,,,,,0,0,0,0,0,0,0,0,0,0,0,0,,,,,,,,,,,,,0,0,0,0,0,4,4,4,,,,,,,,,,,,,,,,,,,,,,,,,,,,,,,,,,,,,,,,,,,,,,,,,,,,,,,,,,,,,,,,,,,,,,,,,,,,,,,,,,,,,,,,,,,,,,,,,,,,,79.42797201800204,85.63551510900288,,,,,111721,1,2,0,1,1,1,2,0,38,2021_Nov_17_1138,listening_fmri,3.2.4,60.225908102803444,
0,parcelated_audio/23/23_6.ogg,,,,,,,,,0,0,0,0,0,0,0,0,0,0,0,0,,,,,,,,,,,,,0,0,0,0,0,5,5,5,,,,,,,,,,,,,,,,,,,,,,,,,,,,,,,,,,,,,,,,,,,,,,,,,,,,,,,,,,,,,,,,,,,,,,,,,,,,,,,,,,,,,,,,,,,,,,,,,,,,,85.63586442700034,93.04643482900065,,,,,111721,1,2,0,1,1,1,2,0,38,2021_Nov_17_1138,listening_fmri,3.2.4,60.225908102803444,
0,parcelated_audio/23/23_7.ogg,,,,,,,,,0,0,0,0,0,0,0,0,0,0,0,0,,,,,,,,,,,,,0,0,0,0,0,6,6,6,,,,,,,,,,,,,,,,,,,,,,,,,,,,,,,,,,,,,,,,,,,,,,,,,,,,,,,,,,,,,,,,,,,,,,,,,,,,,,,,,,,,,,,,,,,,,,,,,,,,,93.04723374800233,99.80553359600162,,,,,111721,1,2,0,1,1,1,2,0,38,2021_Nov_17_1138,listening_fmri,3.2.4,60.225908102803444,
0,parcelated_audio/23/23_8.ogg,,,,,,,,,0,0,0,0,0,0,0,0,0,0,0,0,,,,,,,,,,,,,0,0,0,0,0,7,7,7,,,,,,,,,,,,,,,,,,,,,,,,,,,,,,,,,,,,,,,,,,,,,,,,,,,,,,,,,,,,,,,,,,,,,,,,,,,,,,,,,,,,,,,,,,,,,,,,,,,,,99.80580589200326,105.21969135000109,,,,,111721,1,2,0,1,1,1,2,0,38,2021_Nov_17_1138,listening_fmri,3.2.4,60.225908102803444,
0,parcelated_audio/23/23_9.ogg,,,,,,,,,0,0,0,0,0,0,0,0,0,0,0,0,,,,,,,,,,,,,0,0,0,0,0,8,8,8,,,,,,,,,,,,,,,,,,,,,,,,,,,,,,,,,,,,,,,,,,,,,,,,,,,,,,,,,,,,,,,,,,,,,,,,,,,,,,,,,,,,,,,,,,,,,,,,,,,,,105.22004680500322,109.61320242900183,,,,,111721,1,2,0,1,1,1,2,0,38,2021_Nov_17_1138,listening_fmri,3.2.4,60.225908102803444,
0,parcelated_audio/23/23_10.ogg,,,,,,,,,0,0,0,0,0,0,0,0,0,0,0,0,,,,,,,,,,,,,0,0,0,0,0,9,9,9,,,,,,,,,,,,,,,,,,,,,,,,,,,,,,,,,,,,,,,,,,,,,,,,,,,,,,,,,,,,,,,,,,,,,,,,,,,,,,,,,,,,,,,,,,,,,,,,,,,,,109.613554794003,113.56761575700148,,,,,111721,1,2,0,1,1,1,2,0,38,2021_Nov_17_1138,listening_fmri,3.2.4,60.225908102803444,
0,parcelated_audio/23/23_11.ogg,,,,,,,,,0,0,0,0,0,0,0,0,0,0,0,0,,,,,,,,,,,,,0,0,0,0,0,10,10,10,,,,,,,,,,,,,,,,,,,,,,,,,,,,,,,,,,,,,,,,,,,,,,,,,,,,,,,,,,,,,,,,,,,,,,,,,,,,,,,,,,,,,,,,,,,,,,,,,,,,,113.56814942300116,121.69849227300074,,,,,111721,1,2,0,1,1,1,2,0,38,2021_Nov_17_1138,listening_fmri,3.2.4,60.225908102803444,
0,parcelated_audio/23/23_12.ogg,,,,,,,,,0,0,0,0,0,0,0,0,0,0,0,0,,,,,,,,,,,,,0,0,0,0,0,11,11,11,,,,,,,,,,,,,,,,,,,,,,,,,,,,,,,,,,,,,,,,,,,,,,,,,,,,,,,,,,,,,,,,,,,,,,,,,,,,,,,,,,,,,,,,,,,,,,,,,,,,,121.69890427100108,128.85448186800204,,,,,111721,1,2,0,1,1,1,2,0,38,2021_Nov_17_1138,listening_fmri,3.2.4,60.225908102803444,
0,parcelated_audio/23/23_13.ogg,,,,,,,,,0,0,0,0,0,0,0,0,0,0,0,0,,,,,,,,,,,,,0,0,0,0,0,12,12,12,,,,,,,,,,,,,,,,,,,,,,,,,,,,,,,,,,,,,,,,,,,,,,,,,,,,,,,,,,,,,,,,,,,,,,,,,,,,,,,,,,,,,,,,,,,,,,,,,,,,,128.85484119800094,135.64186824100034,,,,,111721,1,2,0,1,1,1,2,0,38,2021_Nov_17_1138,listening_fmri,3.2.4,60.225908102803444,
0,parcelated_audio/23/23_14.ogg,,,,,,,,,0,0,0,0,0,0,0,0,0,0,0,0,,,,,,,,,,,,,0,0,0,0,0,13,13,13,,,,,,,,,,,,,,,,,,,,,,,,,,,,,,,,,,,,,,,,,,,,,,,,,,,,,,,,,,,,,,,,,,,,,,,,,,,,,,,,,,,,,,,,,,,,,,,,,,,,,135.64240294900083,140.00205449799978,,,,,111721,1,2,0,1,1,1,2,0,38,2021_Nov_17_1138,listening_fmri,3.2.4,60.225908102803444,
0,parcelated_audio/23/23_15.ogg,,,,,,,,,0,0,0,0,0,0,0,0,0,0,0,0,,,,,,,,,,,,,0,0,0,0,0,14,14,14,,,,,,,,,,,,,,,,,,,,,,,,,,,,,,,,,,,,,,,,,,,,,,,,,,,,,,,,,,,,,,,,,,,,,,,,,,,,,,,,,,,,,,,,,,,,,,,,,,,,,140.0025533600019,144.4235349160008,,,,,111721,1,2,0,1,1,1,2,0,38,2021_Nov_17_1138,listening_fmri,3.2.4,60.225908102803444,
0,parcelated_audio/23/23_16.ogg,,,,,,,,,0,0,0,0,0,0,0,0,0,0,0,0,,,,,,,,,,,,,0,0,0,0,0,15,15,15,,,,,,,,,,,,,,,,,,,,,,,,,,,,,,,,,,,,,,,,,,,,,,,,,,,,,,,,,,,,,,,,,,,,,,,,,,,,,,,,,,,,,,,,,,,,,,,,,,,,,144.42389228899992,150.99640936100332,,,,,111721,1,2,0,1,1,1,2,0,38,2021_Nov_17_1138,listening_fmri,3.2.4,60.225908102803444,
0,parcelated_audio/23/23_17.ogg,,,,,,,,,0,0,0,0,0,0,0,0,0,0,0,0,,,,,,,,,,,,,0,0,0,0,0,16,16,16,,,,,,,,,,,,,,,,,,,,,,,,,,,,,,,,,,,,,,,,,,,,,,,,,,,,,,,,,,,,,,,,,,,,,,,,,,,,,,,,,,,,,,,,,,,,,,,,,,,,,150.99676413900306,157.75244850000308,,,,,111721,1,2,0,1,1,1,2,0,38,2021_Nov_17_1138,listening_fmri,3.2.4,60.225908102803444,
0,parcelated_audio/23/23_18.ogg,,,,,,,,,0,0,0,0,0,0,0,0,0,0,0,0,,,,,,,,,,,,,0,0,0,0,0,17,17,17,,,,,,,,,,,,,,,,,,,,,,,,,,,,,,,,,,,,,,,,,,,,,,,,,,,,,,,,,,,,,,,,,,,,,,,,,,,,,,,,,,,,,,,,,,,,,,,,,,,,,157.75281738000194,169.73326142400037,,,,,111721,1,2,0,1,1,1,2,0,38,2021_Nov_17_1138,listening_fmri,3.2.4,60.225908102803444,
0,parcelated_audio/23/23_19.ogg,,,,,,,,,0,0,0,0,0,0,0,0,0,0,0,0,,,,,,,,,,,,,0,0,0,0,0,18,18,18,,,,,,,,,,,,,,,,,,,,,,,,,,,,,,,,,,,,,,,,,,,,,,,,,,,,,,,,,,,,,,,,,,,,,,,,,,,,,,,,,,,,,,,,,,,,,,,,,,,,,169.73361044400008,175.49773683400053,,,,,111721,1,2,0,1,1,1,2,0,38,2021_Nov_17_1138,listening_fmri,3.2.4,60.225908102803444,
0,parcelated_audio/23/23_20.ogg,,,,,,,,,0,0,0,0,0,0,0,0,0,0,0,0,,,,,,,,,,,,,0,0,0,0,0,19,19,19,,,,,,,,,,,,,,,,,,,,,,,,,,,,,,,,,,,,,,,,,,,,,,,,,,,,,,,,,,,,,,,,,,,,,,,,,,,,,,,,,,,,,,,,,,,,,,,,,,,,,175.4982115180028,178.46642474000328,,,,,111721,1,2,0,1,1,1,2,0,38,2021_Nov_17_1138,listening_fmri,3.2.4,60.225908102803444,
0,parcelated_audio/23/23_21.ogg,,,,,,,,,0,0,0,0,0,0,0,0,0,0,0,0,,,,,,,,,,,,,0,0,0,0,0,20,20,20,,,,,,,,,,,,,,,,,,,,,,,,,,,,,,,,,,,,,,,,,,,,,,,,,,,,,,,,,,,,,,,,,,,,,,,,,,,,,,,,,,,,,,,,,,,,,,,,,,,,,178.4667989380032,186.13175724500252,,,,,111721,1,2,0,1,1,1,2,0,38,2021_Nov_17_1138,listening_fmri,3.2.4,60.225908102803444,
0,parcelated_audio/23/23_22.ogg,,,,,,,,,0,0,0,0,0,0,0,0,0,0,0,0,,,,,,,,,,,,,0,0,0,0,0,21,21,21,,,,,,,,,,,,,,,,,,,,,,,,,,,,,,,,,,,,,,,,,,,,,,,,,,,,,,,,,,,,,,,,,,,,,,,,,,,,,,,,,,,,,,,,,,,,,,,,,,,,,186.13210745700053,188.78751604500212,,,,,111721,1,2,0,1,1,1,2,0,38,2021_Nov_17_1138,listening_fmri,3.2.4,60.225908102803444,
0,parcelated_audio/23/23_23.ogg,,,,,,,,,0,0,0,0,0,0,0,0,0,0,0,0,,,,,,,,,,,,,0,0,0,0,0,22,22,22,,,,,,,,,,,,,,,,,,,,,,,,,,,,,,,,,,,,,,,,,,,,,,,,,,,,,,,,,,,,,,,,,,,,,,,,,,,,,,,,,,,,,,,,,,,,,,,,,,,,,188.7880291649999,192.94355535900104,,,,,111721,1,2,0,1,1,1,2,0,38,2021_Nov_17_1138,listening_fmri,3.2.4,60.225908102803444,
0,parcelated_audio/23/23_24.ogg,,,,,,,,,0,0,0,0,0,0,0,0,0,0,0,0,,,,,,,,,,,,,0,0,0,0,0,23,23,23,,,,,,,,,,,,,,,,,,,,,,,,,,,,,,,,,,,,,,,,,,,,,,,,,,,,,,,,,,,,,,,,,,,,,,,,,,,,,,,,,,,,,,,,,,,,,,,,,,,,,192.94390135700087,196.39156426600312,,,,,111721,1,2,0,1,1,1,2,0,38,2021_Nov_17_1138,listening_fmri,3.2.4,60.225908102803444,
0,parcelated_audio/23/23_25.ogg,,,,,,,,,0,0,0,0,0,0,0,0,0,0,0,0,,,,,,,,,,,,,0,0,0,0,0,24,24,24,,,,,,,,,,,,,,,,,,,,,,,,,,,,,,,,,,,,,,,,,,,,,,,,,,,,,,,,,,,,,,,,,,,,,,,,,,,,,,,,,,,,,,,,,,,,,,,,,,,,,196.39215409900135,200.53760425400105,,,,,111721,1,2,0,1,1,1,2,0,38,2021_Nov_17_1138,listening_fmri,3.2.4,60.225908102803444,
0,parcelated_audio/23/23_26.ogg,,,,,,,,,0,0,0,0,0,0,0,0,0,0,0,0,,,,,,,,,,,,,0,0,0,0,0,25,25,25,,,,,,,,,,,,,,,,,,,,,,,,,,,,,,,,,,,,,,,,,,,,,,,,,,,,,,,,,,,,,,,,,,,,,,,,,,,,,,,,,,,,,,,,,,,,,,,,,,,,,200.53795710800114,206.76604781600327,,,,,111721,1,2,0,1,1,1,2,0,38,2021_Nov_17_1138,listening_fmri,3.2.4,60.225908102803444,
0,parcelated_audio/23/23_27.ogg,,,,,,,,,0,0,0,0,0,0,0,0,0,0,0,0,,,,,,,,,,,,,0,0,0,0,0,26,26,26,,,,,,,,,,,,,,,,,,,,,,,,,,,,,,,,,,,,,,,,,,,,,,,,,,,,,,,,,,,,,,,,,,,,,,,,,,,,,,,,,,,,,,,,,,,,,,,,,,,,,206.76651547400252,212.04372737400263,,,,,111721,1,2,0,1,1,1,2,0,38,2021_Nov_17_1138,listening_fmri,3.2.4,60.225908102803444,
0,parcelated_audio/23/23_28.ogg,,,,,,,,,0,0,0,0,0,0,0,0,0,0,0,0,,,,,,,,,,,,,0,0,0,0,0,27,27,27,,,,,,,,,,,,,,,,,,,,,,,,,,,,,,,,,,,,,,,,,,,,,,,,,,,,,,,,,,,,,,,,,,,,,,,,,,,,,,,,,,,,,,,,,,,,,,,,,,,,,212.04418096100198,220.00136345600185,,,,,111721,1,2,0,1,1,1,2,0,38,2021_Nov_17_1138,listening_fmri,3.2.4,60.225908102803444,
0,parcelated_audio/23/23_29.ogg,,,,,,,,,0,0,0,0,0,0,0,0,0,0,0,0,,,,,,,,,,,,,0,0,0,0,0,28,28,28,,,,,,,,,,,,,,,,,,,,,,,,,,,,,,,,,,,,,,,,,,,,,,,,,,,,,,,,,,,,,,,,,,,,,,,,,,,,,,,,,,,,,,,,,,,,,,,,,,,,,220.00170677700225,223.76412926500052,,,,,111721,1,2,0,1,1,1,2,0,38,2021_Nov_17_1138,listening_fmri,3.2.4,60.225908102803444,
0,parcelated_audio/23/23_30.ogg,,,,,,,,,0,0,0,0,0,0,0,0,0,0,0,0,,,,,,,,,,,,,0,0,0,0,0,29,29,29,,,,,,,,,,,,,,,,,,,,,,,,,,,,,,,,,,,,,,,,,,,,,,,,,,,,,,,,,,,,,,,,,,,,,,,,,,,,,,,,,,,,,,,,,,,,,,,,,,,,,223.76450658500107,229.68763088900232,,,,,111721,1,2,0,1,1,1,2,0,38,2021_Nov_17_1138,listening_fmri,3.2.4,60.225908102803444,
0,parcelated_audio/23/23_31.ogg,,,,,,,,,0,0,0,0,0,0,0,0,0,0,0,0,,,,,,,,,,,,,0,0,0,0,0,30,30,30,,,,,,,,,,,,,,,,,,,,,,,,,,,,,,,,,,,,,,,,,,,,,,,,,,,,,,,,,,,,,,,,,,,,,,,,,,,,,,,,,,,,,,,,,,,,,,,,,,,,,229.68806189700263,231.70360423500097,,,,,111721,1,2,0,1,1,1,2,0,38,2021_Nov_17_1138,listening_fmri,3.2.4,60.225908102803444,
