count,audio,trials_14.thisRepN,trials_14.thisTrialN,trials_14.thisN,trials_14.thisIndex,trials_3.thisRepN,trials_3.thisTrialN,trials_3.thisN,trials_3.thisIndex,trials_4.thisRepN,trials_4.thisTrialN,trials_4.thisN,trials_4.thisIndex,trials_6.thisRepN,trials_6.thisTrialN,trials_6.thisN,trials_6.thisIndex,trials_9.thisRepN,trials_9.thisTrialN,trials_9.thisN,trials_9.thisIndex,trials_10.thisRepN,trials_10.thisTrialN,trials_10.thisN,trials_10.thisIndex,trials_12.thisRepN,trials_12.thisTrialN,trials_12.thisN,trials_12.thisIndex,trials_25.thisRepN,trials_25.thisTrialN,trials_25.thisN,trials_25.thisIndex,trials_15.thisRepN,trials_15.thisTrialN,trials_15.thisN,trials_15.thisIndex,trials_26.thisRepN,trials_26.thisTrialN,trials_26.thisN,trials_26.thisIndex,story_list_block2,action_list_block2,textTrigger.started,textTrigger.stopped,getTrigger.keys,getTrigger.rt,getTrigger.started,getTrigger.stopped,triggerTime,text_76.started,text_76.stopped,text_77.started,text_77.stopped,startWait,endWait,image_23.started,image_23.stopped,text_55.started,text_55.stopped,text_56.started,text_56.stopped,key_resp_2.keys,key_resp_2.rt,key_resp_2.started,key_resp_2.stopped,text_82.started,text_82.stopped,text_64.started,text_64.stopped,key_resp_20.keys,key_resp_20.rt,key_resp_20.started,key_resp_20.stopped,storyImage_StartTime,storyImage_EndTime,clip_StartTime,clip_EndTime,text_67.started,text_67.stopped,text_68.started,text_68.stopped,participant,sA,sB,lA,lB,block_struct,play_stories,block,behavioral,random_seed,date,expName,psychopyVersion,frameRate,
0,parcelated_audio/21/21_1.ogg,,,,,,,,,0,0,0,0,0,0,0,0,0,0,0,0,,,,,,,,,0,0,0,0,0,0,0,0,,,,,[21 43 23 34 41 32 12 14],[4 2 2 1 4 3 3 1],19.27842622999924,None,equal,30.575857931999963,19.27842622999924,None,30.596426791999875,19.27842622999924,None,19.27842622999924,None,0.00032985500001814216,5.998982375000196,49.8796614719995,None,55.878261736999775,None,55.878261736999775,None,2,3.101937395999812,55.878261736999775,None,55.878261736999775,None,59.01277767800002,None,2,1.5695052569999461,59.01277767800002,None,10.73904951500026,13.748479677999967,13.753616283000156,28.028244783000446,,,,,102921,0,2,1,2,1,1,2,0,20,2021_Oct_29_1526,listening_fmri,3.2.4,59.93022707212587,
0,parcelated_audio/21/21_2.ogg,,,,,,,,,0,0,0,0,0,0,0,0,0,0,0,0,,,,,,,,,0,0,0,0,0,1,1,1,,,,,,,,,,,,,,,,,,,,,,,,,,,,,,,,,,,,,,,,28.028516733999822,35.46320724100042,,,,,102921,0,2,1,2,1,1,2,0,20,2021_Oct_29_1526,listening_fmri,3.2.4,59.93022707212587,
0,parcelated_audio/21/21_3.ogg,,,,,,,,,0,0,0,0,0,0,0,0,0,0,0,0,,,,,,,,,0,0,0,0,0,2,2,2,,,,,,,,,,,,,,,,,,,,,,,,,,,,,,,,,,,,,,,,35.464867759999834,43.14963179000006,,,,,102921,0,2,1,2,1,1,2,0,20,2021_Oct_29_1526,listening_fmri,3.2.4,59.93022707212587,
0,parcelated_audio/21/21_4.ogg,,,,,,,,,0,0,0,0,0,0,0,0,0,0,0,0,,,,,,,,,0,0,0,0,0,3,3,3,,,,,,,,,,,,,,,,,,,,,,,,,,,,,,,,,,,,,,,,43.15000144300029,54.188766723999834,,,,,102921,0,2,1,2,1,1,2,0,20,2021_Oct_29_1526,listening_fmri,3.2.4,59.93022707212587,
0,parcelated_audio/21/21_5.ogg,,,,,,,,,0,0,0,0,0,0,0,0,0,0,0,0,,,,,,,,,0,0,0,0,0,4,4,4,,,,,,,,,,,,,,,,,,,,,,,,,,,,,,,,,,,,,,,,54.18919344599999,59.247678057000485,,,,,102921,0,2,1,2,1,1,2,0,20,2021_Oct_29_1526,listening_fmri,3.2.4,59.93022707212587,
0,parcelated_audio/21/21_6.ogg,,,,,,,,,0,0,0,0,0,0,0,0,0,0,0,0,,,,,,,,,0,0,0,0,0,5,5,5,,,,,,,,,,,,,,,,,,,,,,,,,,,,,,,,,,,,,,,,59.24816457399993,67.41190276799989,,,,,102921,0,2,1,2,1,1,2,0,20,2021_Oct_29_1526,listening_fmri,3.2.4,59.93022707212587,
0,parcelated_audio/21/21_7.ogg,,,,,,,,,0,0,0,0,0,0,0,0,0,0,0,0,,,,,,,,,0,0,0,0,0,6,6,6,,,,,,,,,,,,,,,,,,,,,,,,,,,,,,,,,,,,,,,,67.41241727099987,71.92734266900061,,,,,102921,0,2,1,2,1,1,2,0,20,2021_Oct_29_1526,listening_fmri,3.2.4,59.93022707212587,
0,parcelated_audio/21/21_8.ogg,,,,,,,,,0,0,0,0,0,0,0,0,0,0,0,0,,,,,,,,,0,0,0,0,0,7,7,7,,,,,,,,,,,,,,,,,,,,,,,,,,,,,,,,,,,,,,,,71.92786206600067,82.8653838350001,,,,,102921,0,2,1,2,1,1,2,0,20,2021_Oct_29_1526,listening_fmri,3.2.4,59.93022707212587,
0,parcelated_audio/21/21_9.ogg,,,,,,,,,0,0,0,0,0,0,0,0,0,0,0,0,,,,,,,,,0,0,0,0,0,8,8,8,,,,,,,,,,,,,,,,,,,,,,,,,,,,,,,,,,,,,,,,82.86588212900006,90.2385155740003,,,,,102921,0,2,1,2,1,1,2,0,20,2021_Oct_29_1526,listening_fmri,3.2.4,59.93022707212587,
0,parcelated_audio/21/21_10.ogg,,,,,,,,,0,0,0,0,0,0,0,0,0,0,0,0,,,,,,,,,0,0,0,0,0,9,9,9,,,,,,,,,,,,,,,,,,,,,,,,,,,,,,,,,,,,,,,,90.23901607500011,97.0994743350002,,,,,102921,0,2,1,2,1,1,2,0,20,2021_Oct_29_1526,listening_fmri,3.2.4,59.93022707212587,
0,parcelated_audio/21/21_11.ogg,,,,,,,,,0,0,0,0,0,0,0,0,0,0,0,0,,,,,,,,,0,0,0,0,0,10,10,10,,,,,,,,,,,,,,,,,,,,,,,,,,,,,,,,,,,,,,,,97.09982204000062,104.20070867800041,,,,,102921,0,2,1,2,1,1,2,0,20,2021_Oct_29_1526,listening_fmri,3.2.4,59.93022707212587,
0,parcelated_audio/21/21_12.ogg,,,,,,,,,0,0,0,0,0,0,0,0,0,0,0,0,,,,,,,,,0,0,0,0,0,11,11,11,,,,,,,,,,,,,,,,,,,,,,,,,,,,,,,,,,,,,,,,104.20120766200034,112.51431823199982,,,,,102921,0,2,1,2,1,1,2,0,20,2021_Oct_29_1526,listening_fmri,3.2.4,59.93022707212587,
0,parcelated_audio/21/21_13.ogg,,,,,,,,,0,0,0,0,0,0,0,0,0,0,0,0,,,,,,,,,0,0,0,0,0,12,12,12,,,,,,,,,,,,,,,,,,,,,,,,,,,,,,,,,,,,,,,,112.51479307499994,115.84834330300055,,,,,102921,0,2,1,2,1,1,2,0,20,2021_Oct_29_1526,listening_fmri,3.2.4,59.93022707212587,
0,parcelated_audio/21/21_14.ogg,,,,,,,,,0,0,0,0,0,0,0,0,0,0,0,0,,,,,,,,,0,0,0,0,0,13,13,13,,,,,,,,,,,,,,,,,,,,,,,,,,,,,,,,,,,,,,,,115.84878870500052,121.26231453299988,,,,,102921,0,2,1,2,1,1,2,0,20,2021_Oct_29_1526,listening_fmri,3.2.4,59.93022707212587,
0,parcelated_audio/21/21_15.ogg,,,,,,,,,0,0,0,0,0,0,0,0,0,0,0,0,,,,,,,,,0,0,0,0,0,14,14,14,,,,,,,,,,,,,,,,,,,,,,,,,,,,,,,,,,,,,,,,121.26267990500037,128.07761507099985,,,,,102921,0,2,1,2,1,1,2,0,20,2021_Oct_29_1526,listening_fmri,3.2.4,59.93022707212587,
0,parcelated_audio/21/21_16.ogg,,,,,,,,,0,0,0,0,0,0,0,0,0,0,0,0,,,,,,,,,0,0,0,0,0,15,15,15,,,,,,,,,,,,,,,,,,,,,,,,,,,,,,,,,,,,,,,,128.0778716499999,134.15425817899995,,,,,102921,0,2,1,2,1,1,2,0,20,2021_Oct_29_1526,listening_fmri,3.2.4,59.93022707212587,
0,parcelated_audio/21/21_17.ogg,,,,,,,,,0,0,0,0,0,0,0,0,0,0,0,0,,,,,,,,,0,0,0,0,0,16,16,16,,,,,,,,,,,,,,,,,,,,,,,,,,,,,,,,,,,,,,,,134.1546600370002,136.31572901600066,,,,,102921,0,2,1,2,1,1,2,0,20,2021_Oct_29_1526,listening_fmri,3.2.4,59.93022707212587,
0,parcelated_audio/21/21_18.ogg,,,,,,,,,0,0,0,0,0,0,0,0,0,0,0,0,,,,,,,,,0,0,0,0,0,17,17,17,,,,,,,,,,,,,,,,,,,,,,,,,,,,,,,,,,,,,,,,136.316004712,149.460772335,,,,,102921,0,2,1,2,1,1,2,0,20,2021_Oct_29_1526,listening_fmri,3.2.4,59.93022707212587,
0,parcelated_audio/21/21_19.ogg,,,,,,,,,0,0,0,0,0,0,0,0,0,0,0,0,,,,,,,,,0,0,0,0,0,18,18,18,,,,,,,,,,,,,,,,,,,,,,,,,,,,,,,,,,,,,,,,149.46173697199993,152.33436652300043,,,,,102921,0,2,1,2,1,1,2,0,20,2021_Oct_29_1526,listening_fmri,3.2.4,59.93022707212587,
0,parcelated_audio/21/21_20.ogg,,,,,,,,,0,0,0,0,0,0,0,0,0,0,0,0,,,,,,,,,0,0,0,0,0,19,19,19,,,,,,,,,,,,,,,,,,,,,,,,,,,,,,,,,,,,,,,,152.33501184600027,161.06871022199994,,,,,102921,0,2,1,2,1,1,2,0,20,2021_Oct_29_1526,listening_fmri,3.2.4,59.93022707212587,
0,parcelated_audio/21/21_21.ogg,,,,,,,,,0,0,0,0,0,0,0,0,0,0,0,0,,,,,,,,,0,0,0,0,0,20,20,20,,,,,,,,,,,,,,,,,,,,,,,,,,,,,,,,,,,,,,,,161.06970640800046,172.11354184999982,,,,,102921,0,2,1,2,1,1,2,0,20,2021_Oct_29_1526,listening_fmri,3.2.4,59.93022707212587,
0,parcelated_audio/21/21_22.ogg,,,,,,,,,0,0,0,0,0,0,0,0,0,0,0,0,,,,,,,,,0,0,0,0,0,21,21,21,,,,,,,,,,,,,,,,,,,,,,,,,,,,,,,,,,,,,,,,172.11401253300028,183.01533484999982,,,,,102921,0,2,1,2,1,1,2,0,20,2021_Oct_29_1526,listening_fmri,3.2.4,59.93022707212587,
0,parcelated_audio/21/21_23.ogg,,,,,,,,,0,0,0,0,0,0,0,0,0,0,0,0,,,,,,,,,0,0,0,0,0,22,22,22,,,,,,,,,,,,,,,,,,,,,,,,,,,,,,,,,,,,,,,,183.0158444509998,187.977058081,,,,,102921,0,2,1,2,1,1,2,0,20,2021_Oct_29_1526,listening_fmri,3.2.4,59.93022707212587,
0,parcelated_audio/21/21_24.ogg,,,,,,,,,0,0,0,0,0,0,0,0,0,0,0,0,,,,,,,,,0,0,0,0,0,23,23,23,,,,,,,,,,,,,,,,,,,,,,,,,,,,,,,,,,,,,,,,187.97758012299983,192.56397191999986,,,,,102921,0,2,1,2,1,1,2,0,20,2021_Oct_29_1526,listening_fmri,3.2.4,59.93022707212587,
0,parcelated_audio/21/21_25.ogg,,,,,,,,,0,0,0,0,0,0,0,0,0,0,0,0,,,,,,,,,0,0,0,0,0,24,24,24,,,,,,,,,,,,,,,,,,,,,,,,,,,,,,,,,,,,,,,,192.56429792000017,202.0132787930006,,,,,102921,0,2,1,2,1,1,2,0,20,2021_Oct_29_1526,listening_fmri,3.2.4,59.93022707212587,
0,parcelated_audio/21/21_26.ogg,,,,,,,,,0,0,0,0,0,0,0,0,0,0,0,0,,,,,,,,,0,0,0,0,0,25,25,25,,,,,,,,,,,,,,,,,,,,,,,,,,,,,,,,,,,,,,,,202.0136938200003,206.0152561370005,,,,,102921,0,2,1,2,1,1,2,0,20,2021_Oct_29_1526,listening_fmri,3.2.4,59.93022707212587,
0,parcelated_audio/21/21_27.ogg,,,,,,,,,0,0,0,0,0,0,0,0,0,0,0,0,,,,,,,,,0,0,0,0,0,26,26,26,,,,,,,,,,,,,,,,,,,,,,,,,,,,,,,,,,,,,,,,206.01551515700066,213.21520702900034,,,,,102921,0,2,1,2,1,1,2,0,20,2021_Oct_29_1526,listening_fmri,3.2.4,59.93022707212587,
0,parcelated_audio/21/21_28.ogg,,,,,,,,,0,0,0,0,0,0,0,0,0,0,0,0,,,,,,,,,0,0,0,0,0,27,27,27,,,,,,,,,,,,,,,,,,,,,,,,,,,,,,,,,,,,,,,,213.2156062740005,219.3311597540005,,,,,102921,0,2,1,2,1,1,2,0,20,2021_Oct_29_1526,listening_fmri,3.2.4,59.93022707212587,
0,parcelated_audio/21/21_29.ogg,,,,,,,,,0,0,0,0,0,0,0,0,0,0,0,0,,,,,,,,,0,0,0,0,0,28,28,28,,,,,,,,,,,,,,,,,,,,,,,,,,,,,,,,,,,,,,,,219.33143404100065,223.58586010199997,,,,,102921,0,2,1,2,1,1,2,0,20,2021_Oct_29_1526,listening_fmri,3.2.4,59.93022707212587,
0,parcelated_audio/21/21_30.ogg,,,,,,,,,0,0,0,0,0,0,0,0,0,0,0,0,,,,,,,,,0,0,0,0,0,29,29,29,,,,,,,,,,,,,,,,,,,,,,,,,,,,,,,,,,,,,,,,223.58621282700005,228.84714644199994,,,,,102921,0,2,1,2,1,1,2,0,20,2021_Oct_29_1526,listening_fmri,3.2.4,59.93022707212587,
0,,,,,,,,,,0,0,0,0,0,0,0,0,0,0,0,0,,,,,,,,,0,0,0,0,,,,,,,,,,,,,,,,,,,,,,,,,,,,,,,,,,,,,,,,,,,,,,,,,,102921,0,2,1,2,1,1,2,0,20,2021_Oct_29_1526,listening_fmri,3.2.4,59.93022707212587,
,,,,,,,,,,,,,,,,,,,,,,,,,,,,,,,,,,,,,,,,,,,,,,,,,,,,,,,228.8475585240003,234.84276989800037,278.7225483759994,None,,,,,,,,,,,,,,,,,,,,,284.72268251399964,None,284.72268251399964,None,,,,,,,,,,,,,,,
﻿count,audio,trials_14.thisRepN,trials_14.thisTrialN,trials_14.thisN,trials_14.thisIndex,trials_3.thisRepN,trials_3.thisTrialN,trials_3.thisN,trials_3.thisIndex,trials_4.thisRepN,trials_4.thisTrialN,trials_4.thisN,trials_4.thisIndex,trials_6.thisRepN,trials_6.thisTrialN,trials_6.thisN,trials_6.thisIndex,trials_9.thisRepN,trials_9.thisTrialN,trials_9.thisN,trials_9.thisIndex,trials_10.thisRepN,trials_10.thisTrialN,trials_10.thisN,trials_10.thisIndex,trials_12.thisRepN,trials_12.thisTrialN,trials_12.thisN,trials_12.thisIndex,trials_25.thisRepN,trials_25.thisTrialN,trials_25.thisN,trials_25.thisIndex,trials_15.thisRepN,trials_15.thisTrialN,trials_15.thisN,trials_15.thisIndex,trials_26.thisRepN,trials_26.thisTrialN,trials_26.thisN,trials_26.thisIndex,trials_11.thisRepN,trials_11.thisTrialN,trials_11.thisN,trials_11.thisIndex,story_list_block2,action_list_block2,textTrigger.started,textTrigger.stopped,getTrigger.keys,getTrigger.rt,getTrigger.started,getTrigger.stopped,triggerTime,text_76.started,text_76.stopped,text_77.started,text_77.stopped,startWait,endWait,image_23.started,image_23.stopped,text_55.started,text_55.stopped,text_56.started,text_56.stopped,key_resp_2.keys,key_resp_2.rt,key_resp_2.started,key_resp_2.stopped,text_82.started,text_82.stopped,text_64.started,text_64.stopped,key_resp_20.keys,key_resp_20.rt,key_resp_20.started,key_resp_20.stopped,storyImage_StartTime,storyImage_EndTime,clip_StartTime,clip_EndTime,text_67.started,text_67.stopped,text_68.started,text_68.stopped,text_57.started,text_57.stopped,key_resp_17.keys,key_resp_17.rt,key_resp_17.started,key_resp_17.stopped,text_83.started,text_83.stopped,text_60.started,text_60.stopped,image_2.started,image_2.stopped,text_58.started,text_58.stopped,key_resp_23.keys,key_resp_23.rt,key_resp_23.started,key_resp_23.stopped,text_62.started,text_62.stopped,key_resp_18.keys,key_resp_18.rt,key_resp_18.started,key_resp_18.stopped,text_84.started,text_84.stopped,question1_2.started,question1_2.stopped,question2_2.started,question2_2.stopped,question3_2.started,question3_2.stopped,question4_2.started,question4_2.stopped,question5_2.started,question5_2.stopped,question6_2.started,question6_2.stopped,image_15.started,image_15.stopped,key_resp.keys,key_resp.started,key_resp.stopped,text_59.started,text_59.stopped,key_resp_19.keys,key_resp_19.rt,key_resp_19.started,key_resp_19.stopped,text_85.started,text_85.stopped,text_61.started,text_61.stopped,image_17.started,image_17.stopped,text_63.started,text_63.stopped,key_resp_24.keys,key_resp_24.rt,key_resp_24.started,key_resp_24.stopped,participant,sA,sB,lA,lB,block_struct,play_stories,block,behavioral,random_seed,date,expName,psychopyVersion,frameRate,
0,parcelated_audio/21/21_1.ogg,,,,,,,,,0,0,0,0,0,0,0,0,0,0,0,0,,,,,,,,,0,0,0,0,0,0,0,0,,,,,,,,,[21 43 23 34 41 32 12 14],[4 2 2 1 4 3 3 1],19.27842622999924,None,equal,30.575857931999963,19.27842622999924,None,30.596426791999875,19.27842622999924,None,19.27842622999924,None,0.00032985500001814216,5.998982375000196,49.8796614719995,None,55.878261736999775,None,55.878261736999775,None,2,3.101937395999812,55.878261736999775,None,55.878261736999775,None,59.01277767800002,None,2,1.5695052569999461,59.01277767800002,None,10.73904951500026,13.748479677999967,13.753616283000156,28.028244783000446,,,,,,,,,,,,,,,,,,,,,,,,,,,,,,,,,,,,,,,,,,,,,,,,,,,,,,,,,,,,,,,,,,102921,0,2,1,2,1,1,2,0,20,2021_Oct_29_1526,listening_fmri,3.2.4,59.93022707212587,
0,parcelated_audio/21/21_2.ogg,,,,,,,,,0,0,0,0,0,0,0,0,0,0,0,0,,,,,,,,,0,0,0,0,0,1,1,1,,,,,,,,,,,,,,,,,,,,,,,,,,,,,,,,,,,,,,,,,,,,28.028516733999822,35.46320724100042,,,,,,,,,,,,,,,,,,,,,,,,,,,,,,,,,,,,,,,,,,,,,,,,,,,,,,,,,,,,,,,,,,102921,0,2,1,2,1,1,2,0,20,2021_Oct_29_1526,listening_fmri,3.2.4,59.93022707212587,
0,parcelated_audio/21/21_3.ogg,,,,,,,,,0,0,0,0,0,0,0,0,0,0,0,0,,,,,,,,,0,0,0,0,0,2,2,2,,,,,,,,,,,,,,,,,,,,,,,,,,,,,,,,,,,,,,,,,,,,35.464867759999834,43.14963179000006,,,,,,,,,,,,,,,,,,,,,,,,,,,,,,,,,,,,,,,,,,,,,,,,,,,,,,,,,,,,,,,,,,102921,0,2,1,2,1,1,2,0,20,2021_Oct_29_1526,listening_fmri,3.2.4,59.93022707212587,
0,parcelated_audio/21/21_4.ogg,,,,,,,,,0,0,0,0,0,0,0,0,0,0,0,0,,,,,,,,,0,0,0,0,0,3,3,3,,,,,,,,,,,,,,,,,,,,,,,,,,,,,,,,,,,,,,,,,,,,43.15000144300029,54.188766723999834,,,,,,,,,,,,,,,,,,,,,,,,,,,,,,,,,,,,,,,,,,,,,,,,,,,,,,,,,,,,,,,,,,102921,0,2,1,2,1,1,2,0,20,2021_Oct_29_1526,listening_fmri,3.2.4,59.93022707212587,
0,parcelated_audio/21/21_5.ogg,,,,,,,,,0,0,0,0,0,0,0,0,0,0,0,0,,,,,,,,,0,0,0,0,0,4,4,4,,,,,,,,,,,,,,,,,,,,,,,,,,,,,,,,,,,,,,,,,,,,54.18919344599999,59.247678057000485,,,,,,,,,,,,,,,,,,,,,,,,,,,,,,,,,,,,,,,,,,,,,,,,,,,,,,,,,,,,,,,,,,102921,0,2,1,2,1,1,2,0,20,2021_Oct_29_1526,listening_fmri,3.2.4,59.93022707212587,
0,parcelated_audio/21/21_6.ogg,,,,,,,,,0,0,0,0,0,0,0,0,0,0,0,0,,,,,,,,,0,0,0,0,0,5,5,5,,,,,,,,,,,,,,,,,,,,,,,,,,,,,,,,,,,,,,,,,,,,59.24816457399993,67.41190276799989,,,,,,,,,,,,,,,,,,,,,,,,,,,,,,,,,,,,,,,,,,,,,,,,,,,,,,,,,,,,,,,,,,102921,0,2,1,2,1,1,2,0,20,2021_Oct_29_1526,listening_fmri,3.2.4,59.93022707212587,
0,parcelated_audio/21/21_7.ogg,,,,,,,,,0,0,0,0,0,0,0,0,0,0,0,0,,,,,,,,,0,0,0,0,0,6,6,6,,,,,,,,,,,,,,,,,,,,,,,,,,,,,,,,,,,,,,,,,,,,67.41241727099987,71.92734266900061,,,,,,,,,,,,,,,,,,,,,,,,,,,,,,,,,,,,,,,,,,,,,,,,,,,,,,,,,,,,,,,,,,102921,0,2,1,2,1,1,2,0,20,2021_Oct_29_1526,listening_fmri,3.2.4,59.93022707212587,
0,parcelated_audio/21/21_8.ogg,,,,,,,,,0,0,0,0,0,0,0,0,0,0,0,0,,,,,,,,,0,0,0,0,0,7,7,7,,,,,,,,,,,,,,,,,,,,,,,,,,,,,,,,,,,,,,,,,,,,71.92786206600067,82.8653838350001,,,,,,,,,,,,,,,,,,,,,,,,,,,,,,,,,,,,,,,,,,,,,,,,,,,,,,,,,,,,,,,,,,102921,0,2,1,2,1,1,2,0,20,2021_Oct_29_1526,listening_fmri,3.2.4,59.93022707212587,
0,parcelated_audio/21/21_9.ogg,,,,,,,,,0,0,0,0,0,0,0,0,0,0,0,0,,,,,,,,,0,0,0,0,0,8,8,8,,,,,,,,,,,,,,,,,,,,,,,,,,,,,,,,,,,,,,,,,,,,82.86588212900006,90.2385155740003,,,,,,,,,,,,,,,,,,,,,,,,,,,,,,,,,,,,,,,,,,,,,,,,,,,,,,,,,,,,,,,,,,102921,0,2,1,2,1,1,2,0,20,2021_Oct_29_1526,listening_fmri,3.2.4,59.93022707212587,
0,parcelated_audio/21/21_10.ogg,,,,,,,,,0,0,0,0,0,0,0,0,0,0,0,0,,,,,,,,,0,0,0,0,0,9,9,9,,,,,,,,,,,,,,,,,,,,,,,,,,,,,,,,,,,,,,,,,,,,90.23901607500011,97.0994743350002,,,,,,,,,,,,,,,,,,,,,,,,,,,,,,,,,,,,,,,,,,,,,,,,,,,,,,,,,,,,,,,,,,102921,0,2,1,2,1,1,2,0,20,2021_Oct_29_1526,listening_fmri,3.2.4,59.93022707212587,
0,parcelated_audio/21/21_11.ogg,,,,,,,,,0,0,0,0,0,0,0,0,0,0,0,0,,,,,,,,,0,0,0,0,0,10,10,10,,,,,,,,,,,,,,,,,,,,,,,,,,,,,,,,,,,,,,,,,,,,97.09982204000062,104.20070867800041,,,,,,,,,,,,,,,,,,,,,,,,,,,,,,,,,,,,,,,,,,,,,,,,,,,,,,,,,,,,,,,,,,102921,0,2,1,2,1,1,2,0,20,2021_Oct_29_1526,listening_fmri,3.2.4,59.93022707212587,
0,parcelated_audio/21/21_12.ogg,,,,,,,,,0,0,0,0,0,0,0,0,0,0,0,0,,,,,,,,,0,0,0,0,0,11,11,11,,,,,,,,,,,,,,,,,,,,,,,,,,,,,,,,,,,,,,,,,,,,104.20120766200034,112.51431823199982,,,,,,,,,,,,,,,,,,,,,,,,,,,,,,,,,,,,,,,,,,,,,,,,,,,,,,,,,,,,,,,,,,102921,0,2,1,2,1,1,2,0,20,2021_Oct_29_1526,listening_fmri,3.2.4,59.93022707212587,
0,parcelated_audio/21/21_13.ogg,,,,,,,,,0,0,0,0,0,0,0,0,0,0,0,0,,,,,,,,,0,0,0,0,0,12,12,12,,,,,,,,,,,,,,,,,,,,,,,,,,,,,,,,,,,,,,,,,,,,112.51479307499994,115.84834330300055,,,,,,,,,,,,,,,,,,,,,,,,,,,,,,,,,,,,,,,,,,,,,,,,,,,,,,,,,,,,,,,,,,102921,0,2,1,2,1,1,2,0,20,2021_Oct_29_1526,listening_fmri,3.2.4,59.93022707212587,
0,parcelated_audio/21/21_14.ogg,,,,,,,,,0,0,0,0,0,0,0,0,0,0,0,0,,,,,,,,,0,0,0,0,0,13,13,13,,,,,,,,,,,,,,,,,,,,,,,,,,,,,,,,,,,,,,,,,,,,115.84878870500052,121.26231453299988,,,,,,,,,,,,,,,,,,,,,,,,,,,,,,,,,,,,,,,,,,,,,,,,,,,,,,,,,,,,,,,,,,102921,0,2,1,2,1,1,2,0,20,2021_Oct_29_1526,listening_fmri,3.2.4,59.93022707212587,
0,parcelated_audio/21/21_15.ogg,,,,,,,,,0,0,0,0,0,0,0,0,0,0,0,0,,,,,,,,,0,0,0,0,0,14,14,14,,,,,,,,,,,,,,,,,,,,,,,,,,,,,,,,,,,,,,,,,,,,121.26267990500037,128.07761507099985,,,,,,,,,,,,,,,,,,,,,,,,,,,,,,,,,,,,,,,,,,,,,,,,,,,,,,,,,,,,,,,,,,102921,0,2,1,2,1,1,2,0,20,2021_Oct_29_1526,listening_fmri,3.2.4,59.93022707212587,
0,parcelated_audio/21/21_16.ogg,,,,,,,,,0,0,0,0,0,0,0,0,0,0,0,0,,,,,,,,,0,0,0,0,0,15,15,15,,,,,,,,,,,,,,,,,,,,,,,,,,,,,,,,,,,,,,,,,,,,128.0778716499999,134.15425817899995,,,,,,,,,,,,,,,,,,,,,,,,,,,,,,,,,,,,,,,,,,,,,,,,,,,,,,,,,,,,,,,,,,102921,0,2,1,2,1,1,2,0,20,2021_Oct_29_1526,listening_fmri,3.2.4,59.93022707212587,
0,parcelated_audio/21/21_17.ogg,,,,,,,,,0,0,0,0,0,0,0,0,0,0,0,0,,,,,,,,,0,0,0,0,0,16,16,16,,,,,,,,,,,,,,,,,,,,,,,,,,,,,,,,,,,,,,,,,,,,134.1546600370002,136.31572901600066,,,,,,,,,,,,,,,,,,,,,,,,,,,,,,,,,,,,,,,,,,,,,,,,,,,,,,,,,,,,,,,,,,102921,0,2,1,2,1,1,2,0,20,2021_Oct_29_1526,listening_fmri,3.2.4,59.93022707212587,
0,parcelated_audio/21/21_18.ogg,,,,,,,,,0,0,0,0,0,0,0,0,0,0,0,0,,,,,,,,,0,0,0,0,0,17,17,17,,,,,,,,,,,,,,,,,,,,,,,,,,,,,,,,,,,,,,,,,,,,136.316004712,149.460772335,,,,,,,,,,,,,,,,,,,,,,,,,,,,,,,,,,,,,,,,,,,,,,,,,,,,,,,,,,,,,,,,,,102921,0,2,1,2,1,1,2,0,20,2021_Oct_29_1526,listening_fmri,3.2.4,59.93022707212587,
0,parcelated_audio/21/21_19.ogg,,,,,,,,,0,0,0,0,0,0,0,0,0,0,0,0,,,,,,,,,0,0,0,0,0,18,18,18,,,,,,,,,,,,,,,,,,,,,,,,,,,,,,,,,,,,,,,,,,,,149.46173697199993,152.33436652300043,,,,,,,,,,,,,,,,,,,,,,,,,,,,,,,,,,,,,,,,,,,,,,,,,,,,,,,,,,,,,,,,,,102921,0,2,1,2,1,1,2,0,20,2021_Oct_29_1526,listening_fmri,3.2.4,59.93022707212587,
0,parcelated_audio/21/21_20.ogg,,,,,,,,,0,0,0,0,0,0,0,0,0,0,0,0,,,,,,,,,0,0,0,0,0,19,19,19,,,,,,,,,,,,,,,,,,,,,,,,,,,,,,,,,,,,,,,,,,,,152.33501184600027,161.06871022199994,,,,,,,,,,,,,,,,,,,,,,,,,,,,,,,,,,,,,,,,,,,,,,,,,,,,,,,,,,,,,,,,,,102921,0,2,1,2,1,1,2,0,20,2021_Oct_29_1526,listening_fmri,3.2.4,59.93022707212587,
0,parcelated_audio/21/21_21.ogg,,,,,,,,,0,0,0,0,0,0,0,0,0,0,0,0,,,,,,,,,0,0,0,0,0,20,20,20,,,,,,,,,,,,,,,,,,,,,,,,,,,,,,,,,,,,,,,,,,,,161.06970640800046,172.11354184999982,,,,,,,,,,,,,,,,,,,,,,,,,,,,,,,,,,,,,,,,,,,,,,,,,,,,,,,,,,,,,,,,,,102921,0,2,1,2,1,1,2,0,20,2021_Oct_29_1526,listening_fmri,3.2.4,59.93022707212587,
0,parcelated_audio/21/21_22.ogg,,,,,,,,,0,0,0,0,0,0,0,0,0,0,0,0,,,,,,,,,0,0,0,0,0,21,21,21,,,,,,,,,,,,,,,,,,,,,,,,,,,,,,,,,,,,,,,,,,,,172.11401253300028,183.01533484999982,,,,,,,,,,,,,,,,,,,,,,,,,,,,,,,,,,,,,,,,,,,,,,,,,,,,,,,,,,,,,,,,,,102921,0,2,1,2,1,1,2,0,20,2021_Oct_29_1526,listening_fmri,3.2.4,59.93022707212587,
0,parcelated_audio/21/21_23.ogg,,,,,,,,,0,0,0,0,0,0,0,0,0,0,0,0,,,,,,,,,0,0,0,0,0,22,22,22,,,,,,,,,,,,,,,,,,,,,,,,,,,,,,,,,,,,,,,,,,,,183.0158444509998,187.977058081,,,,,,,,,,,,,,,,,,,,,,,,,,,,,,,,,,,,,,,,,,,,,,,,,,,,,,,,,,,,,,,,,,102921,0,2,1,2,1,1,2,0,20,2021_Oct_29_1526,listening_fmri,3.2.4,59.93022707212587,
0,parcelated_audio/21/21_24.ogg,,,,,,,,,0,0,0,0,0,0,0,0,0,0,0,0,,,,,,,,,0,0,0,0,0,23,23,23,,,,,,,,,,,,,,,,,,,,,,,,,,,,,,,,,,,,,,,,,,,,187.97758012299983,192.56397191999986,,,,,,,,,,,,,,,,,,,,,,,,,,,,,,,,,,,,,,,,,,,,,,,,,,,,,,,,,,,,,,,,,,102921,0,2,1,2,1,1,2,0,20,2021_Oct_29_1526,listening_fmri,3.2.4,59.93022707212587,
0,parcelated_audio/21/21_25.ogg,,,,,,,,,0,0,0,0,0,0,0,0,0,0,0,0,,,,,,,,,0,0,0,0,0,24,24,24,,,,,,,,,,,,,,,,,,,,,,,,,,,,,,,,,,,,,,,,,,,,192.56429792000017,202.0132787930006,,,,,,,,,,,,,,,,,,,,,,,,,,,,,,,,,,,,,,,,,,,,,,,,,,,,,,,,,,,,,,,,,,102921,0,2,1,2,1,1,2,0,20,2021_Oct_29_1526,listening_fmri,3.2.4,59.93022707212587,
0,parcelated_audio/21/21_26.ogg,,,,,,,,,0,0,0,0,0,0,0,0,0,0,0,0,,,,,,,,,0,0,0,0,0,25,25,25,,,,,,,,,,,,,,,,,,,,,,,,,,,,,,,,,,,,,,,,,,,,202.0136938200003,206.0152561370005,,,,,,,,,,,,,,,,,,,,,,,,,,,,,,,,,,,,,,,,,,,,,,,,,,,,,,,,,,,,,,,,,,102921,0,2,1,2,1,1,2,0,20,2021_Oct_29_1526,listening_fmri,3.2.4,59.93022707212587,
0,parcelated_audio/21/21_27.ogg,,,,,,,,,0,0,0,0,0,0,0,0,0,0,0,0,,,,,,,,,0,0,0,0,0,26,26,26,,,,,,,,,,,,,,,,,,,,,,,,,,,,,,,,,,,,,,,,,,,,206.01551515700066,213.21520702900034,,,,,,,,,,,,,,,,,,,,,,,,,,,,,,,,,,,,,,,,,,,,,,,,,,,,,,,,,,,,,,,,,,102921,0,2,1,2,1,1,2,0,20,2021_Oct_29_1526,listening_fmri,3.2.4,59.93022707212587,
0,parcelated_audio/21/21_28.ogg,,,,,,,,,0,0,0,0,0,0,0,0,0,0,0,0,,,,,,,,,0,0,0,0,0,27,27,27,,,,,,,,,,,,,,,,,,,,,,,,,,,,,,,,,,,,,,,,,,,,213.2156062740005,219.3311597540005,,,,,,,,,,,,,,,,,,,,,,,,,,,,,,,,,,,,,,,,,,,,,,,,,,,,,,,,,,,,,,,,,,102921,0,2,1,2,1,1,2,0,20,2021_Oct_29_1526,listening_fmri,3.2.4,59.93022707212587,
0,parcelated_audio/21/21_29.ogg,,,,,,,,,0,0,0,0,0,0,0,0,0,0,0,0,,,,,,,,,0,0,0,0,0,28,28,28,,,,,,,,,,,,,,,,,,,,,,,,,,,,,,,,,,,,,,,,,,,,219.33143404100065,223.58586010199997,,,,,,,,,,,,,,,,,,,,,,,,,,,,,,,,,,,,,,,,,,,,,,,,,,,,,,,,,,,,,,,,,,102921,0,2,1,2,1,1,2,0,20,2021_Oct_29_1526,listening_fmri,3.2.4,59.93022707212587,
0,parcelated_audio/21/21_30.ogg,,,,,,,,,0,0,0,0,0,0,0,0,0,0,0,0,,,,,,,,,0,0,0,0,0,29,29,29,,,,,,,,,,,,,,,,,,,,,,,,,,,,,,,,,,,,,,,,,,,,223.58621282700005,228.84714644199994,,,,,,,,,,,,,,,,,,,,,,,,,,,,,,,,,,,,,,,,,,,,,,,,,,,,,,,,,,,,,,,,,,102921,0,2,1,2,1,1,2,0,20,2021_Oct_29_1526,listening_fmri,3.2.4,59.93022707212587,
0,,,,,,,,,,0,0,0,0,0,0,0,0,0,0,0,0,,,,,,,,,0,0,0,0,,,,,,,,,,,,,,,,,,,,,,,,,,,,,,,,,,,,,,,,,,,,,,,,,,,,,,,,,,,,,,,,,,,,,,,,,,,,,,,,,,,,,,,,,,,,,,,,,,,,,,,,,,,,,,,,,,,102921,0,2,1,2,1,1,2,0,20,2021_Oct_29_1526,listening_fmri,3.2.4,59.93022707212587,
0,,,,,,,,,,0,0,0,0,0,0,0,0,0,0,0,0,,,,,,,,,,,,,,,,,,,,,,,,,,,,,,,,,,,,,,228.8475585240003,234.84276989800037,278.7225483759994,None,,,,,,,,,,,,,,,,,,,,,284.72268251399964,None,284.72268251399964,None,,,,,,,,,,,,,,,,,,,,,,,,,,,,,,,,,,,,,,,,,,,,,,,,,,,,,,,,,,,,,,102921,0,2,1,2,1,1,2,0,20,2021_Oct_29_1526,listening_fmri,3.2.4,59.93022707212587,
0,,,,,,,,,,0,0,0,0,0,0,0,0,,,,,,,,,,,,,,,,,,,,,,,,,,,,,,,,,,,,,,,,,,,,,,,,,,,,,,,,,,,,,,,,,,,,,,,,,,,,,,,,,,,,,,,,,,,,,,,,,,,,,,,,,,,,,,,,,,,,,,,,,,,,,,,,,,,102921,0,2,1,2,1,1,2,0,20,2021_Oct_29_1526,listening_fmri,3.2.4,59.93022707212587,
1,,,,,,,,,,0,0,0,0,0,1,1,1,0,0,0,0,0,0,0,0,,,,,,,,,,,,,,,,,0,0,0,0,,,,,,,,,,,,,,,,,,285.739306167,None,285.739306167,None,2,1.518864503000259,285.739306167,None,285.739306167,None,,,,,,,,,,,,,,,287.2794436129998,None,2,0.8818234199998187,287.2794436129998,None,287.2794436129998,None,288.2054451239992,None,288.2054451239992,None,288.2054451239992,None,2,1.154841481999938,288.2054451239992,None,289.37933722899925,None,2,1.5479688790001092,289.37933722899925,None,289.37933722899925,None,291.0290988099996,None,291.0290988099996,None,291.0290988099996,None,291.0290988099996,None,291.0290988099996,None,291.0290988099996,None,291.0290988099996,None,None,291.0290988099996,None,,,,,,,,,,,,,,,,,,,102921,0,2,1,2,1,1,2,0,20,2021_Oct_29_1526,listening_fmri,3.2.4,59.93022707212587,
1,,,,,,,,,,0,0,0,0,0,1,1,1,0,0,0,0,0,0,0,0,,,,,,,,,,,,,,,,,,,,,,,,,,,,,,,,,,,,,,,,,,,,,,,,,,,,,,,,,,,,,,,,,,,,,,,,,,,,,,,,,,,,,,,,,,,,,,,,,,,,,,,,,337.32898857999953,None,2,2.2593343789994833,337.32898857999953,None,337.32898857999953,None,339.63014110099994,None,339.63014110099994,None,339.63014110099994,None,2,1.7921550689998185,339.63014110099994,None,102921,0,2,1,2,1,1,2,0,20,2021_Oct_29_1526,listening_fmri,3.2.4,59.93022707212587,
1,parcelated_audio/43/43_1.ogg,,,,,,,,,0,0,0,0,0,1,1,1,0,0,0,0,,,,,,,,,0,0,0,0,0,0,0,0,,,,,,,,,,,,,,,,,,,,,,,,,,,,,,,,,,,,341.44602834799934,None,2,2.2671188410004106,341.44602834799934,None,293.8844897460003,296.8992003230005,296.90482366800006,304.48718518900023,,,,,,,,,,,,,,,,,,,,,,,,,,,,,,,,,,,,,,,,,,,,,,,,,,,,,,,,,,,,,,,,,,102921,0,2,1,2,1,1,2,0,20,2021_Oct_29_1526,listening_fmri,3.2.4,59.93022707212587,
1,parcelated_audio/43/43_2.ogg,,,,,,,,,0,0,0,0,0,1,1,1,0,0,0,0,,,,,,,,,0,0,0,0,0,1,1,1,,,,,,,,,,,,,,,,,,,,,,,,,,,,,,,,,,,,,,,,,,,,304.4874774179998,308.25818805900053,,,,,,,,,,,,,,,,,,,,,,,,,,,,,,,,,,,,,,,,,,,,,,,,,,,,,,,,,,,,,,,,,,102921,0,2,1,2,1,1,2,0,20,2021_Oct_29_1526,listening_fmri,3.2.4,59.93022707212587,
1,parcelated_audio/43/43_3.ogg,,,,,,,,,0,0,0,0,0,1,1,1,0,0,0,0,,,,,,,,,0,0,0,0,0,2,2,2,,,,,,,,,,,,,,,,,,,,,,,,,,,,,,,,,,,,,,,,,,,,308.2585867880007,317.1597092440006,,,,,,,,,,,,,,,,,,,,,,,,,,,,,,,,,,,,,,,,,,,,,,,,,,,,,,,,,,,,,,,,,,102921,0,2,1,2,1,1,2,0,20,2021_Oct_29_1526,listening_fmri,3.2.4,59.93022707212587,
1,parcelated_audio/43/43_4.ogg,,,,,,,,,0,0,0,0,0,1,1,1,0,0,0,0,,,,,,,,,0,0,0,0,0,3,3,3,,,,,,,,,,,,,,,,,,,,,,,,,,,,,,,,,,,,,,,,,,,,317.16006610300064,325.6621885700006,,,,,,,,,,,,,,,,,,,,,,,,,,,,,,,,,,,,,,,,,,,,,,,,,,,,,,,,,,,,,,,,,,102921,0,2,1,2,1,1,2,0,20,2021_Oct_29_1526,listening_fmri,3.2.4,59.93022707212587,
1,parcelated_audio/43/43_5.ogg,,,,,,,,,0,0,0,0,0,1,1,1,0,0,0,0,,,,,,,,,0,0,0,0,0,4,4,4,,,,,,,,,,,,,,,,,,,,,,,,,,,,,,,,,,,,,,,,,,,,325.6629450540004,334.91048673300065,,,,,,,,,,,,,,,,,,,,,,,,,,,,,,,,,,,,,,,,,,,,,,,,,,,,,,,,,,,,,,,,,,102921,0,2,1,2,1,1,2,0,20,2021_Oct_29_1526,listening_fmri,3.2.4,59.93022707212587,
1,parcelated_audio/43/43_6.ogg,,,,,,,,,0,0,0,0,0,1,1,1,0,0,0,0,,,,,,,,,0,0,0,0,0,5,5,5,,,,,,,,,,,,,,,,,,,,,,,,,,,,,,,,,,,,,,,,,,,,334.91083792800055,344.04446744800043,,,,,,,,,,,,,,,,,,,,,,,,,,,,,,,,,,,,,,,,,,,,,,,,,,,,,,,,,,,,,,,,,,102921,0,2,1,2,1,1,2,0,20,2021_Oct_29_1526,listening_fmri,3.2.4,59.93022707212587,
1,parcelated_audio/43/43_7.ogg,,,,,,,,,0,0,0,0,0,1,1,1,0,0,0,0,,,,,,,,,0,0,0,0,0,6,6,6,,,,,,,,,,,,,,,,,,,,,,,,,,,,,,,,,,,,,,,,,,,,344.04494740300015,348.7982424890006,,,,,,,,,,,,,,,,,,,,,,,,,,,,,,,,,,,,,,,,,,,,,,,,,,,,,,,,,,,,,,,,,,102921,0,2,1,2,1,1,2,0,20,2021_Oct_29_1526,listening_fmri,3.2.4,59.93022707212587,
1,parcelated_audio/43/43_8.ogg,,,,,,,,,0,0,0,0,0,1,1,1,0,0,0,0,,,,,,,,,0,0,0,0,0,7,7,7,,,,,,,,,,,,,,,,,,,,,,,,,,,,,,,,,,,,,,,,,,,,348.7985834310002,355.34078376600064,,,,,,,,,,,,,,,,,,,,,,,,,,,,,,,,,,,,,,,,,,,,,,,,,,,,,,,,,,,,,,,,,,102921,0,2,1,2,1,1,2,0,20,2021_Oct_29_1526,listening_fmri,3.2.4,59.93022707212587,
1,parcelated_audio/43/43_9.ogg,,,,,,,,,0,0,0,0,0,1,1,1,0,0,0,0,,,,,,,,,0,0,0,0,0,8,8,8,,,,,,,,,,,,,,,,,,,,,,,,,,,,,,,,,,,,,,,,,,,,355.3410969209999,359.8543334120004,,,,,,,,,,,,,,,,,,,,,,,,,,,,,,,,,,,,,,,,,,,,,,,,,,,,,,,,,,,,,,,,,,102921,0,2,1,2,1,1,2,0,20,2021_Oct_29_1526,listening_fmri,3.2.4,59.93022707212587,
1,parcelated_audio/43/43_10.ogg,,,,,,,,,0,0,0,0,0,1,1,1,0,0,0,0,,,,,,,,,0,0,0,0,0,9,9,9,,,,,,,,,,,,,,,,,,,,,,,,,,,,,,,,,,,,,,,,,,,,359.8547749600002,364.74250929200025,,,,,,,,,,,,,,,,,,,,,,,,,,,,,,,,,,,,,,,,,,,,,,,,,,,,,,,,,,,,,,,,,,102921,0,2,1,2,1,1,2,0,20,2021_Oct_29_1526,listening_fmri,3.2.4,59.93022707212587,
1,parcelated_audio/43/43_11.ogg,,,,,,,,,0,0,0,0,0,1,1,1,0,0,0,0,,,,,,,,,0,0,0,0,0,10,10,10,,,,,,,,,,,,,,,,,,,,,,,,,,,,,,,,,,,,,,,,,,,,364.7428172790005,375.7752214279999,,,,,,,,,,,,,,,,,,,,,,,,,,,,,,,,,,,,,,,,,,,,,,,,,,,,,,,,,,,,,,,,,,102921,0,2,1,2,1,1,2,0,20,2021_Oct_29_1526,listening_fmri,3.2.4,59.93022707212587,
1,parcelated_audio/43/43_12.ogg,,,,,,,,,0,0,0,0,0,1,1,1,0,0,0,0,,,,,,,,,0,0,0,0,0,11,11,11,,,,,,,,,,,,,,,,,,,,,,,,,,,,,,,,,,,,,,,,,,,,375.77551488600056,381.8457917430005,,,,,,,,,,,,,,,,,,,,,,,,,,,,,,,,,,,,,,,,,,,,,,,,,,,,,,,,,,,,,,,,,,102921,0,2,1,2,1,1,2,0,20,2021_Oct_29_1526,listening_fmri,3.2.4,59.93022707212587,
1,parcelated_audio/43/43_13.ogg,,,,,,,,,0,0,0,0,0,1,1,1,0,0,0,0,,,,,,,,,0,0,0,0,0,12,12,12,,,,,,,,,,,,,,,,,,,,,,,,,,,,,,,,,,,,,,,,,,,,381.8466779500004,390.1013977370003,,,,,,,,,,,,,,,,,,,,,,,,,,,,,,,,,,,,,,,,,,,,,,,,,,,,,,,,,,,,,,,,,,102921,0,2,1,2,1,1,2,0,20,2021_Oct_29_1526,listening_fmri,3.2.4,59.93022707212587,
1,parcelated_audio/43/43_14.ogg,,,,,,,,,0,0,0,0,0,1,1,1,0,0,0,0,,,,,,,,,0,0,0,0,0,13,13,13,,,,,,,,,,,,,,,,,,,,,,,,,,,,,,,,,,,,,,,,,,,,390.1017048570002,398.6339773589998,,,,,,,,,,,,,,,,,,,,,,,,,,,,,,,,,,,,,,,,,,,,,,,,,,,,,,,,,,,,,,,,,,102921,0,2,1,2,1,1,2,0,20,2021_Oct_29_1526,listening_fmri,3.2.4,59.93022707212587,
1,parcelated_audio/43/43_15.ogg,,,,,,,,,0,0,0,0,0,1,1,1,0,0,0,0,,,,,,,,,0,0,0,0,0,14,14,14,,,,,,,,,,,,,,,,,,,,,,,,,,,,,,,,,,,,,,,,,,,,398.63425722400007,402.96713405300034,,,,,,,,,,,,,,,,,,,,,,,,,,,,,,,,,,,,,,,,,,,,,,,,,,,,,,,,,,,,,,,,,,102921,0,2,1,2,1,1,2,0,20,2021_Oct_29_1526,listening_fmri,3.2.4,59.93022707212587,
1,parcelated_audio/43/43_16.ogg,,,,,,,,,0,0,0,0,0,1,1,1,0,0,0,0,,,,,,,,,0,0,0,0,0,15,15,15,,,,,,,,,,,,,,,,,,,,,,,,,,,,,,,,,,,,,,,,,,,,402.96741449300043,407.4870365759998,,,,,,,,,,,,,,,,,,,,,,,,,,,,,,,,,,,,,,,,,,,,,,,,,,,,,,,,,,,,,,,,,,102921,0,2,1,2,1,1,2,0,20,2021_Oct_29_1526,listening_fmri,3.2.4,59.93022707212587,
1,parcelated_audio/43/43_17.ogg,,,,,,,,,0,0,0,0,0,1,1,1,0,0,0,0,,,,,,,,,0,0,0,0,0,16,16,16,,,,,,,,,,,,,,,,,,,,,,,,,,,,,,,,,,,,,,,,,,,,407.4881439999999,411.2685319310003,,,,,,,,,,,,,,,,,,,,,,,,,,,,,,,,,,,,,,,,,,,,,,,,,,,,,,,,,,,,,,,,,,102921,0,2,1,2,1,1,2,0,20,2021_Oct_29_1526,listening_fmri,3.2.4,59.93022707212587,
1,parcelated_audio/43/43_18.ogg,,,,,,,,,0,0,0,0,0,1,1,1,0,0,0,0,,,,,,,,,0,0,0,0,0,17,17,17,,,,,,,,,,,,,,,,,,,,,,,,,,,,,,,,,,,,,,,,,,,,411.2692756770002,413.4631418400004,,,,,,,,,,,,,,,,,,,,,,,,,,,,,,,,,,,,,,,,,,,,,,,,,,,,,,,,,,,,,,,,,,102921,0,2,1,2,1,1,2,0,20,2021_Oct_29_1526,listening_fmri,3.2.4,59.93022707212587,
1,parcelated_audio/43/43_19.ogg,,,,,,,,,0,0,0,0,0,1,1,1,0,0,0,0,,,,,,,,,0,0,0,0,0,18,18,18,,,,,,,,,,,,,,,,,,,,,,,,,,,,,,,,,,,,,,,,,,,,413.4634265370005,417.10325744500005,,,,,,,,,,,,,,,,,,,,,,,,,,,,,,,,,,,,,,,,,,,,,,,,,,,,,,,,,,,,,,,,,,102921,0,2,1,2,1,1,2,0,20,2021_Oct_29_1526,listening_fmri,3.2.4,59.93022707212587,
1,parcelated_audio/43/43_20.ogg,,,,,,,,,0,0,0,0,0,1,1,1,0,0,0,0,,,,,,,,,0,0,0,0,0,19,19,19,,,,,,,,,,,,,,,,,,,,,,,,,,,,,,,,,,,,,,,,,,,,417.1035503359999,424.2922204080005,,,,,,,,,,,,,,,,,,,,,,,,,,,,,,,,,,,,,,,,,,,,,,,,,,,,,,,,,,,,,,,,,,102921,0,2,1,2,1,1,2,0,20,2021_Oct_29_1526,listening_fmri,3.2.4,59.93022707212587,
1,parcelated_audio/43/43_21.ogg,,,,,,,,,0,0,0,0,0,1,1,1,0,0,0,0,,,,,,,,,0,0,0,0,0,20,20,20,,,,,,,,,,,,,,,,,,,,,,,,,,,,,,,,,,,,,,,,,,,,424.2925620040005,426.7592455510003,,,,,,,,,,,,,,,,,,,,,,,,,,,,,,,,,,,,,,,,,,,,,,,,,,,,,,,,,,,,,,,,,,102921,0,2,1,2,1,1,2,0,20,2021_Oct_29_1526,listening_fmri,3.2.4,59.93022707212587,
1,parcelated_audio/43/43_22.ogg,,,,,,,,,0,0,0,0,0,1,1,1,0,0,0,0,,,,,,,,,0,0,0,0,0,21,21,21,,,,,,,,,,,,,,,,,,,,,,,,,,,,,,,,,,,,,,,,,,,,426.76010501700057,430.1462405960001,,,,,,,,,,,,,,,,,,,,,,,,,,,,,,,,,,,,,,,,,,,,,,,,,,,,,,,,,,,,,,,,,,102921,0,2,1,2,1,1,2,0,20,2021_Oct_29_1526,listening_fmri,3.2.4,59.93022707212587,
1,parcelated_audio/43/43_23.ogg,,,,,,,,,0,0,0,0,0,1,1,1,0,0,0,0,,,,,,,,,0,0,0,0,0,22,22,22,,,,,,,,,,,,,,,,,,,,,,,,,,,,,,,,,,,,,,,,,,,,430.14666231000047,436.1752913400005,,,,,,,,,,,,,,,,,,,,,,,,,,,,,,,,,,,,,,,,,,,,,,,,,,,,,,,,,,,,,,,,,,102921,0,2,1,2,1,1,2,0,20,2021_Oct_29_1526,listening_fmri,3.2.4,59.93022707212587,
1,parcelated_audio/43/43_24.ogg,,,,,,,,,0,0,0,0,0,1,1,1,0,0,0,0,,,,,,,,,0,0,0,0,0,23,23,23,,,,,,,,,,,,,,,,,,,,,,,,,,,,,,,,,,,,,,,,,,,,436.1756398790003,442.5165409050005,,,,,,,,,,,,,,,,,,,,,,,,,,,,,,,,,,,,,,,,,,,,,,,,,,,,,,,,,,,,,,,,,,102921,0,2,1,2,1,1,2,0,20,2021_Oct_29_1526,listening_fmri,3.2.4,59.93022707212587,
1,parcelated_audio/43/43_25.ogg,,,,,,,,,0,0,0,0,0,1,1,1,0,0,0,0,,,,,,,,,0,0,0,0,0,24,24,24,,,,,,,,,,,,,,,,,,,,,,,,,,,,,,,,,,,,,,,,,,,,442.5168971869998,447.5665226179999,,,,,,,,,,,,,,,,,,,,,,,,,,,,,,,,,,,,,,,,,,,,,,,,,,,,,,,,,,,,,,,,,,102921,0,2,1,2,1,1,2,0,20,2021_Oct_29_1526,listening_fmri,3.2.4,59.93022707212587,
1,parcelated_audio/43/43_26.ogg,,,,,,,,,0,0,0,0,0,1,1,1,0,0,0,0,,,,,,,,,0,0,0,0,0,25,25,25,,,,,,,,,,,,,,,,,,,,,,,,,,,,,,,,,,,,,,,,,,,,447.566976694,456.1352668090003,,,,,,,,,,,,,,,,,,,,,,,,,,,,,,,,,,,,,,,,,,,,,,,,,,,,,,,,,,,,,,,,,,102921,0,2,1,2,1,1,2,0,20,2021_Oct_29_1526,listening_fmri,3.2.4,59.93022707212587,
1,parcelated_audio/43/43_27.ogg,,,,,,,,,0,0,0,0,0,1,1,1,0,0,0,0,,,,,,,,,0,0,0,0,0,26,26,26,,,,,,,,,,,,,,,,,,,,,,,,,,,,,,,,,,,,,,,,,,,,456.13562447000004,460.5514670390003,,,,,,,,,,,,,,,,,,,,,,,,,,,,,,,,,,,,,,,,,,,,,,,,,,,,,,,,,,,,,,,,,,102921,0,2,1,2,1,1,2,0,20,2021_Oct_29_1526,listening_fmri,3.2.4,59.93022707212587,
1,parcelated_audio/43/43_28.ogg,,,,,,,,,0,0,0,0,0,1,1,1,0,0,0,0,,,,,,,,,0,0,0,0,0,27,27,27,,,,,,,,,,,,,,,,,,,,,,,,,,,,,,,,,,,,,,,,,,,,460.5517944630001,465.5301473979998,,,,,,,,,,,,,,,,,,,,,,,,,,,,,,,,,,,,,,,,,,,,,,,,,,,,,,,,,,,,,,,,,,102921,0,2,1,2,1,1,2,0,20,2021_Oct_29_1526,listening_fmri,3.2.4,59.93022707212587,
1,parcelated_audio/43/43_29.ogg,,,,,,,,,0,0,0,0,0,1,1,1,0,0,0,0,,,,,,,,,0,0,0,0,0,28,28,28,,,,,,,,,,,,,,,,,,,,,,,,,,,,,,,,,,,,,,,,,,,,465.5305023390001,471.68866583,,,,,,,,,,,,,,,,,,,,,,,,,,,,,,,,,,,,,,,,,,,,,,,,,,,,,,,,,,,,,,,,,,102921,0,2,1,2,1,1,2,0,20,2021_Oct_29_1526,listening_fmri,3.2.4,59.93022707212587,
1,,,,,,,,,,0,0,0,0,0,1,1,1,0,0,0,0,,,,,,,,,0,0,0,0,,,,,,,,,,,,,,,,,,,,,,,,,,,,,,,,,,,,,,,,,,,,,,,,,,,,,,,,,,,,,,,,,,,,,,,,,,,,,,,,,,,,,,,,,,,,,,,,,,,,,,,,,,,,,,,,,,,102921,0,2,1,2,1,1,2,0,20,2021_Oct_29_1526,listening_fmri,3.2.4,59.93022707212587,
,,,,,,,,,,,,,,,,,,,,,,,,,,,,,,,,,,,,,,,,,,,,,,,,,,,,,,,,,,,471.6891596260002,477.6828096580002,521.5635989349994,None,,,,,,,,,,,,,,,,,,,,,527.5634652179997,None,527.5634652179997,None,,,,,,,,,,,,,,,,,,,,,,,,,,,,,,,,,,,,,,,,,,,,,,,,,,,,,,,,,,,,,,,,,,,,,,,,,,,,
﻿count,audio,trials_14.thisRepN,trials_14.thisTrialN,trials_14.thisN,trials_14.thisIndex,trials_3.thisRepN,trials_3.thisTrialN,trials_3.thisN,trials_3.thisIndex,trials_4.thisRepN,trials_4.thisTrialN,trials_4.thisN,trials_4.thisIndex,trials_6.thisRepN,trials_6.thisTrialN,trials_6.thisN,trials_6.thisIndex,trials_9.thisRepN,trials_9.thisTrialN,trials_9.thisN,trials_9.thisIndex,trials_10.thisRepN,trials_10.thisTrialN,trials_10.thisN,trials_10.thisIndex,trials_12.thisRepN,trials_12.thisTrialN,trials_12.thisN,trials_12.thisIndex,trials_25.thisRepN,trials_25.thisTrialN,trials_25.thisN,trials_25.thisIndex,trials_15.thisRepN,trials_15.thisTrialN,trials_15.thisN,trials_15.thisIndex,trials_26.thisRepN,trials_26.thisTrialN,trials_26.thisN,trials_26.thisIndex,trials_11.thisRepN,trials_11.thisTrialN,trials_11.thisN,trials_11.thisIndex,story_list_block2,action_list_block2,textTrigger.started,textTrigger.stopped,getTrigger.keys,getTrigger.rt,getTrigger.started,getTrigger.stopped,triggerTime,text_76.started,text_76.stopped,text_77.started,text_77.stopped,startWait,endWait,image_23.started,image_23.stopped,text_55.started,text_55.stopped,text_56.started,text_56.stopped,key_resp_2.keys,key_resp_2.rt,key_resp_2.started,key_resp_2.stopped,text_82.started,text_82.stopped,text_64.started,text_64.stopped,key_resp_20.keys,key_resp_20.rt,key_resp_20.started,key_resp_20.stopped,storyImage_StartTime,storyImage_EndTime,clip_StartTime,clip_EndTime,text_67.started,text_67.stopped,text_68.started,text_68.stopped,text_57.started,text_57.stopped,key_resp_17.keys,key_resp_17.rt,key_resp_17.started,key_resp_17.stopped,text_83.started,text_83.stopped,text_60.started,text_60.stopped,image_2.started,image_2.stopped,text_58.started,text_58.stopped,key_resp_23.keys,key_resp_23.rt,key_resp_23.started,key_resp_23.stopped,text_62.started,text_62.stopped,key_resp_18.keys,key_resp_18.rt,key_resp_18.started,key_resp_18.stopped,text_84.started,text_84.stopped,question1_2.started,question1_2.stopped,question2_2.started,question2_2.stopped,question3_2.started,question3_2.stopped,question4_2.started,question4_2.stopped,question5_2.started,question5_2.stopped,question6_2.started,question6_2.stopped,image_15.started,image_15.stopped,key_resp.keys,key_resp.started,key_resp.stopped,text_59.started,text_59.stopped,key_resp_19.keys,key_resp_19.rt,key_resp_19.started,key_resp_19.stopped,text_85.started,text_85.stopped,text_61.started,text_61.stopped,image_17.started,image_17.stopped,text_63.started,text_63.stopped,key_resp_24.keys,key_resp_24.rt,key_resp_24.started,key_resp_24.stopped,participant,sA,sB,lA,lB,block_struct,play_stories,block,behavioral,random_seed,date,expName,psychopyVersion,frameRate,
0,parcelated_audio/21/21_1.ogg,,,,,,,,,0,0,0,0,0,0,0,0,0,0,0,0,,,,,,,,,0,0,0,0,0,0,0,0,,,,,,,,,[21 43 23 34 41 32 12 14],[4 2 2 1 4 3 3 1],19.27842622999924,None,equal,30.575857931999963,19.27842622999924,None,30.596426791999875,19.27842622999924,None,19.27842622999924,None,0.00032985500001814216,5.998982375000196,49.8796614719995,None,55.878261736999775,None,55.878261736999775,None,2,3.101937395999812,55.878261736999775,None,55.878261736999775,None,59.01277767800002,None,2,1.5695052569999461,59.01277767800002,None,10.73904951500026,13.748479677999967,13.753616283000156,28.028244783000446,,,,,,,,,,,,,,,,,,,,,,,,,,,,,,,,,,,,,,,,,,,,,,,,,,,,,,,,,,,,,,,,,,102921,0,2,1,2,1,1,2,0,20,2021_Oct_29_1526,listening_fmri,3.2.4,59.93022707212587,
0,parcelated_audio/21/21_2.ogg,,,,,,,,,0,0,0,0,0,0,0,0,0,0,0,0,,,,,,,,,0,0,0,0,0,1,1,1,,,,,,,,,,,,,,,,,,,,,,,,,,,,,,,,,,,,,,,,,,,,28.028516733999822,35.46320724100042,,,,,,,,,,,,,,,,,,,,,,,,,,,,,,,,,,,,,,,,,,,,,,,,,,,,,,,,,,,,,,,,,,102921,0,2,1,2,1,1,2,0,20,2021_Oct_29_1526,listening_fmri,3.2.4,59.93022707212587,
0,parcelated_audio/21/21_3.ogg,,,,,,,,,0,0,0,0,0,0,0,0,0,0,0,0,,,,,,,,,0,0,0,0,0,2,2,2,,,,,,,,,,,,,,,,,,,,,,,,,,,,,,,,,,,,,,,,,,,,35.464867759999834,43.14963179000006,,,,,,,,,,,,,,,,,,,,,,,,,,,,,,,,,,,,,,,,,,,,,,,,,,,,,,,,,,,,,,,,,,102921,0,2,1,2,1,1,2,0,20,2021_Oct_29_1526,listening_fmri,3.2.4,59.93022707212587,
0,parcelated_audio/21/21_4.ogg,,,,,,,,,0,0,0,0,0,0,0,0,0,0,0,0,,,,,,,,,0,0,0,0,0,3,3,3,,,,,,,,,,,,,,,,,,,,,,,,,,,,,,,,,,,,,,,,,,,,43.15000144300029,54.188766723999834,,,,,,,,,,,,,,,,,,,,,,,,,,,,,,,,,,,,,,,,,,,,,,,,,,,,,,,,,,,,,,,,,,102921,0,2,1,2,1,1,2,0,20,2021_Oct_29_1526,listening_fmri,3.2.4,59.93022707212587,
0,parcelated_audio/21/21_5.ogg,,,,,,,,,0,0,0,0,0,0,0,0,0,0,0,0,,,,,,,,,0,0,0,0,0,4,4,4,,,,,,,,,,,,,,,,,,,,,,,,,,,,,,,,,,,,,,,,,,,,54.18919344599999,59.247678057000485,,,,,,,,,,,,,,,,,,,,,,,,,,,,,,,,,,,,,,,,,,,,,,,,,,,,,,,,,,,,,,,,,,102921,0,2,1,2,1,1,2,0,20,2021_Oct_29_1526,listening_fmri,3.2.4,59.93022707212587,
0,parcelated_audio/21/21_6.ogg,,,,,,,,,0,0,0,0,0,0,0,0,0,0,0,0,,,,,,,,,0,0,0,0,0,5,5,5,,,,,,,,,,,,,,,,,,,,,,,,,,,,,,,,,,,,,,,,,,,,59.24816457399993,67.41190276799989,,,,,,,,,,,,,,,,,,,,,,,,,,,,,,,,,,,,,,,,,,,,,,,,,,,,,,,,,,,,,,,,,,102921,0,2,1,2,1,1,2,0,20,2021_Oct_29_1526,listening_fmri,3.2.4,59.93022707212587,
0,parcelated_audio/21/21_7.ogg,,,,,,,,,0,0,0,0,0,0,0,0,0,0,0,0,,,,,,,,,0,0,0,0,0,6,6,6,,,,,,,,,,,,,,,,,,,,,,,,,,,,,,,,,,,,,,,,,,,,67.41241727099987,71.92734266900061,,,,,,,,,,,,,,,,,,,,,,,,,,,,,,,,,,,,,,,,,,,,,,,,,,,,,,,,,,,,,,,,,,102921,0,2,1,2,1,1,2,0,20,2021_Oct_29_1526,listening_fmri,3.2.4,59.93022707212587,
0,parcelated_audio/21/21_8.ogg,,,,,,,,,0,0,0,0,0,0,0,0,0,0,0,0,,,,,,,,,0,0,0,0,0,7,7,7,,,,,,,,,,,,,,,,,,,,,,,,,,,,,,,,,,,,,,,,,,,,71.92786206600067,82.8653838350001,,,,,,,,,,,,,,,,,,,,,,,,,,,,,,,,,,,,,,,,,,,,,,,,,,,,,,,,,,,,,,,,,,102921,0,2,1,2,1,1,2,0,20,2021_Oct_29_1526,listening_fmri,3.2.4,59.93022707212587,
0,parcelated_audio/21/21_9.ogg,,,,,,,,,0,0,0,0,0,0,0,0,0,0,0,0,,,,,,,,,0,0,0,0,0,8,8,8,,,,,,,,,,,,,,,,,,,,,,,,,,,,,,,,,,,,,,,,,,,,82.86588212900006,90.2385155740003,,,,,,,,,,,,,,,,,,,,,,,,,,,,,,,,,,,,,,,,,,,,,,,,,,,,,,,,,,,,,,,,,,102921,0,2,1,2,1,1,2,0,20,2021_Oct_29_1526,listening_fmri,3.2.4,59.93022707212587,
0,parcelated_audio/21/21_10.ogg,,,,,,,,,0,0,0,0,0,0,0,0,0,0,0,0,,,,,,,,,0,0,0,0,0,9,9,9,,,,,,,,,,,,,,,,,,,,,,,,,,,,,,,,,,,,,,,,,,,,90.23901607500011,97.0994743350002,,,,,,,,,,,,,,,,,,,,,,,,,,,,,,,,,,,,,,,,,,,,,,,,,,,,,,,,,,,,,,,,,,102921,0,2,1,2,1,1,2,0,20,2021_Oct_29_1526,listening_fmri,3.2.4,59.93022707212587,
0,parcelated_audio/21/21_11.ogg,,,,,,,,,0,0,0,0,0,0,0,0,0,0,0,0,,,,,,,,,0,0,0,0,0,10,10,10,,,,,,,,,,,,,,,,,,,,,,,,,,,,,,,,,,,,,,,,,,,,97.09982204000062,104.20070867800041,,,,,,,,,,,,,,,,,,,,,,,,,,,,,,,,,,,,,,,,,,,,,,,,,,,,,,,,,,,,,,,,,,102921,0,2,1,2,1,1,2,0,20,2021_Oct_29_1526,listening_fmri,3.2.4,59.93022707212587,
0,parcelated_audio/21/21_12.ogg,,,,,,,,,0,0,0,0,0,0,0,0,0,0,0,0,,,,,,,,,0,0,0,0,0,11,11,11,,,,,,,,,,,,,,,,,,,,,,,,,,,,,,,,,,,,,,,,,,,,104.20120766200034,112.51431823199982,,,,,,,,,,,,,,,,,,,,,,,,,,,,,,,,,,,,,,,,,,,,,,,,,,,,,,,,,,,,,,,,,,102921,0,2,1,2,1,1,2,0,20,2021_Oct_29_1526,listening_fmri,3.2.4,59.93022707212587,
0,parcelated_audio/21/21_13.ogg,,,,,,,,,0,0,0,0,0,0,0,0,0,0,0,0,,,,,,,,,0,0,0,0,0,12,12,12,,,,,,,,,,,,,,,,,,,,,,,,,,,,,,,,,,,,,,,,,,,,112.51479307499994,115.84834330300055,,,,,,,,,,,,,,,,,,,,,,,,,,,,,,,,,,,,,,,,,,,,,,,,,,,,,,,,,,,,,,,,,,102921,0,2,1,2,1,1,2,0,20,2021_Oct_29_1526,listening_fmri,3.2.4,59.93022707212587,
0,parcelated_audio/21/21_14.ogg,,,,,,,,,0,0,0,0,0,0,0,0,0,0,0,0,,,,,,,,,0,0,0,0,0,13,13,13,,,,,,,,,,,,,,,,,,,,,,,,,,,,,,,,,,,,,,,,,,,,115.84878870500052,121.26231453299988,,,,,,,,,,,,,,,,,,,,,,,,,,,,,,,,,,,,,,,,,,,,,,,,,,,,,,,,,,,,,,,,,,102921,0,2,1,2,1,1,2,0,20,2021_Oct_29_1526,listening_fmri,3.2.4,59.93022707212587,
0,parcelated_audio/21/21_15.ogg,,,,,,,,,0,0,0,0,0,0,0,0,0,0,0,0,,,,,,,,,0,0,0,0,0,14,14,14,,,,,,,,,,,,,,,,,,,,,,,,,,,,,,,,,,,,,,,,,,,,121.26267990500037,128.07761507099985,,,,,,,,,,,,,,,,,,,,,,,,,,,,,,,,,,,,,,,,,,,,,,,,,,,,,,,,,,,,,,,,,,102921,0,2,1,2,1,1,2,0,20,2021_Oct_29_1526,listening_fmri,3.2.4,59.93022707212587,
0,parcelated_audio/21/21_16.ogg,,,,,,,,,0,0,0,0,0,0,0,0,0,0,0,0,,,,,,,,,0,0,0,0,0,15,15,15,,,,,,,,,,,,,,,,,,,,,,,,,,,,,,,,,,,,,,,,,,,,128.0778716499999,134.15425817899995,,,,,,,,,,,,,,,,,,,,,,,,,,,,,,,,,,,,,,,,,,,,,,,,,,,,,,,,,,,,,,,,,,102921,0,2,1,2,1,1,2,0,20,2021_Oct_29_1526,listening_fmri,3.2.4,59.93022707212587,
0,parcelated_audio/21/21_17.ogg,,,,,,,,,0,0,0,0,0,0,0,0,0,0,0,0,,,,,,,,,0,0,0,0,0,16,16,16,,,,,,,,,,,,,,,,,,,,,,,,,,,,,,,,,,,,,,,,,,,,134.1546600370002,136.31572901600066,,,,,,,,,,,,,,,,,,,,,,,,,,,,,,,,,,,,,,,,,,,,,,,,,,,,,,,,,,,,,,,,,,102921,0,2,1,2,1,1,2,0,20,2021_Oct_29_1526,listening_fmri,3.2.4,59.93022707212587,
0,parcelated_audio/21/21_18.ogg,,,,,,,,,0,0,0,0,0,0,0,0,0,0,0,0,,,,,,,,,0,0,0,0,0,17,17,17,,,,,,,,,,,,,,,,,,,,,,,,,,,,,,,,,,,,,,,,,,,,136.316004712,149.460772335,,,,,,,,,,,,,,,,,,,,,,,,,,,,,,,,,,,,,,,,,,,,,,,,,,,,,,,,,,,,,,,,,,102921,0,2,1,2,1,1,2,0,20,2021_Oct_29_1526,listening_fmri,3.2.4,59.93022707212587,
0,parcelated_audio/21/21_19.ogg,,,,,,,,,0,0,0,0,0,0,0,0,0,0,0,0,,,,,,,,,0,0,0,0,0,18,18,18,,,,,,,,,,,,,,,,,,,,,,,,,,,,,,,,,,,,,,,,,,,,149.46173697199993,152.33436652300043,,,,,,,,,,,,,,,,,,,,,,,,,,,,,,,,,,,,,,,,,,,,,,,,,,,,,,,,,,,,,,,,,,102921,0,2,1,2,1,1,2,0,20,2021_Oct_29_1526,listening_fmri,3.2.4,59.93022707212587,
0,parcelated_audio/21/21_20.ogg,,,,,,,,,0,0,0,0,0,0,0,0,0,0,0,0,,,,,,,,,0,0,0,0,0,19,19,19,,,,,,,,,,,,,,,,,,,,,,,,,,,,,,,,,,,,,,,,,,,,152.33501184600027,161.06871022199994,,,,,,,,,,,,,,,,,,,,,,,,,,,,,,,,,,,,,,,,,,,,,,,,,,,,,,,,,,,,,,,,,,102921,0,2,1,2,1,1,2,0,20,2021_Oct_29_1526,listening_fmri,3.2.4,59.93022707212587,
0,parcelated_audio/21/21_21.ogg,,,,,,,,,0,0,0,0,0,0,0,0,0,0,0,0,,,,,,,,,0,0,0,0,0,20,20,20,,,,,,,,,,,,,,,,,,,,,,,,,,,,,,,,,,,,,,,,,,,,161.06970640800046,172.11354184999982,,,,,,,,,,,,,,,,,,,,,,,,,,,,,,,,,,,,,,,,,,,,,,,,,,,,,,,,,,,,,,,,,,102921,0,2,1,2,1,1,2,0,20,2021_Oct_29_1526,listening_fmri,3.2.4,59.93022707212587,
0,parcelated_audio/21/21_22.ogg,,,,,,,,,0,0,0,0,0,0,0,0,0,0,0,0,,,,,,,,,0,0,0,0,0,21,21,21,,,,,,,,,,,,,,,,,,,,,,,,,,,,,,,,,,,,,,,,,,,,172.11401253300028,183.01533484999982,,,,,,,,,,,,,,,,,,,,,,,,,,,,,,,,,,,,,,,,,,,,,,,,,,,,,,,,,,,,,,,,,,102921,0,2,1,2,1,1,2,0,20,2021_Oct_29_1526,listening_fmri,3.2.4,59.93022707212587,
0,parcelated_audio/21/21_23.ogg,,,,,,,,,0,0,0,0,0,0,0,0,0,0,0,0,,,,,,,,,0,0,0,0,0,22,22,22,,,,,,,,,,,,,,,,,,,,,,,,,,,,,,,,,,,,,,,,,,,,183.0158444509998,187.977058081,,,,,,,,,,,,,,,,,,,,,,,,,,,,,,,,,,,,,,,,,,,,,,,,,,,,,,,,,,,,,,,,,,102921,0,2,1,2,1,1,2,0,20,2021_Oct_29_1526,listening_fmri,3.2.4,59.93022707212587,
0,parcelated_audio/21/21_24.ogg,,,,,,,,,0,0,0,0,0,0,0,0,0,0,0,0,,,,,,,,,0,0,0,0,0,23,23,23,,,,,,,,,,,,,,,,,,,,,,,,,,,,,,,,,,,,,,,,,,,,187.97758012299983,192.56397191999986,,,,,,,,,,,,,,,,,,,,,,,,,,,,,,,,,,,,,,,,,,,,,,,,,,,,,,,,,,,,,,,,,,102921,0,2,1,2,1,1,2,0,20,2021_Oct_29_1526,listening_fmri,3.2.4,59.93022707212587,
0,parcelated_audio/21/21_25.ogg,,,,,,,,,0,0,0,0,0,0,0,0,0,0,0,0,,,,,,,,,0,0,0,0,0,24,24,24,,,,,,,,,,,,,,,,,,,,,,,,,,,,,,,,,,,,,,,,,,,,192.56429792000017,202.0132787930006,,,,,,,,,,,,,,,,,,,,,,,,,,,,,,,,,,,,,,,,,,,,,,,,,,,,,,,,,,,,,,,,,,102921,0,2,1,2,1,1,2,0,20,2021_Oct_29_1526,listening_fmri,3.2.4,59.93022707212587,
0,parcelated_audio/21/21_26.ogg,,,,,,,,,0,0,0,0,0,0,0,0,0,0,0,0,,,,,,,,,0,0,0,0,0,25,25,25,,,,,,,,,,,,,,,,,,,,,,,,,,,,,,,,,,,,,,,,,,,,202.0136938200003,206.0152561370005,,,,,,,,,,,,,,,,,,,,,,,,,,,,,,,,,,,,,,,,,,,,,,,,,,,,,,,,,,,,,,,,,,102921,0,2,1,2,1,1,2,0,20,2021_Oct_29_1526,listening_fmri,3.2.4,59.93022707212587,
0,parcelated_audio/21/21_27.ogg,,,,,,,,,0,0,0,0,0,0,0,0,0,0,0,0,,,,,,,,,0,0,0,0,0,26,26,26,,,,,,,,,,,,,,,,,,,,,,,,,,,,,,,,,,,,,,,,,,,,206.01551515700066,213.21520702900034,,,,,,,,,,,,,,,,,,,,,,,,,,,,,,,,,,,,,,,,,,,,,,,,,,,,,,,,,,,,,,,,,,102921,0,2,1,2,1,1,2,0,20,2021_Oct_29_1526,listening_fmri,3.2.4,59.93022707212587,
0,parcelated_audio/21/21_28.ogg,,,,,,,,,0,0,0,0,0,0,0,0,0,0,0,0,,,,,,,,,0,0,0,0,0,27,27,27,,,,,,,,,,,,,,,,,,,,,,,,,,,,,,,,,,,,,,,,,,,,213.2156062740005,219.3311597540005,,,,,,,,,,,,,,,,,,,,,,,,,,,,,,,,,,,,,,,,,,,,,,,,,,,,,,,,,,,,,,,,,,102921,0,2,1,2,1,1,2,0,20,2021_Oct_29_1526,listening_fmri,3.2.4,59.93022707212587,
0,parcelated_audio/21/21_29.ogg,,,,,,,,,0,0,0,0,0,0,0,0,0,0,0,0,,,,,,,,,0,0,0,0,0,28,28,28,,,,,,,,,,,,,,,,,,,,,,,,,,,,,,,,,,,,,,,,,,,,219.33143404100065,223.58586010199997,,,,,,,,,,,,,,,,,,,,,,,,,,,,,,,,,,,,,,,,,,,,,,,,,,,,,,,,,,,,,,,,,,102921,0,2,1,2,1,1,2,0,20,2021_Oct_29_1526,listening_fmri,3.2.4,59.93022707212587,
0,parcelated_audio/21/21_30.ogg,,,,,,,,,0,0,0,0,0,0,0,0,0,0,0,0,,,,,,,,,0,0,0,0,0,29,29,29,,,,,,,,,,,,,,,,,,,,,,,,,,,,,,,,,,,,,,,,,,,,223.58621282700005,228.84714644199994,,,,,,,,,,,,,,,,,,,,,,,,,,,,,,,,,,,,,,,,,,,,,,,,,,,,,,,,,,,,,,,,,,102921,0,2,1,2,1,1,2,0,20,2021_Oct_29_1526,listening_fmri,3.2.4,59.93022707212587,
0,,,,,,,,,,0,0,0,0,0,0,0,0,0,0,0,0,,,,,,,,,0,0,0,0,,,,,,,,,,,,,,,,,,,,,,,,,,,,,,,,,,,,,,,,,,,,,,,,,,,,,,,,,,,,,,,,,,,,,,,,,,,,,,,,,,,,,,,,,,,,,,,,,,,,,,,,,,,,,,,,,,,102921,0,2,1,2,1,1,2,0,20,2021_Oct_29_1526,listening_fmri,3.2.4,59.93022707212587,
0,,,,,,,,,,0,0,0,0,0,0,0,0,0,0,0,0,,,,,,,,,,,,,,,,,,,,,,,,,,,,,,,,,,,,,,228.8475585240003,234.84276989800037,278.7225483759994,None,,,,,,,,,,,,,,,,,,,,,284.72268251399964,None,284.72268251399964,None,,,,,,,,,,,,,,,,,,,,,,,,,,,,,,,,,,,,,,,,,,,,,,,,,,,,,,,,,,,,,,102921,0,2,1,2,1,1,2,0,20,2021_Oct_29_1526,listening_fmri,3.2.4,59.93022707212587,
0,,,,,,,,,,0,0,0,0,0,0,0,0,,,,,,,,,,,,,,,,,,,,,,,,,,,,,,,,,,,,,,,,,,,,,,,,,,,,,,,,,,,,,,,,,,,,,,,,,,,,,,,,,,,,,,,,,,,,,,,,,,,,,,,,,,,,,,,,,,,,,,,,,,,,,,,,,,,102921,0,2,1,2,1,1,2,0,20,2021_Oct_29_1526,listening_fmri,3.2.4,59.93022707212587,
1,,,,,,,,,,0,0,0,0,0,1,1,1,0,0,0,0,0,0,0,0,,,,,,,,,,,,,,,,,0,0,0,0,,,,,,,,,,,,,,,,,,285.739306167,None,285.739306167,None,2,1.518864503000259,285.739306167,None,285.739306167,None,,,,,,,,,,,,,,,287.2794436129998,None,2,0.8818234199998187,287.2794436129998,None,287.2794436129998,None,288.2054451239992,None,288.2054451239992,None,288.2054451239992,None,2,1.154841481999938,288.2054451239992,None,289.37933722899925,None,2,1.5479688790001092,289.37933722899925,None,289.37933722899925,None,291.0290988099996,None,291.0290988099996,None,291.0290988099996,None,291.0290988099996,None,291.0290988099996,None,291.0290988099996,None,291.0290988099996,None,None,291.0290988099996,None,,,,,,,,,,,,,,,,,,,102921,0,2,1,2,1,1,2,0,20,2021_Oct_29_1526,listening_fmri,3.2.4,59.93022707212587,
1,,,,,,,,,,0,0,0,0,0,1,1,1,0,0,0,0,0,0,0,0,,,,,,,,,,,,,,,,,,,,,,,,,,,,,,,,,,,,,,,,,,,,,,,,,,,,,,,,,,,,,,,,,,,,,,,,,,,,,,,,,,,,,,,,,,,,,,,,,,,,,,,,,337.32898857999953,None,2,2.2593343789994833,337.32898857999953,None,337.32898857999953,None,339.63014110099994,None,339.63014110099994,None,339.63014110099994,None,2,1.7921550689998185,339.63014110099994,None,102921,0,2,1,2,1,1,2,0,20,2021_Oct_29_1526,listening_fmri,3.2.4,59.93022707212587,
1,parcelated_audio/43/43_1.ogg,,,,,,,,,0,0,0,0,0,1,1,1,0,0,0,0,,,,,,,,,0,0,0,0,0,0,0,0,,,,,,,,,,,,,,,,,,,,,,,,,,,,,,,,,,,,341.44602834799934,None,2,2.2671188410004106,341.44602834799934,None,293.8844897460003,296.8992003230005,296.90482366800006,304.48718518900023,,,,,,,,,,,,,,,,,,,,,,,,,,,,,,,,,,,,,,,,,,,,,,,,,,,,,,,,,,,,,,,,,,102921,0,2,1,2,1,1,2,0,20,2021_Oct_29_1526,listening_fmri,3.2.4,59.93022707212587,
1,parcelated_audio/43/43_2.ogg,,,,,,,,,0,0,0,0,0,1,1,1,0,0,0,0,,,,,,,,,0,0,0,0,0,1,1,1,,,,,,,,,,,,,,,,,,,,,,,,,,,,,,,,,,,,,,,,,,,,304.4874774179998,308.25818805900053,,,,,,,,,,,,,,,,,,,,,,,,,,,,,,,,,,,,,,,,,,,,,,,,,,,,,,,,,,,,,,,,,,102921,0,2,1,2,1,1,2,0,20,2021_Oct_29_1526,listening_fmri,3.2.4,59.93022707212587,
1,parcelated_audio/43/43_3.ogg,,,,,,,,,0,0,0,0,0,1,1,1,0,0,0,0,,,,,,,,,0,0,0,0,0,2,2,2,,,,,,,,,,,,,,,,,,,,,,,,,,,,,,,,,,,,,,,,,,,,308.2585867880007,317.1597092440006,,,,,,,,,,,,,,,,,,,,,,,,,,,,,,,,,,,,,,,,,,,,,,,,,,,,,,,,,,,,,,,,,,102921,0,2,1,2,1,1,2,0,20,2021_Oct_29_1526,listening_fmri,3.2.4,59.93022707212587,
1,parcelated_audio/43/43_4.ogg,,,,,,,,,0,0,0,0,0,1,1,1,0,0,0,0,,,,,,,,,0,0,0,0,0,3,3,3,,,,,,,,,,,,,,,,,,,,,,,,,,,,,,,,,,,,,,,,,,,,317.16006610300064,325.6621885700006,,,,,,,,,,,,,,,,,,,,,,,,,,,,,,,,,,,,,,,,,,,,,,,,,,,,,,,,,,,,,,,,,,102921,0,2,1,2,1,1,2,0,20,2021_Oct_29_1526,listening_fmri,3.2.4,59.93022707212587,
1,parcelated_audio/43/43_5.ogg,,,,,,,,,0,0,0,0,0,1,1,1,0,0,0,0,,,,,,,,,0,0,0,0,0,4,4,4,,,,,,,,,,,,,,,,,,,,,,,,,,,,,,,,,,,,,,,,,,,,325.6629450540004,334.91048673300065,,,,,,,,,,,,,,,,,,,,,,,,,,,,,,,,,,,,,,,,,,,,,,,,,,,,,,,,,,,,,,,,,,102921,0,2,1,2,1,1,2,0,20,2021_Oct_29_1526,listening_fmri,3.2.4,59.93022707212587,
1,parcelated_audio/43/43_6.ogg,,,,,,,,,0,0,0,0,0,1,1,1,0,0,0,0,,,,,,,,,0,0,0,0,0,5,5,5,,,,,,,,,,,,,,,,,,,,,,,,,,,,,,,,,,,,,,,,,,,,334.91083792800055,344.04446744800043,,,,,,,,,,,,,,,,,,,,,,,,,,,,,,,,,,,,,,,,,,,,,,,,,,,,,,,,,,,,,,,,,,102921,0,2,1,2,1,1,2,0,20,2021_Oct_29_1526,listening_fmri,3.2.4,59.93022707212587,
1,parcelated_audio/43/43_7.ogg,,,,,,,,,0,0,0,0,0,1,1,1,0,0,0,0,,,,,,,,,0,0,0,0,0,6,6,6,,,,,,,,,,,,,,,,,,,,,,,,,,,,,,,,,,,,,,,,,,,,344.04494740300015,348.7982424890006,,,,,,,,,,,,,,,,,,,,,,,,,,,,,,,,,,,,,,,,,,,,,,,,,,,,,,,,,,,,,,,,,,102921,0,2,1,2,1,1,2,0,20,2021_Oct_29_1526,listening_fmri,3.2.4,59.93022707212587,
1,parcelated_audio/43/43_8.ogg,,,,,,,,,0,0,0,0,0,1,1,1,0,0,0,0,,,,,,,,,0,0,0,0,0,7,7,7,,,,,,,,,,,,,,,,,,,,,,,,,,,,,,,,,,,,,,,,,,,,348.7985834310002,355.34078376600064,,,,,,,,,,,,,,,,,,,,,,,,,,,,,,,,,,,,,,,,,,,,,,,,,,,,,,,,,,,,,,,,,,102921,0,2,1,2,1,1,2,0,20,2021_Oct_29_1526,listening_fmri,3.2.4,59.93022707212587,
1,parcelated_audio/43/43_9.ogg,,,,,,,,,0,0,0,0,0,1,1,1,0,0,0,0,,,,,,,,,0,0,0,0,0,8,8,8,,,,,,,,,,,,,,,,,,,,,,,,,,,,,,,,,,,,,,,,,,,,355.3410969209999,359.8543334120004,,,,,,,,,,,,,,,,,,,,,,,,,,,,,,,,,,,,,,,,,,,,,,,,,,,,,,,,,,,,,,,,,,102921,0,2,1,2,1,1,2,0,20,2021_Oct_29_1526,listening_fmri,3.2.4,59.93022707212587,
1,parcelated_audio/43/43_10.ogg,,,,,,,,,0,0,0,0,0,1,1,1,0,0,0,0,,,,,,,,,0,0,0,0,0,9,9,9,,,,,,,,,,,,,,,,,,,,,,,,,,,,,,,,,,,,,,,,,,,,359.8547749600002,364.74250929200025,,,,,,,,,,,,,,,,,,,,,,,,,,,,,,,,,,,,,,,,,,,,,,,,,,,,,,,,,,,,,,,,,,102921,0,2,1,2,1,1,2,0,20,2021_Oct_29_1526,listening_fmri,3.2.4,59.93022707212587,
1,parcelated_audio/43/43_11.ogg,,,,,,,,,0,0,0,0,0,1,1,1,0,0,0,0,,,,,,,,,0,0,0,0,0,10,10,10,,,,,,,,,,,,,,,,,,,,,,,,,,,,,,,,,,,,,,,,,,,,364.7428172790005,375.7752214279999,,,,,,,,,,,,,,,,,,,,,,,,,,,,,,,,,,,,,,,,,,,,,,,,,,,,,,,,,,,,,,,,,,102921,0,2,1,2,1,1,2,0,20,2021_Oct_29_1526,listening_fmri,3.2.4,59.93022707212587,
1,parcelated_audio/43/43_12.ogg,,,,,,,,,0,0,0,0,0,1,1,1,0,0,0,0,,,,,,,,,0,0,0,0,0,11,11,11,,,,,,,,,,,,,,,,,,,,,,,,,,,,,,,,,,,,,,,,,,,,375.77551488600056,381.8457917430005,,,,,,,,,,,,,,,,,,,,,,,,,,,,,,,,,,,,,,,,,,,,,,,,,,,,,,,,,,,,,,,,,,102921,0,2,1,2,1,1,2,0,20,2021_Oct_29_1526,listening_fmri,3.2.4,59.93022707212587,
1,parcelated_audio/43/43_13.ogg,,,,,,,,,0,0,0,0,0,1,1,1,0,0,0,0,,,,,,,,,0,0,0,0,0,12,12,12,,,,,,,,,,,,,,,,,,,,,,,,,,,,,,,,,,,,,,,,,,,,381.8466779500004,390.1013977370003,,,,,,,,,,,,,,,,,,,,,,,,,,,,,,,,,,,,,,,,,,,,,,,,,,,,,,,,,,,,,,,,,,102921,0,2,1,2,1,1,2,0,20,2021_Oct_29_1526,listening_fmri,3.2.4,59.93022707212587,
1,parcelated_audio/43/43_14.ogg,,,,,,,,,0,0,0,0,0,1,1,1,0,0,0,0,,,,,,,,,0,0,0,0,0,13,13,13,,,,,,,,,,,,,,,,,,,,,,,,,,,,,,,,,,,,,,,,,,,,390.1017048570002,398.6339773589998,,,,,,,,,,,,,,,,,,,,,,,,,,,,,,,,,,,,,,,,,,,,,,,,,,,,,,,,,,,,,,,,,,102921,0,2,1,2,1,1,2,0,20,2021_Oct_29_1526,listening_fmri,3.2.4,59.93022707212587,
1,parcelated_audio/43/43_15.ogg,,,,,,,,,0,0,0,0,0,1,1,1,0,0,0,0,,,,,,,,,0,0,0,0,0,14,14,14,,,,,,,,,,,,,,,,,,,,,,,,,,,,,,,,,,,,,,,,,,,,398.63425722400007,402.96713405300034,,,,,,,,,,,,,,,,,,,,,,,,,,,,,,,,,,,,,,,,,,,,,,,,,,,,,,,,,,,,,,,,,,102921,0,2,1,2,1,1,2,0,20,2021_Oct_29_1526,listening_fmri,3.2.4,59.93022707212587,
1,parcelated_audio/43/43_16.ogg,,,,,,,,,0,0,0,0,0,1,1,1,0,0,0,0,,,,,,,,,0,0,0,0,0,15,15,15,,,,,,,,,,,,,,,,,,,,,,,,,,,,,,,,,,,,,,,,,,,,402.96741449300043,407.4870365759998,,,,,,,,,,,,,,,,,,,,,,,,,,,,,,,,,,,,,,,,,,,,,,,,,,,,,,,,,,,,,,,,,,102921,0,2,1,2,1,1,2,0,20,2021_Oct_29_1526,listening_fmri,3.2.4,59.93022707212587,
1,parcelated_audio/43/43_17.ogg,,,,,,,,,0,0,0,0,0,1,1,1,0,0,0,0,,,,,,,,,0,0,0,0,0,16,16,16,,,,,,,,,,,,,,,,,,,,,,,,,,,,,,,,,,,,,,,,,,,,407.4881439999999,411.2685319310003,,,,,,,,,,,,,,,,,,,,,,,,,,,,,,,,,,,,,,,,,,,,,,,,,,,,,,,,,,,,,,,,,,102921,0,2,1,2,1,1,2,0,20,2021_Oct_29_1526,listening_fmri,3.2.4,59.93022707212587,
1,parcelated_audio/43/43_18.ogg,,,,,,,,,0,0,0,0,0,1,1,1,0,0,0,0,,,,,,,,,0,0,0,0,0,17,17,17,,,,,,,,,,,,,,,,,,,,,,,,,,,,,,,,,,,,,,,,,,,,411.2692756770002,413.4631418400004,,,,,,,,,,,,,,,,,,,,,,,,,,,,,,,,,,,,,,,,,,,,,,,,,,,,,,,,,,,,,,,,,,102921,0,2,1,2,1,1,2,0,20,2021_Oct_29_1526,listening_fmri,3.2.4,59.93022707212587,
1,parcelated_audio/43/43_19.ogg,,,,,,,,,0,0,0,0,0,1,1,1,0,0,0,0,,,,,,,,,0,0,0,0,0,18,18,18,,,,,,,,,,,,,,,,,,,,,,,,,,,,,,,,,,,,,,,,,,,,413.4634265370005,417.10325744500005,,,,,,,,,,,,,,,,,,,,,,,,,,,,,,,,,,,,,,,,,,,,,,,,,,,,,,,,,,,,,,,,,,102921,0,2,1,2,1,1,2,0,20,2021_Oct_29_1526,listening_fmri,3.2.4,59.93022707212587,
1,parcelated_audio/43/43_20.ogg,,,,,,,,,0,0,0,0,0,1,1,1,0,0,0,0,,,,,,,,,0,0,0,0,0,19,19,19,,,,,,,,,,,,,,,,,,,,,,,,,,,,,,,,,,,,,,,,,,,,417.1035503359999,424.2922204080005,,,,,,,,,,,,,,,,,,,,,,,,,,,,,,,,,,,,,,,,,,,,,,,,,,,,,,,,,,,,,,,,,,102921,0,2,1,2,1,1,2,0,20,2021_Oct_29_1526,listening_fmri,3.2.4,59.93022707212587,
1,parcelated_audio/43/43_21.ogg,,,,,,,,,0,0,0,0,0,1,1,1,0,0,0,0,,,,,,,,,0,0,0,0,0,20,20,20,,,,,,,,,,,,,,,,,,,,,,,,,,,,,,,,,,,,,,,,,,,,424.2925620040005,426.7592455510003,,,,,,,,,,,,,,,,,,,,,,,,,,,,,,,,,,,,,,,,,,,,,,,,,,,,,,,,,,,,,,,,,,102921,0,2,1,2,1,1,2,0,20,2021_Oct_29_1526,listening_fmri,3.2.4,59.93022707212587,
1,parcelated_audio/43/43_22.ogg,,,,,,,,,0,0,0,0,0,1,1,1,0,0,0,0,,,,,,,,,0,0,0,0,0,21,21,21,,,,,,,,,,,,,,,,,,,,,,,,,,,,,,,,,,,,,,,,,,,,426.76010501700057,430.1462405960001,,,,,,,,,,,,,,,,,,,,,,,,,,,,,,,,,,,,,,,,,,,,,,,,,,,,,,,,,,,,,,,,,,102921,0,2,1,2,1,1,2,0,20,2021_Oct_29_1526,listening_fmri,3.2.4,59.93022707212587,
1,parcelated_audio/43/43_23.ogg,,,,,,,,,0,0,0,0,0,1,1,1,0,0,0,0,,,,,,,,,0,0,0,0,0,22,22,22,,,,,,,,,,,,,,,,,,,,,,,,,,,,,,,,,,,,,,,,,,,,430.14666231000047,436.1752913400005,,,,,,,,,,,,,,,,,,,,,,,,,,,,,,,,,,,,,,,,,,,,,,,,,,,,,,,,,,,,,,,,,,102921,0,2,1,2,1,1,2,0,20,2021_Oct_29_1526,listening_fmri,3.2.4,59.93022707212587,
1,parcelated_audio/43/43_24.ogg,,,,,,,,,0,0,0,0,0,1,1,1,0,0,0,0,,,,,,,,,0,0,0,0,0,23,23,23,,,,,,,,,,,,,,,,,,,,,,,,,,,,,,,,,,,,,,,,,,,,436.1756398790003,442.5165409050005,,,,,,,,,,,,,,,,,,,,,,,,,,,,,,,,,,,,,,,,,,,,,,,,,,,,,,,,,,,,,,,,,,102921,0,2,1,2,1,1,2,0,20,2021_Oct_29_1526,listening_fmri,3.2.4,59.93022707212587,
1,parcelated_audio/43/43_25.ogg,,,,,,,,,0,0,0,0,0,1,1,1,0,0,0,0,,,,,,,,,0,0,0,0,0,24,24,24,,,,,,,,,,,,,,,,,,,,,,,,,,,,,,,,,,,,,,,,,,,,442.5168971869998,447.5665226179999,,,,,,,,,,,,,,,,,,,,,,,,,,,,,,,,,,,,,,,,,,,,,,,,,,,,,,,,,,,,,,,,,,102921,0,2,1,2,1,1,2,0,20,2021_Oct_29_1526,listening_fmri,3.2.4,59.93022707212587,
1,parcelated_audio/43/43_26.ogg,,,,,,,,,0,0,0,0,0,1,1,1,0,0,0,0,,,,,,,,,0,0,0,0,0,25,25,25,,,,,,,,,,,,,,,,,,,,,,,,,,,,,,,,,,,,,,,,,,,,447.566976694,456.1352668090003,,,,,,,,,,,,,,,,,,,,,,,,,,,,,,,,,,,,,,,,,,,,,,,,,,,,,,,,,,,,,,,,,,102921,0,2,1,2,1,1,2,0,20,2021_Oct_29_1526,listening_fmri,3.2.4,59.93022707212587,
1,parcelated_audio/43/43_27.ogg,,,,,,,,,0,0,0,0,0,1,1,1,0,0,0,0,,,,,,,,,0,0,0,0,0,26,26,26,,,,,,,,,,,,,,,,,,,,,,,,,,,,,,,,,,,,,,,,,,,,456.13562447000004,460.5514670390003,,,,,,,,,,,,,,,,,,,,,,,,,,,,,,,,,,,,,,,,,,,,,,,,,,,,,,,,,,,,,,,,,,102921,0,2,1,2,1,1,2,0,20,2021_Oct_29_1526,listening_fmri,3.2.4,59.93022707212587,
1,parcelated_audio/43/43_28.ogg,,,,,,,,,0,0,0,0,0,1,1,1,0,0,0,0,,,,,,,,,0,0,0,0,0,27,27,27,,,,,,,,,,,,,,,,,,,,,,,,,,,,,,,,,,,,,,,,,,,,460.5517944630001,465.5301473979998,,,,,,,,,,,,,,,,,,,,,,,,,,,,,,,,,,,,,,,,,,,,,,,,,,,,,,,,,,,,,,,,,,102921,0,2,1,2,1,1,2,0,20,2021_Oct_29_1526,listening_fmri,3.2.4,59.93022707212587,
1,parcelated_audio/43/43_29.ogg,,,,,,,,,0,0,0,0,0,1,1,1,0,0,0,0,,,,,,,,,0,0,0,0,0,28,28,28,,,,,,,,,,,,,,,,,,,,,,,,,,,,,,,,,,,,,,,,,,,,465.5305023390001,471.68866583,,,,,,,,,,,,,,,,,,,,,,,,,,,,,,,,,,,,,,,,,,,,,,,,,,,,,,,,,,,,,,,,,,102921,0,2,1,2,1,1,2,0,20,2021_Oct_29_1526,listening_fmri,3.2.4,59.93022707212587,
1,,,,,,,,,,0,0,0,0,0,1,1,1,0,0,0,0,,,,,,,,,0,0,0,0,,,,,,,,,,,,,,,,,,,,,,,,,,,,,,,,,,,,,,,,,,,,,,,,,,,,,,,,,,,,,,,,,,,,,,,,,,,,,,,,,,,,,,,,,,,,,,,,,,,,,,,,,,,,,,,,,,,102921,0,2,1,2,1,1,2,0,20,2021_Oct_29_1526,listening_fmri,3.2.4,59.93022707212587,
1,,,,,,,,,,0,0,0,0,0,1,1,1,0,0,0,0,,,,,,,,,,,,,,,,,,,,,,,,,,,,,,,,,,,,,,471.6891596260002,477.6828096580002,521.5635989349994,None,,,,,,,,,,,,,,,,,,,,,527.5634652179997,None,527.5634652179997,None,,,,,,,,,,,,,,,,,,,,,,,,,,,,,,,,,,,,,,,,,,,,,,,,,,,,,,,,,,,,,,102921,0,2,1,2,1,1,2,0,20,2021_Oct_29_1526,listening_fmri,3.2.4,59.93022707212587,
1,,,,,,,,,,0,0,0,0,0,1,1,1,,,,,,,,,,,,,,,,,,,,,,,,,,,,,,,,,,,,,,,,,,,,,,,,,,,,,,,,,,,,,,,,,,,,,,,,,,,,,,,,,,,,,,,,,,,,,,,,,,,,,,,,,,,,,,,,,,,,,,,,,,,,,,,,,,,102921,0,2,1,2,1,1,2,0,20,2021_Oct_29_1526,listening_fmri,3.2.4,59.93022707212587,
2,,,,,,,,,,0,0,0,0,0,2,2,2,0,0,0,0,0,0,0,0,,,,,,,,,,,,,,,,,0,0,0,0,,,,,,,,,,,,,,,,,,528.5689704959996,None,528.5689704959996,None,2,1.6901876530000663,528.5689704959996,None,528.5689704959996,None,,,,,,,,,,,,,,,530.2804417669995,None,2,1.3768312989996048,530.2804417669995,None,530.2804417669995,None,531.6964948149998,None,531.6964948149998,None,531.6964948149998,None,2,1.678774457000145,531.6964948149998,None,533.3967253789997,None,2,0.9934155350001674,533.3967253789997,None,533.3967253789997,None,534.4849567419997,None,534.4849567419997,None,534.4849567419997,None,534.4849567419997,None,534.4849567419997,None,534.4849567419997,None,534.4849567419997,None,None,534.4849567419997,None,,,,,,,,,,,,,,,,,,,102921,0,2,1,2,1,1,2,0,20,2021_Oct_29_1526,listening_fmri,3.2.4,59.93022707212587,
2,,,,,,,,,,0,0,0,0,0,2,2,2,0,0,0,0,0,0,0,0,,,,,,,,,,,,,,,,,,,,,,,,,,,,,,,,,,,,,,,,,,,,,,,,,,,,,,,,,,,,,,,,,,,,,,,,,,,,,,,,,,,,,,,,,,,,,,,,,,,,,,,,,563.0634631419998,None,2,2.0877739580000707,563.0634631419998,None,563.0634631419998,None,565.1854389479995,None,565.1854389479995,None,565.1854389479995,None,2,0.7998430739999094,565.1854389479995,None,102921,0,2,1,2,1,1,2,0,20,2021_Oct_29_1526,listening_fmri,3.2.4,59.93022707212587,
2,parcelated_audio/23/23_1.ogg,,,,,,,,,0,0,0,0,0,2,2,2,0,0,0,0,,,,,,,,,0,0,0,0,0,0,0,0,,,,,,,,,,,,,,,,,,,,,,,,,,,,,,,,,,,,566.0136672579993,None,2,1.4984641020000709,566.0136672579993,None,517.6565381990004,520.6720548000003,520.6841853510005,531.0818533420006,,,,,,,,,,,,,,,,,,,,,,,,,,,,,,,,,,,,,,,,,,,,,,,,,,,,,,,,,,,,,,,,,,102921,0,2,1,2,1,1,2,0,20,2021_Oct_29_1526,listening_fmri,3.2.4,59.93022707212587,
2,parcelated_audio/23/23_2.ogg,,,,,,,,,0,0,0,0,0,2,2,2,0,0,0,0,,,,,,,,,0,0,0,0,0,1,1,1,,,,,,,,,,,,,,,,,,,,,,,,,,,,,,,,,,,,,,,,,,,,531.0830237870005,537.9738659410004,,,,,,,,,,,,,,,,,,,,,,,,,,,,,,,,,,,,,,,,,,,,,,,,,,,,,,,,,,,,,,,,,,102921,0,2,1,2,1,1,2,0,20,2021_Oct_29_1526,listening_fmri,3.2.4,59.93022707212587,
2,parcelated_audio/23/23_3.ogg,,,,,,,,,0,0,0,0,0,2,2,2,0,0,0,0,,,,,,,,,0,0,0,0,0,2,2,2,,,,,,,,,,,,,,,,,,,,,,,,,,,,,,,,,,,,,,,,,,,,537.9742577329998,543.7484580330001,,,,,,,,,,,,,,,,,,,,,,,,,,,,,,,,,,,,,,,,,,,,,,,,,,,,,,,,,,,,,,,,,,102921,0,2,1,2,1,1,2,0,20,2021_Oct_29_1526,listening_fmri,3.2.4,59.93022707212587,
2,parcelated_audio/23/23_4.ogg,,,,,,,,,0,0,0,0,0,2,2,2,0,0,0,0,,,,,,,,,0,0,0,0,0,3,3,3,,,,,,,,,,,,,,,,,,,,,,,,,,,,,,,,,,,,,,,,,,,,543.7487368749998,555.0094132499999,,,,,,,,,,,,,,,,,,,,,,,,,,,,,,,,,,,,,,,,,,,,,,,,,,,,,,,,,,,,,,,,,,102921,0,2,1,2,1,1,2,0,20,2021_Oct_29_1526,listening_fmri,3.2.4,59.93022707212587,
2,parcelated_audio/23/23_5.ogg,,,,,,,,,0,0,0,0,0,2,2,2,0,0,0,0,,,,,,,,,0,0,0,0,0,4,4,4,,,,,,,,,,,,,,,,,,,,,,,,,,,,,,,,,,,,,,,,,,,,555.0096629979998,561.2209716380003,,,,,,,,,,,,,,,,,,,,,,,,,,,,,,,,,,,,,,,,,,,,,,,,,,,,,,,,,,,,,,,,,,102921,0,2,1,2,1,1,2,0,20,2021_Oct_29_1526,listening_fmri,3.2.4,59.93022707212587,
2,parcelated_audio/23/23_6.ogg,,,,,,,,,0,0,0,0,0,2,2,2,0,0,0,0,,,,,,,,,0,0,0,0,0,5,5,5,,,,,,,,,,,,,,,,,,,,,,,,,,,,,,,,,,,,,,,,,,,,561.2219047919998,568.628272379,,,,,,,,,,,,,,,,,,,,,,,,,,,,,,,,,,,,,,,,,,,,,,,,,,,,,,,,,,,,,,,,,,102921,0,2,1,2,1,1,2,0,20,2021_Oct_29_1526,listening_fmri,3.2.4,59.93022707212587,
2,parcelated_audio/23/23_7.ogg,,,,,,,,,0,0,0,0,0,2,2,2,0,0,0,0,,,,,,,,,0,0,0,0,0,6,6,6,,,,,,,,,,,,,,,,,,,,,,,,,,,,,,,,,,,,,,,,,,,,568.6286849830003,575.380631557,,,,,,,,,,,,,,,,,,,,,,,,,,,,,,,,,,,,,,,,,,,,,,,,,,,,,,,,,,,,,,,,,,102921,0,2,1,2,1,1,2,0,20,2021_Oct_29_1526,listening_fmri,3.2.4,59.93022707212587,
2,parcelated_audio/23/23_8.ogg,,,,,,,,,0,0,0,0,0,2,2,2,0,0,0,0,,,,,,,,,0,0,0,0,0,7,7,7,,,,,,,,,,,,,,,,,,,,,,,,,,,,,,,,,,,,,,,,,,,,575.3811316609999,580.7825376640003,,,,,,,,,,,,,,,,,,,,,,,,,,,,,,,,,,,,,,,,,,,,,,,,,,,,,,,,,,,,,,,,,,102921,0,2,1,2,1,1,2,0,20,2021_Oct_29_1526,listening_fmri,3.2.4,59.93022707212587,
2,parcelated_audio/23/23_9.ogg,,,,,,,,,0,0,0,0,0,2,2,2,0,0,0,0,,,,,,,,,0,0,0,0,0,8,8,8,,,,,,,,,,,,,,,,,,,,,,,,,,,,,,,,,,,,,,,,,,,,580.7828948900005,585.17003845,,,,,,,,,,,,,,,,,,,,,,,,,,,,,,,,,,,,,,,,,,,,,,,,,,,,,,,,,,,,,,,,,,102921,0,2,1,2,1,1,2,0,20,2021_Oct_29_1526,listening_fmri,3.2.4,59.93022707212587,
2,parcelated_audio/23/23_10.ogg,,,,,,,,,0,0,0,0,0,2,2,2,0,0,0,0,,,,,,,,,0,0,0,0,0,9,9,9,,,,,,,,,,,,,,,,,,,,,,,,,,,,,,,,,,,,,,,,,,,,585.1703952380003,589.1280070460007,,,,,,,,,,,,,,,,,,,,,,,,,,,,,,,,,,,,,,,,,,,,,,,,,,,,,,,,,,,,,,,,,,102921,0,2,1,2,1,1,2,0,20,2021_Oct_29_1526,listening_fmri,3.2.4,59.93022707212587,
2,parcelated_audio/23/23_11.ogg,,,,,,,,,0,0,0,0,0,2,2,2,0,0,0,0,,,,,,,,,0,0,0,0,0,10,10,10,,,,,,,,,,,,,,,,,,,,,,,,,,,,,,,,,,,,,,,,,,,,589.1284347420005,597.2515162380005,,,,,,,,,,,,,,,,,,,,,,,,,,,,,,,,,,,,,,,,,,,,,,,,,,,,,,,,,,,,,,,,,,102921,0,2,1,2,1,1,2,0,20,2021_Oct_29_1526,listening_fmri,3.2.4,59.93022707212587,
2,parcelated_audio/23/23_12.ogg,,,,,,,,,0,0,0,0,0,2,2,2,0,0,0,0,,,,,,,,,0,0,0,0,0,11,11,11,,,,,,,,,,,,,,,,,,,,,,,,,,,,,,,,,,,,,,,,,,,,597.2520522960003,604.3959859719998,,,,,,,,,,,,,,,,,,,,,,,,,,,,,,,,,,,,,,,,,,,,,,,,,,,,,,,,,,,,,,,,,,102921,0,2,1,2,1,1,2,0,20,2021_Oct_29_1526,listening_fmri,3.2.4,59.93022707212587,
2,parcelated_audio/23/23_13.ogg,,,,,,,,,0,0,0,0,0,2,2,2,0,0,0,0,,,,,,,,,0,0,0,0,0,12,12,12,,,,,,,,,,,,,,,,,,,,,,,,,,,,,,,,,,,,,,,,,,,,604.3965354350003,611.1664152439998,,,,,,,,,,,,,,,,,,,,,,,,,,,,,,,,,,,,,,,,,,,,,,,,,,,,,,,,,,,,,,,,,,102921,0,2,1,2,1,1,2,0,20,2021_Oct_29_1526,listening_fmri,3.2.4,59.93022707212587,
2,parcelated_audio/23/23_14.ogg,,,,,,,,,0,0,0,0,0,2,2,2,0,0,0,0,,,,,,,,,0,0,0,0,0,13,13,13,,,,,,,,,,,,,,,,,,,,,,,,,,,,,,,,,,,,,,,,,,,,611.1669336730001,615.5320349800004,,,,,,,,,,,,,,,,,,,,,,,,,,,,,,,,,,,,,,,,,,,,,,,,,,,,,,,,,,,,,,,,,,102921,0,2,1,2,1,1,2,0,20,2021_Oct_29_1526,listening_fmri,3.2.4,59.93022707212587,
2,parcelated_audio/23/23_15.ogg,,,,,,,,,0,0,0,0,0,2,2,2,0,0,0,0,,,,,,,,,0,0,0,0,0,14,14,14,,,,,,,,,,,,,,,,,,,,,,,,,,,,,,,,,,,,,,,,,,,,615.53259411,619.9534577590002,,,,,,,,,,,,,,,,,,,,,,,,,,,,,,,,,,,,,,,,,,,,,,,,,,,,,,,,,,,,,,,,,,102921,0,2,1,2,1,1,2,0,20,2021_Oct_29_1526,listening_fmri,3.2.4,59.93022707212587,
2,parcelated_audio/23/23_16.ogg,,,,,,,,,0,0,0,0,0,2,2,2,0,0,0,0,,,,,,,,,0,0,0,0,0,15,15,15,,,,,,,,,,,,,,,,,,,,,,,,,,,,,,,,,,,,,,,,,,,,619.9538136480005,626.53470698,,,,,,,,,,,,,,,,,,,,,,,,,,,,,,,,,,,,,,,,,,,,,,,,,,,,,,,,,,,,,,,,,,102921,0,2,1,2,1,1,2,0,20,2021_Oct_29_1526,listening_fmri,3.2.4,59.93022707212587,
2,parcelated_audio/23/23_17.ogg,,,,,,,,,0,0,0,0,0,2,2,2,0,0,0,0,,,,,,,,,0,0,0,0,0,16,16,16,,,,,,,,,,,,,,,,,,,,,,,,,,,,,,,,,,,,,,,,,,,,626.5350386079999,633.2731607430005,,,,,,,,,,,,,,,,,,,,,,,,,,,,,,,,,,,,,,,,,,,,,,,,,,,,,,,,,,,,,,,,,,102921,0,2,1,2,1,1,2,0,20,2021_Oct_29_1526,listening_fmri,3.2.4,59.93022707212587,
2,parcelated_audio/23/23_18.ogg,,,,,,,,,0,0,0,0,0,2,2,2,0,0,0,0,,,,,,,,,0,0,0,0,0,17,17,17,,,,,,,,,,,,,,,,,,,,,,,,,,,,,,,,,,,,,,,,,,,,633.2734852789999,645.256336333,,,,,,,,,,,,,,,,,,,,,,,,,,,,,,,,,,,,,,,,,,,,,,,,,,,,,,,,,,,,,,,,,,102921,0,2,1,2,1,1,2,0,20,2021_Oct_29_1526,listening_fmri,3.2.4,59.93022707212587,
2,parcelated_audio/23/23_19.ogg,,,,,,,,,0,0,0,0,0,2,2,2,0,0,0,0,,,,,,,,,0,0,0,0,0,18,18,18,,,,,,,,,,,,,,,,,,,,,,,,,,,,,,,,,,,,,,,,,,,,645.2567019610005,651.0180744230001,,,,,,,,,,,,,,,,,,,,,,,,,,,,,,,,,,,,,,,,,,,,,,,,,,,,,,,,,,,,,,,,,,102921,0,2,1,2,1,1,2,0,20,2021_Oct_29_1526,listening_fmri,3.2.4,59.93022707212587,
2,parcelated_audio/23/23_20.ogg,,,,,,,,,0,0,0,0,0,2,2,2,0,0,0,0,,,,,,,,,0,0,0,0,0,19,19,19,,,,,,,,,,,,,,,,,,,,,,,,,,,,,,,,,,,,,,,,,,,,651.0183719739998,653.8818703800007,,,,,,,,,,,,,,,,,,,,,,,,,,,,,,,,,,,,,,,,,,,,,,,,,,,,,,,,,,,,,,,,,,102921,0,2,1,2,1,1,2,0,20,2021_Oct_29_1526,listening_fmri,3.2.4,59.93022707212587,
2,parcelated_audio/23/23_21.ogg,,,,,,,,,0,0,0,0,0,2,2,2,0,0,0,0,,,,,,,,,0,0,0,0,0,20,20,20,,,,,,,,,,,,,,,,,,,,,,,,,,,,,,,,,,,,,,,,,,,,653.8821232460004,661.5521116950003,,,,,,,,,,,,,,,,,,,,,,,,,,,,,,,,,,,,,,,,,,,,,,,,,,,,,,,,,,,,,,,,,,102921,0,2,1,2,1,1,2,0,20,2021_Oct_29_1526,listening_fmri,3.2.4,59.93022707212587,
2,parcelated_audio/23/23_22.ogg,,,,,,,,,0,0,0,0,0,2,2,2,0,0,0,0,,,,,,,,,0,0,0,0,0,21,21,21,,,,,,,,,,,,,,,,,,,,,,,,,,,,,,,,,,,,,,,,,,,,661.5525393260004,664.2152180680005,,,,,,,,,,,,,,,,,,,,,,,,,,,,,,,,,,,,,,,,,,,,,,,,,,,,,,,,,,,,,,,,,,102921,0,2,1,2,1,1,2,0,20,2021_Oct_29_1526,listening_fmri,3.2.4,59.93022707212587,
2,parcelated_audio/23/23_23.ogg,,,,,,,,,0,0,0,0,0,2,2,2,0,0,0,0,,,,,,,,,0,0,0,0,0,22,22,22,,,,,,,,,,,,,,,,,,,,,,,,,,,,,,,,,,,,,,,,,,,,664.2154946760002,668.3698085619999,,,,,,,,,,,,,,,,,,,,,,,,,,,,,,,,,,,,,,,,,,,,,,,,,,,,,,,,,,,,,,,,,,102921,0,2,1,2,1,1,2,0,20,2021_Oct_29_1526,listening_fmri,3.2.4,59.93022707212587,
2,parcelated_audio/23/23_24.ogg,,,,,,,,,0,0,0,0,0,2,2,2,0,0,0,0,,,,,,,,,0,0,0,0,0,23,23,23,,,,,,,,,,,,,,,,,,,,,,,,,,,,,,,,,,,,,,,,,,,,668.3700867650005,671.8172780700006,,,,,,,,,,,,,,,,,,,,,,,,,,,,,,,,,,,,,,,,,,,,,,,,,,,,,,,,,,,,,,,,,,102921,0,2,1,2,1,1,2,0,20,2021_Oct_29_1526,listening_fmri,3.2.4,59.93022707212587,
2,parcelated_audio/23/23_25.ogg,,,,,,,,,0,0,0,0,0,2,2,2,0,0,0,0,,,,,,,,,0,0,0,0,0,24,24,24,,,,,,,,,,,,,,,,,,,,,,,,,,,,,,,,,,,,,,,,,,,,671.8175713070004,675.9536331449999,,,,,,,,,,,,,,,,,,,,,,,,,,,,,,,,,,,,,,,,,,,,,,,,,,,,,,,,,,,,,,,,,,102921,0,2,1,2,1,1,2,0,20,2021_Oct_29_1526,listening_fmri,3.2.4,59.93022707212587,
2,parcelated_audio/23/23_26.ogg,,,,,,,,,0,0,0,0,0,2,2,2,0,0,0,0,,,,,,,,,0,0,0,0,0,25,25,25,,,,,,,,,,,,,,,,,,,,,,,,,,,,,,,,,,,,,,,,,,,,675.9540099200003,682.1866135600003,,,,,,,,,,,,,,,,,,,,,,,,,,,,,,,,,,,,,,,,,,,,,,,,,,,,,,,,,,,,,,,,,,102921,0,2,1,2,1,1,2,0,20,2021_Oct_29_1526,listening_fmri,3.2.4,59.93022707212587,
2,parcelated_audio/23/23_27.ogg,,,,,,,,,0,0,0,0,0,2,2,2,0,0,0,0,,,,,,,,,0,0,0,0,0,26,26,26,,,,,,,,,,,,,,,,,,,,,,,,,,,,,,,,,,,,,,,,,,,,682.18697023,687.4632147740003,,,,,,,,,,,,,,,,,,,,,,,,,,,,,,,,,,,,,,,,,,,,,,,,,,,,,,,,,,,,,,,,,,102921,0,2,1,2,1,1,2,0,20,2021_Oct_29_1526,listening_fmri,3.2.4,59.93022707212587,
2,parcelated_audio/23/23_28.ogg,,,,,,,,,0,0,0,0,0,2,2,2,0,0,0,0,,,,,,,,,0,0,0,0,0,27,27,27,,,,,,,,,,,,,,,,,,,,,,,,,,,,,,,,,,,,,,,,,,,,687.4634896759999,695.4179257209998,,,,,,,,,,,,,,,,,,,,,,,,,,,,,,,,,,,,,,,,,,,,,,,,,,,,,,,,,,,,,,,,,,102921,0,2,1,2,1,1,2,0,20,2021_Oct_29_1526,listening_fmri,3.2.4,59.93022707212587,
2,parcelated_audio/23/23_29.ogg,,,,,,,,,0,0,0,0,0,2,2,2,0,0,0,0,,,,,,,,,0,0,0,0,0,28,28,28,,,,,,,,,,,,,,,,,,,,,,,,,,,,,,,,,,,,,,,,,,,,695.4187730700005,699.1779025750002,,,,,,,,,,,,,,,,,,,,,,,,,,,,,,,,,,,,,,,,,,,,,,,,,,,,,,,,,,,,,,,,,,102921,0,2,1,2,1,1,2,0,20,2021_Oct_29_1526,listening_fmri,3.2.4,59.93022707212587,
2,parcelated_audio/23/23_30.ogg,,,,,,,,,0,0,0,0,0,2,2,2,0,0,0,0,,,,,,,,,0,0,0,0,0,29,29,29,,,,,,,,,,,,,,,,,,,,,,,,,,,,,,,,,,,,,,,,,,,,699.1781667149999,705.0927066310005,,,,,,,,,,,,,,,,,,,,,,,,,,,,,,,,,,,,,,,,,,,,,,,,,,,,,,,,,,,,,,,,,,102921,0,2,1,2,1,1,2,0,20,2021_Oct_29_1526,listening_fmri,3.2.4,59.93022707212587,
2,parcelated_audio/23/23_31.ogg,,,,,,,,,0,0,0,0,0,2,2,2,0,0,0,0,,,,,,,,,0,0,0,0,0,30,30,30,,,,,,,,,,,,,,,,,,,,,,,,,,,,,,,,,,,,,,,,,,,,705.0930635800005,707.0999727420003,,,,,,,,,,,,,,,,,,,,,,,,,,,,,,,,,,,,,,,,,,,,,,,,,,,,,,,,,,,,,,,,,,102921,0,2,1,2,1,1,2,0,20,2021_Oct_29_1526,listening_fmri,3.2.4,59.93022707212587,
2,parcelated_audio/23/23_32.ogg,,,,,,,,,0,0,0,0,0,2,2,2,0,0,0,0,,,,,,,,,0,0,0,0,0,31,31,31,,,,,,,,,,,,,,,,,,,,,,,,,,,,,,,,,,,,,,,,,,,,707.1004581930001,710.7035871580001,,,,,,,,,,,,,,,,,,,,,,,,,,,,,,,,,,,,,,,,,,,,,,,,,,,,,,,,,,,,,,,,,,102921,0,2,1,2,1,1,2,0,20,2021_Oct_29_1526,listening_fmri,3.2.4,59.93022707212587,
2,parcelated_audio/23/23_33.ogg,,,,,,,,,0,0,0,0,0,2,2,2,0,0,0,0,,,,,,,,,0,0,0,0,0,32,32,32,,,,,,,,,,,,,,,,,,,,,,,,,,,,,,,,,,,,,,,,,,,,710.703944369,716.7486252429999,,,,,,,,,,,,,,,,,,,,,,,,,,,,,,,,,,,,,,,,,,,,,,,,,,,,,,,,,,,,,,,,,,102921,0,2,1,2,1,1,2,0,20,2021_Oct_29_1526,listening_fmri,3.2.4,59.93022707212587,
2,parcelated_audio/23/23_34.ogg,,,,,,,,,0,0,0,0,0,2,2,2,0,0,0,0,,,,,,,,,0,0,0,0,0,33,33,33,,,,,,,,,,,,,,,,,,,,,,,,,,,,,,,,,,,,,,,,,,,,716.7489785289999,720.2902151610006,,,,,,,,,,,,,,,,,,,,,,,,,,,,,,,,,,,,,,,,,,,,,,,,,,,,,,,,,,,,,,,,,,102921,0,2,1,2,1,1,2,0,20,2021_Oct_29_1526,listening_fmri,3.2.4,59.93022707212587,
2,parcelated_audio/23/23_35.ogg,,,,,,,,,0,0,0,0,0,2,2,2,0,0,0,0,,,,,,,,,0,0,0,0,0,34,34,34,,,,,,,,,,,,,,,,,,,,,,,,,,,,,,,,,,,,,,,,,,,,720.2907888500004,724.5646358949998,,,,,,,,,,,,,,,,,,,,,,,,,,,,,,,,,,,,,,,,,,,,,,,,,,,,,,,,,,,,,,,,,,102921,0,2,1,2,1,1,2,0,20,2021_Oct_29_1526,listening_fmri,3.2.4,59.93022707212587,
2,parcelated_audio/23/23_36.ogg,,,,,,,,,0,0,0,0,0,2,2,2,0,0,0,0,,,,,,,,,0,0,0,0,0,35,35,35,,,,,,,,,,,,,,,,,,,,,,,,,,,,,,,,,,,,,,,,,,,,724.5649895309998,729.18848204,,,,,,,,,,,,,,,,,,,,,,,,,,,,,,,,,,,,,,,,,,,,,,,,,,,,,,,,,,,,,,,,,,102921,0,2,1,2,1,1,2,0,20,2021_Oct_29_1526,listening_fmri,3.2.4,59.93022707212587,
2,parcelated_audio/23/23_37.ogg,,,,,,,,,0,0,0,0,0,2,2,2,0,0,0,0,,,,,,,,,0,0,0,0,0,36,36,36,,,,,,,,,,,,,,,,,,,,,,,,,,,,,,,,,,,,,,,,,,,,729.1888367910005,733.9807406320006,,,,,,,,,,,,,,,,,,,,,,,,,,,,,,,,,,,,,,,,,,,,,,,,,,,,,,,,,,,,,,,,,,102921,0,2,1,2,1,1,2,0,20,2021_Oct_29_1526,listening_fmri,3.2.4,59.93022707212587,
2,parcelated_audio/23/23_38.ogg,,,,,,,,,0,0,0,0,0,2,2,2,0,0,0,0,,,,,,,,,0,0,0,0,0,37,37,37,,,,,,,,,,,,,,,,,,,,,,,,,,,,,,,,,,,,,,,,,,,,733.981181524,741.4686188380001,,,,,,,,,,,,,,,,,,,,,,,,,,,,,,,,,,,,,,,,,,,,,,,,,,,,,,,,,,,,,,,,,,102921,0,2,1,2,1,1,2,0,20,2021_Oct_29_1526,listening_fmri,3.2.4,59.93022707212587,
2,parcelated_audio/23/23_39.ogg,,,,,,,,,0,0,0,0,0,2,2,2,0,0,0,0,,,,,,,,,0,0,0,0,0,38,38,38,,,,,,,,,,,,,,,,,,,,,,,,,,,,,,,,,,,,,,,,,,,,741.4690780840001,747.7296881860002,,,,,,,,,,,,,,,,,,,,,,,,,,,,,,,,,,,,,,,,,,,,,,,,,,,,,,,,,,,,,,,,,,102921,0,2,1,2,1,1,2,0,20,2021_Oct_29_1526,listening_fmri,3.2.4,59.93022707212587,
2,,,,,,,,,,0,0,0,0,0,2,2,2,0,0,0,0,,,,,,,,,0,0,0,0,,,,,,,,,,,,,,,,,,,,,,,,,,,,,,,,,,,,,,,,,,,,,,,,,,,,,,,,,,,,,,,,,,,,,,,,,,,,,,,,,,,,,,,,,,,,,,,,,,,,,,,,,,,,,,,,,,,102921,0,2,1,2,1,1,2,0,20,2021_Oct_29_1526,listening_fmri,3.2.4,59.93022707212587,
,,,,,,,,,,,,,,,,,,,,,,,,,,,,,,,,,,,,,,,,,,,,,,,,,,,,,,,,,,,747.730183611,753.7328458530001,797.5989974239992,None,,,,,,,,,,,,,,,,,,,,,803.6134415369997,None,803.6134415369997,None,,,,,,,,,,,,,,,,,,,,,,,,,,,,,,,,,,,,,,,,,,,,,,,,,,,,,,,,,,,,,,,,,,,,,,,,,,,,
﻿count,audio,trials_14.thisRepN,trials_14.thisTrialN,trials_14.thisN,trials_14.thisIndex,trials_3.thisRepN,trials_3.thisTrialN,trials_3.thisN,trials_3.thisIndex,trials_4.thisRepN,trials_4.thisTrialN,trials_4.thisN,trials_4.thisIndex,trials_6.thisRepN,trials_6.thisTrialN,trials_6.thisN,trials_6.thisIndex,trials_9.thisRepN,trials_9.thisTrialN,trials_9.thisN,trials_9.thisIndex,trials_10.thisRepN,trials_10.thisTrialN,trials_10.thisN,trials_10.thisIndex,trials_12.thisRepN,trials_12.thisTrialN,trials_12.thisN,trials_12.thisIndex,trials_25.thisRepN,trials_25.thisTrialN,trials_25.thisN,trials_25.thisIndex,trials_15.thisRepN,trials_15.thisTrialN,trials_15.thisN,trials_15.thisIndex,trials_26.thisRepN,trials_26.thisTrialN,trials_26.thisN,trials_26.thisIndex,trials_11.thisRepN,trials_11.thisTrialN,trials_11.thisN,trials_11.thisIndex,story_list_block2,action_list_block2,textTrigger.started,textTrigger.stopped,getTrigger.keys,getTrigger.rt,getTrigger.started,getTrigger.stopped,triggerTime,text_76.started,text_76.stopped,text_77.started,text_77.stopped,startWait,endWait,image_23.started,image_23.stopped,text_55.started,text_55.stopped,text_56.started,text_56.stopped,key_resp_2.keys,key_resp_2.rt,key_resp_2.started,key_resp_2.stopped,text_82.started,text_82.stopped,text_64.started,text_64.stopped,key_resp_20.keys,key_resp_20.rt,key_resp_20.started,key_resp_20.stopped,storyImage_StartTime,storyImage_EndTime,clip_StartTime,clip_EndTime,text_67.started,text_67.stopped,text_68.started,text_68.stopped,text_57.started,text_57.stopped,key_resp_17.keys,key_resp_17.rt,key_resp_17.started,key_resp_17.stopped,text_83.started,text_83.stopped,text_60.started,text_60.stopped,image_2.started,image_2.stopped,text_58.started,text_58.stopped,key_resp_23.keys,key_resp_23.rt,key_resp_23.started,key_resp_23.stopped,text_62.started,text_62.stopped,key_resp_18.keys,key_resp_18.rt,key_resp_18.started,key_resp_18.stopped,text_84.started,text_84.stopped,question1_2.started,question1_2.stopped,question2_2.started,question2_2.stopped,question3_2.started,question3_2.stopped,question4_2.started,question4_2.stopped,question5_2.started,question5_2.stopped,question6_2.started,question6_2.stopped,image_15.started,image_15.stopped,key_resp.keys,key_resp.started,key_resp.stopped,text_59.started,text_59.stopped,key_resp_19.keys,key_resp_19.rt,key_resp_19.started,key_resp_19.stopped,text_85.started,text_85.stopped,text_61.started,text_61.stopped,image_17.started,image_17.stopped,text_63.started,text_63.stopped,key_resp_24.keys,key_resp_24.rt,key_resp_24.started,key_resp_24.stopped,participant,sA,sB,lA,lB,block_struct,play_stories,block,behavioral,random_seed,date,expName,psychopyVersion,frameRate,
0,parcelated_audio/21/21_1.ogg,,,,,,,,,0,0,0,0,0,0,0,0,0,0,0,0,,,,,,,,,0,0,0,0,0,0,0,0,,,,,,,,,[21 43 23 34 41 32 12 14],[4 2 2 1 4 3 3 1],19.27842622999924,None,equal,30.575857931999963,19.27842622999924,None,30.596426791999875,19.27842622999924,None,19.27842622999924,None,0.00032985500001814216,5.998982375000196,49.8796614719995,None,55.878261736999775,None,55.878261736999775,None,2,3.101937395999812,55.878261736999775,None,55.878261736999775,None,59.01277767800002,None,2,1.5695052569999461,59.01277767800002,None,10.73904951500026,13.748479677999967,13.753616283000156,28.028244783000446,,,,,,,,,,,,,,,,,,,,,,,,,,,,,,,,,,,,,,,,,,,,,,,,,,,,,,,,,,,,,,,,,,102921,0,2,1,2,1,1,2,0,20,2021_Oct_29_1526,listening_fmri,3.2.4,59.93022707212587,
0,parcelated_audio/21/21_2.ogg,,,,,,,,,0,0,0,0,0,0,0,0,0,0,0,0,,,,,,,,,0,0,0,0,0,1,1,1,,,,,,,,,,,,,,,,,,,,,,,,,,,,,,,,,,,,,,,,,,,,28.028516733999822,35.46320724100042,,,,,,,,,,,,,,,,,,,,,,,,,,,,,,,,,,,,,,,,,,,,,,,,,,,,,,,,,,,,,,,,,,102921,0,2,1,2,1,1,2,0,20,2021_Oct_29_1526,listening_fmri,3.2.4,59.93022707212587,
0,parcelated_audio/21/21_3.ogg,,,,,,,,,0,0,0,0,0,0,0,0,0,0,0,0,,,,,,,,,0,0,0,0,0,2,2,2,,,,,,,,,,,,,,,,,,,,,,,,,,,,,,,,,,,,,,,,,,,,35.464867759999834,43.14963179000006,,,,,,,,,,,,,,,,,,,,,,,,,,,,,,,,,,,,,,,,,,,,,,,,,,,,,,,,,,,,,,,,,,102921,0,2,1,2,1,1,2,0,20,2021_Oct_29_1526,listening_fmri,3.2.4,59.93022707212587,
0,parcelated_audio/21/21_4.ogg,,,,,,,,,0,0,0,0,0,0,0,0,0,0,0,0,,,,,,,,,0,0,0,0,0,3,3,3,,,,,,,,,,,,,,,,,,,,,,,,,,,,,,,,,,,,,,,,,,,,43.15000144300029,54.188766723999834,,,,,,,,,,,,,,,,,,,,,,,,,,,,,,,,,,,,,,,,,,,,,,,,,,,,,,,,,,,,,,,,,,102921,0,2,1,2,1,1,2,0,20,2021_Oct_29_1526,listening_fmri,3.2.4,59.93022707212587,
0,parcelated_audio/21/21_5.ogg,,,,,,,,,0,0,0,0,0,0,0,0,0,0,0,0,,,,,,,,,0,0,0,0,0,4,4,4,,,,,,,,,,,,,,,,,,,,,,,,,,,,,,,,,,,,,,,,,,,,54.18919344599999,59.247678057000485,,,,,,,,,,,,,,,,,,,,,,,,,,,,,,,,,,,,,,,,,,,,,,,,,,,,,,,,,,,,,,,,,,102921,0,2,1,2,1,1,2,0,20,2021_Oct_29_1526,listening_fmri,3.2.4,59.93022707212587,
0,parcelated_audio/21/21_6.ogg,,,,,,,,,0,0,0,0,0,0,0,0,0,0,0,0,,,,,,,,,0,0,0,0,0,5,5,5,,,,,,,,,,,,,,,,,,,,,,,,,,,,,,,,,,,,,,,,,,,,59.24816457399993,67.41190276799989,,,,,,,,,,,,,,,,,,,,,,,,,,,,,,,,,,,,,,,,,,,,,,,,,,,,,,,,,,,,,,,,,,102921,0,2,1,2,1,1,2,0,20,2021_Oct_29_1526,listening_fmri,3.2.4,59.93022707212587,
0,parcelated_audio/21/21_7.ogg,,,,,,,,,0,0,0,0,0,0,0,0,0,0,0,0,,,,,,,,,0,0,0,0,0,6,6,6,,,,,,,,,,,,,,,,,,,,,,,,,,,,,,,,,,,,,,,,,,,,67.41241727099987,71.92734266900061,,,,,,,,,,,,,,,,,,,,,,,,,,,,,,,,,,,,,,,,,,,,,,,,,,,,,,,,,,,,,,,,,,102921,0,2,1,2,1,1,2,0,20,2021_Oct_29_1526,listening_fmri,3.2.4,59.93022707212587,
0,parcelated_audio/21/21_8.ogg,,,,,,,,,0,0,0,0,0,0,0,0,0,0,0,0,,,,,,,,,0,0,0,0,0,7,7,7,,,,,,,,,,,,,,,,,,,,,,,,,,,,,,,,,,,,,,,,,,,,71.92786206600067,82.8653838350001,,,,,,,,,,,,,,,,,,,,,,,,,,,,,,,,,,,,,,,,,,,,,,,,,,,,,,,,,,,,,,,,,,102921,0,2,1,2,1,1,2,0,20,2021_Oct_29_1526,listening_fmri,3.2.4,59.93022707212587,
0,parcelated_audio/21/21_9.ogg,,,,,,,,,0,0,0,0,0,0,0,0,0,0,0,0,,,,,,,,,0,0,0,0,0,8,8,8,,,,,,,,,,,,,,,,,,,,,,,,,,,,,,,,,,,,,,,,,,,,82.86588212900006,90.2385155740003,,,,,,,,,,,,,,,,,,,,,,,,,,,,,,,,,,,,,,,,,,,,,,,,,,,,,,,,,,,,,,,,,,102921,0,2,1,2,1,1,2,0,20,2021_Oct_29_1526,listening_fmri,3.2.4,59.93022707212587,
0,parcelated_audio/21/21_10.ogg,,,,,,,,,0,0,0,0,0,0,0,0,0,0,0,0,,,,,,,,,0,0,0,0,0,9,9,9,,,,,,,,,,,,,,,,,,,,,,,,,,,,,,,,,,,,,,,,,,,,90.23901607500011,97.0994743350002,,,,,,,,,,,,,,,,,,,,,,,,,,,,,,,,,,,,,,,,,,,,,,,,,,,,,,,,,,,,,,,,,,102921,0,2,1,2,1,1,2,0,20,2021_Oct_29_1526,listening_fmri,3.2.4,59.93022707212587,
0,parcelated_audio/21/21_11.ogg,,,,,,,,,0,0,0,0,0,0,0,0,0,0,0,0,,,,,,,,,0,0,0,0,0,10,10,10,,,,,,,,,,,,,,,,,,,,,,,,,,,,,,,,,,,,,,,,,,,,97.09982204000062,104.20070867800041,,,,,,,,,,,,,,,,,,,,,,,,,,,,,,,,,,,,,,,,,,,,,,,,,,,,,,,,,,,,,,,,,,102921,0,2,1,2,1,1,2,0,20,2021_Oct_29_1526,listening_fmri,3.2.4,59.93022707212587,
0,parcelated_audio/21/21_12.ogg,,,,,,,,,0,0,0,0,0,0,0,0,0,0,0,0,,,,,,,,,0,0,0,0,0,11,11,11,,,,,,,,,,,,,,,,,,,,,,,,,,,,,,,,,,,,,,,,,,,,104.20120766200034,112.51431823199982,,,,,,,,,,,,,,,,,,,,,,,,,,,,,,,,,,,,,,,,,,,,,,,,,,,,,,,,,,,,,,,,,,102921,0,2,1,2,1,1,2,0,20,2021_Oct_29_1526,listening_fmri,3.2.4,59.93022707212587,
0,parcelated_audio/21/21_13.ogg,,,,,,,,,0,0,0,0,0,0,0,0,0,0,0,0,,,,,,,,,0,0,0,0,0,12,12,12,,,,,,,,,,,,,,,,,,,,,,,,,,,,,,,,,,,,,,,,,,,,112.51479307499994,115.84834330300055,,,,,,,,,,,,,,,,,,,,,,,,,,,,,,,,,,,,,,,,,,,,,,,,,,,,,,,,,,,,,,,,,,102921,0,2,1,2,1,1,2,0,20,2021_Oct_29_1526,listening_fmri,3.2.4,59.93022707212587,
0,parcelated_audio/21/21_14.ogg,,,,,,,,,0,0,0,0,0,0,0,0,0,0,0,0,,,,,,,,,0,0,0,0,0,13,13,13,,,,,,,,,,,,,,,,,,,,,,,,,,,,,,,,,,,,,,,,,,,,115.84878870500052,121.26231453299988,,,,,,,,,,,,,,,,,,,,,,,,,,,,,,,,,,,,,,,,,,,,,,,,,,,,,,,,,,,,,,,,,,102921,0,2,1,2,1,1,2,0,20,2021_Oct_29_1526,listening_fmri,3.2.4,59.93022707212587,
0,parcelated_audio/21/21_15.ogg,,,,,,,,,0,0,0,0,0,0,0,0,0,0,0,0,,,,,,,,,0,0,0,0,0,14,14,14,,,,,,,,,,,,,,,,,,,,,,,,,,,,,,,,,,,,,,,,,,,,121.26267990500037,128.07761507099985,,,,,,,,,,,,,,,,,,,,,,,,,,,,,,,,,,,,,,,,,,,,,,,,,,,,,,,,,,,,,,,,,,102921,0,2,1,2,1,1,2,0,20,2021_Oct_29_1526,listening_fmri,3.2.4,59.93022707212587,
0,parcelated_audio/21/21_16.ogg,,,,,,,,,0,0,0,0,0,0,0,0,0,0,0,0,,,,,,,,,0,0,0,0,0,15,15,15,,,,,,,,,,,,,,,,,,,,,,,,,,,,,,,,,,,,,,,,,,,,128.0778716499999,134.15425817899995,,,,,,,,,,,,,,,,,,,,,,,,,,,,,,,,,,,,,,,,,,,,,,,,,,,,,,,,,,,,,,,,,,102921,0,2,1,2,1,1,2,0,20,2021_Oct_29_1526,listening_fmri,3.2.4,59.93022707212587,
0,parcelated_audio/21/21_17.ogg,,,,,,,,,0,0,0,0,0,0,0,0,0,0,0,0,,,,,,,,,0,0,0,0,0,16,16,16,,,,,,,,,,,,,,,,,,,,,,,,,,,,,,,,,,,,,,,,,,,,134.1546600370002,136.31572901600066,,,,,,,,,,,,,,,,,,,,,,,,,,,,,,,,,,,,,,,,,,,,,,,,,,,,,,,,,,,,,,,,,,102921,0,2,1,2,1,1,2,0,20,2021_Oct_29_1526,listening_fmri,3.2.4,59.93022707212587,
0,parcelated_audio/21/21_18.ogg,,,,,,,,,0,0,0,0,0,0,0,0,0,0,0,0,,,,,,,,,0,0,0,0,0,17,17,17,,,,,,,,,,,,,,,,,,,,,,,,,,,,,,,,,,,,,,,,,,,,136.316004712,149.460772335,,,,,,,,,,,,,,,,,,,,,,,,,,,,,,,,,,,,,,,,,,,,,,,,,,,,,,,,,,,,,,,,,,102921,0,2,1,2,1,1,2,0,20,2021_Oct_29_1526,listening_fmri,3.2.4,59.93022707212587,
0,parcelated_audio/21/21_19.ogg,,,,,,,,,0,0,0,0,0,0,0,0,0,0,0,0,,,,,,,,,0,0,0,0,0,18,18,18,,,,,,,,,,,,,,,,,,,,,,,,,,,,,,,,,,,,,,,,,,,,149.46173697199993,152.33436652300043,,,,,,,,,,,,,,,,,,,,,,,,,,,,,,,,,,,,,,,,,,,,,,,,,,,,,,,,,,,,,,,,,,102921,0,2,1,2,1,1,2,0,20,2021_Oct_29_1526,listening_fmri,3.2.4,59.93022707212587,
0,parcelated_audio/21/21_20.ogg,,,,,,,,,0,0,0,0,0,0,0,0,0,0,0,0,,,,,,,,,0,0,0,0,0,19,19,19,,,,,,,,,,,,,,,,,,,,,,,,,,,,,,,,,,,,,,,,,,,,152.33501184600027,161.06871022199994,,,,,,,,,,,,,,,,,,,,,,,,,,,,,,,,,,,,,,,,,,,,,,,,,,,,,,,,,,,,,,,,,,102921,0,2,1,2,1,1,2,0,20,2021_Oct_29_1526,listening_fmri,3.2.4,59.93022707212587,
0,parcelated_audio/21/21_21.ogg,,,,,,,,,0,0,0,0,0,0,0,0,0,0,0,0,,,,,,,,,0,0,0,0,0,20,20,20,,,,,,,,,,,,,,,,,,,,,,,,,,,,,,,,,,,,,,,,,,,,161.06970640800046,172.11354184999982,,,,,,,,,,,,,,,,,,,,,,,,,,,,,,,,,,,,,,,,,,,,,,,,,,,,,,,,,,,,,,,,,,102921,0,2,1,2,1,1,2,0,20,2021_Oct_29_1526,listening_fmri,3.2.4,59.93022707212587,
0,parcelated_audio/21/21_22.ogg,,,,,,,,,0,0,0,0,0,0,0,0,0,0,0,0,,,,,,,,,0,0,0,0,0,21,21,21,,,,,,,,,,,,,,,,,,,,,,,,,,,,,,,,,,,,,,,,,,,,172.11401253300028,183.01533484999982,,,,,,,,,,,,,,,,,,,,,,,,,,,,,,,,,,,,,,,,,,,,,,,,,,,,,,,,,,,,,,,,,,102921,0,2,1,2,1,1,2,0,20,2021_Oct_29_1526,listening_fmri,3.2.4,59.93022707212587,
0,parcelated_audio/21/21_23.ogg,,,,,,,,,0,0,0,0,0,0,0,0,0,0,0,0,,,,,,,,,0,0,0,0,0,22,22,22,,,,,,,,,,,,,,,,,,,,,,,,,,,,,,,,,,,,,,,,,,,,183.0158444509998,187.977058081,,,,,,,,,,,,,,,,,,,,,,,,,,,,,,,,,,,,,,,,,,,,,,,,,,,,,,,,,,,,,,,,,,102921,0,2,1,2,1,1,2,0,20,2021_Oct_29_1526,listening_fmri,3.2.4,59.93022707212587,
0,parcelated_audio/21/21_24.ogg,,,,,,,,,0,0,0,0,0,0,0,0,0,0,0,0,,,,,,,,,0,0,0,0,0,23,23,23,,,,,,,,,,,,,,,,,,,,,,,,,,,,,,,,,,,,,,,,,,,,187.97758012299983,192.56397191999986,,,,,,,,,,,,,,,,,,,,,,,,,,,,,,,,,,,,,,,,,,,,,,,,,,,,,,,,,,,,,,,,,,102921,0,2,1,2,1,1,2,0,20,2021_Oct_29_1526,listening_fmri,3.2.4,59.93022707212587,
0,parcelated_audio/21/21_25.ogg,,,,,,,,,0,0,0,0,0,0,0,0,0,0,0,0,,,,,,,,,0,0,0,0,0,24,24,24,,,,,,,,,,,,,,,,,,,,,,,,,,,,,,,,,,,,,,,,,,,,192.56429792000017,202.0132787930006,,,,,,,,,,,,,,,,,,,,,,,,,,,,,,,,,,,,,,,,,,,,,,,,,,,,,,,,,,,,,,,,,,102921,0,2,1,2,1,1,2,0,20,2021_Oct_29_1526,listening_fmri,3.2.4,59.93022707212587,
0,parcelated_audio/21/21_26.ogg,,,,,,,,,0,0,0,0,0,0,0,0,0,0,0,0,,,,,,,,,0,0,0,0,0,25,25,25,,,,,,,,,,,,,,,,,,,,,,,,,,,,,,,,,,,,,,,,,,,,202.0136938200003,206.0152561370005,,,,,,,,,,,,,,,,,,,,,,,,,,,,,,,,,,,,,,,,,,,,,,,,,,,,,,,,,,,,,,,,,,102921,0,2,1,2,1,1,2,0,20,2021_Oct_29_1526,listening_fmri,3.2.4,59.93022707212587,
0,parcelated_audio/21/21_27.ogg,,,,,,,,,0,0,0,0,0,0,0,0,0,0,0,0,,,,,,,,,0,0,0,0,0,26,26,26,,,,,,,,,,,,,,,,,,,,,,,,,,,,,,,,,,,,,,,,,,,,206.01551515700066,213.21520702900034,,,,,,,,,,,,,,,,,,,,,,,,,,,,,,,,,,,,,,,,,,,,,,,,,,,,,,,,,,,,,,,,,,102921,0,2,1,2,1,1,2,0,20,2021_Oct_29_1526,listening_fmri,3.2.4,59.93022707212587,
0,parcelated_audio/21/21_28.ogg,,,,,,,,,0,0,0,0,0,0,0,0,0,0,0,0,,,,,,,,,0,0,0,0,0,27,27,27,,,,,,,,,,,,,,,,,,,,,,,,,,,,,,,,,,,,,,,,,,,,213.2156062740005,219.3311597540005,,,,,,,,,,,,,,,,,,,,,,,,,,,,,,,,,,,,,,,,,,,,,,,,,,,,,,,,,,,,,,,,,,102921,0,2,1,2,1,1,2,0,20,2021_Oct_29_1526,listening_fmri,3.2.4,59.93022707212587,
0,parcelated_audio/21/21_29.ogg,,,,,,,,,0,0,0,0,0,0,0,0,0,0,0,0,,,,,,,,,0,0,0,0,0,28,28,28,,,,,,,,,,,,,,,,,,,,,,,,,,,,,,,,,,,,,,,,,,,,219.33143404100065,223.58586010199997,,,,,,,,,,,,,,,,,,,,,,,,,,,,,,,,,,,,,,,,,,,,,,,,,,,,,,,,,,,,,,,,,,102921,0,2,1,2,1,1,2,0,20,2021_Oct_29_1526,listening_fmri,3.2.4,59.93022707212587,
0,parcelated_audio/21/21_30.ogg,,,,,,,,,0,0,0,0,0,0,0,0,0,0,0,0,,,,,,,,,0,0,0,0,0,29,29,29,,,,,,,,,,,,,,,,,,,,,,,,,,,,,,,,,,,,,,,,,,,,223.58621282700005,228.84714644199994,,,,,,,,,,,,,,,,,,,,,,,,,,,,,,,,,,,,,,,,,,,,,,,,,,,,,,,,,,,,,,,,,,102921,0,2,1,2,1,1,2,0,20,2021_Oct_29_1526,listening_fmri,3.2.4,59.93022707212587,
0,,,,,,,,,,0,0,0,0,0,0,0,0,0,0,0,0,,,,,,,,,0,0,0,0,,,,,,,,,,,,,,,,,,,,,,,,,,,,,,,,,,,,,,,,,,,,,,,,,,,,,,,,,,,,,,,,,,,,,,,,,,,,,,,,,,,,,,,,,,,,,,,,,,,,,,,,,,,,,,,,,,,102921,0,2,1,2,1,1,2,0,20,2021_Oct_29_1526,listening_fmri,3.2.4,59.93022707212587,
0,,,,,,,,,,0,0,0,0,0,0,0,0,0,0,0,0,,,,,,,,,,,,,,,,,,,,,,,,,,,,,,,,,,,,,,228.8475585240003,234.84276989800037,278.7225483759994,None,,,,,,,,,,,,,,,,,,,,,284.72268251399964,None,284.72268251399964,None,,,,,,,,,,,,,,,,,,,,,,,,,,,,,,,,,,,,,,,,,,,,,,,,,,,,,,,,,,,,,,102921,0,2,1,2,1,1,2,0,20,2021_Oct_29_1526,listening_fmri,3.2.4,59.93022707212587,
0,,,,,,,,,,0,0,0,0,0,0,0,0,,,,,,,,,,,,,,,,,,,,,,,,,,,,,,,,,,,,,,,,,,,,,,,,,,,,,,,,,,,,,,,,,,,,,,,,,,,,,,,,,,,,,,,,,,,,,,,,,,,,,,,,,,,,,,,,,,,,,,,,,,,,,,,,,,,102921,0,2,1,2,1,1,2,0,20,2021_Oct_29_1526,listening_fmri,3.2.4,59.93022707212587,
1,,,,,,,,,,0,0,0,0,0,1,1,1,0,0,0,0,0,0,0,0,,,,,,,,,,,,,,,,,0,0,0,0,,,,,,,,,,,,,,,,,,285.739306167,None,285.739306167,None,2,1.518864503000259,285.739306167,None,285.739306167,None,,,,,,,,,,,,,,,287.2794436129998,None,2,0.8818234199998187,287.2794436129998,None,287.2794436129998,None,288.2054451239992,None,288.2054451239992,None,288.2054451239992,None,2,1.154841481999938,288.2054451239992,None,289.37933722899925,None,2,1.5479688790001092,289.37933722899925,None,289.37933722899925,None,291.0290988099996,None,291.0290988099996,None,291.0290988099996,None,291.0290988099996,None,291.0290988099996,None,291.0290988099996,None,291.0290988099996,None,None,291.0290988099996,None,,,,,,,,,,,,,,,,,,,102921,0,2,1,2,1,1,2,0,20,2021_Oct_29_1526,listening_fmri,3.2.4,59.93022707212587,
1,,,,,,,,,,0,0,0,0,0,1,1,1,0,0,0,0,0,0,0,0,,,,,,,,,,,,,,,,,,,,,,,,,,,,,,,,,,,,,,,,,,,,,,,,,,,,,,,,,,,,,,,,,,,,,,,,,,,,,,,,,,,,,,,,,,,,,,,,,,,,,,,,,337.32898857999953,None,2,2.2593343789994833,337.32898857999953,None,337.32898857999953,None,339.63014110099994,None,339.63014110099994,None,339.63014110099994,None,2,1.7921550689998185,339.63014110099994,None,102921,0,2,1,2,1,1,2,0,20,2021_Oct_29_1526,listening_fmri,3.2.4,59.93022707212587,
1,parcelated_audio/43/43_1.ogg,,,,,,,,,0,0,0,0,0,1,1,1,0,0,0,0,,,,,,,,,0,0,0,0,0,0,0,0,,,,,,,,,,,,,,,,,,,,,,,,,,,,,,,,,,,,341.44602834799934,None,2,2.2671188410004106,341.44602834799934,None,293.8844897460003,296.8992003230005,296.90482366800006,304.48718518900023,,,,,,,,,,,,,,,,,,,,,,,,,,,,,,,,,,,,,,,,,,,,,,,,,,,,,,,,,,,,,,,,,,102921,0,2,1,2,1,1,2,0,20,2021_Oct_29_1526,listening_fmri,3.2.4,59.93022707212587,
1,parcelated_audio/43/43_2.ogg,,,,,,,,,0,0,0,0,0,1,1,1,0,0,0,0,,,,,,,,,0,0,0,0,0,1,1,1,,,,,,,,,,,,,,,,,,,,,,,,,,,,,,,,,,,,,,,,,,,,304.4874774179998,308.25818805900053,,,,,,,,,,,,,,,,,,,,,,,,,,,,,,,,,,,,,,,,,,,,,,,,,,,,,,,,,,,,,,,,,,102921,0,2,1,2,1,1,2,0,20,2021_Oct_29_1526,listening_fmri,3.2.4,59.93022707212587,
1,parcelated_audio/43/43_3.ogg,,,,,,,,,0,0,0,0,0,1,1,1,0,0,0,0,,,,,,,,,0,0,0,0,0,2,2,2,,,,,,,,,,,,,,,,,,,,,,,,,,,,,,,,,,,,,,,,,,,,308.2585867880007,317.1597092440006,,,,,,,,,,,,,,,,,,,,,,,,,,,,,,,,,,,,,,,,,,,,,,,,,,,,,,,,,,,,,,,,,,102921,0,2,1,2,1,1,2,0,20,2021_Oct_29_1526,listening_fmri,3.2.4,59.93022707212587,
1,parcelated_audio/43/43_4.ogg,,,,,,,,,0,0,0,0,0,1,1,1,0,0,0,0,,,,,,,,,0,0,0,0,0,3,3,3,,,,,,,,,,,,,,,,,,,,,,,,,,,,,,,,,,,,,,,,,,,,317.16006610300064,325.6621885700006,,,,,,,,,,,,,,,,,,,,,,,,,,,,,,,,,,,,,,,,,,,,,,,,,,,,,,,,,,,,,,,,,,102921,0,2,1,2,1,1,2,0,20,2021_Oct_29_1526,listening_fmri,3.2.4,59.93022707212587,
1,parcelated_audio/43/43_5.ogg,,,,,,,,,0,0,0,0,0,1,1,1,0,0,0,0,,,,,,,,,0,0,0,0,0,4,4,4,,,,,,,,,,,,,,,,,,,,,,,,,,,,,,,,,,,,,,,,,,,,325.6629450540004,334.91048673300065,,,,,,,,,,,,,,,,,,,,,,,,,,,,,,,,,,,,,,,,,,,,,,,,,,,,,,,,,,,,,,,,,,102921,0,2,1,2,1,1,2,0,20,2021_Oct_29_1526,listening_fmri,3.2.4,59.93022707212587,
1,parcelated_audio/43/43_6.ogg,,,,,,,,,0,0,0,0,0,1,1,1,0,0,0,0,,,,,,,,,0,0,0,0,0,5,5,5,,,,,,,,,,,,,,,,,,,,,,,,,,,,,,,,,,,,,,,,,,,,334.91083792800055,344.04446744800043,,,,,,,,,,,,,,,,,,,,,,,,,,,,,,,,,,,,,,,,,,,,,,,,,,,,,,,,,,,,,,,,,,102921,0,2,1,2,1,1,2,0,20,2021_Oct_29_1526,listening_fmri,3.2.4,59.93022707212587,
1,parcelated_audio/43/43_7.ogg,,,,,,,,,0,0,0,0,0,1,1,1,0,0,0,0,,,,,,,,,0,0,0,0,0,6,6,6,,,,,,,,,,,,,,,,,,,,,,,,,,,,,,,,,,,,,,,,,,,,344.04494740300015,348.7982424890006,,,,,,,,,,,,,,,,,,,,,,,,,,,,,,,,,,,,,,,,,,,,,,,,,,,,,,,,,,,,,,,,,,102921,0,2,1,2,1,1,2,0,20,2021_Oct_29_1526,listening_fmri,3.2.4,59.93022707212587,
1,parcelated_audio/43/43_8.ogg,,,,,,,,,0,0,0,0,0,1,1,1,0,0,0,0,,,,,,,,,0,0,0,0,0,7,7,7,,,,,,,,,,,,,,,,,,,,,,,,,,,,,,,,,,,,,,,,,,,,348.7985834310002,355.34078376600064,,,,,,,,,,,,,,,,,,,,,,,,,,,,,,,,,,,,,,,,,,,,,,,,,,,,,,,,,,,,,,,,,,102921,0,2,1,2,1,1,2,0,20,2021_Oct_29_1526,listening_fmri,3.2.4,59.93022707212587,
1,parcelated_audio/43/43_9.ogg,,,,,,,,,0,0,0,0,0,1,1,1,0,0,0,0,,,,,,,,,0,0,0,0,0,8,8,8,,,,,,,,,,,,,,,,,,,,,,,,,,,,,,,,,,,,,,,,,,,,355.3410969209999,359.8543334120004,,,,,,,,,,,,,,,,,,,,,,,,,,,,,,,,,,,,,,,,,,,,,,,,,,,,,,,,,,,,,,,,,,102921,0,2,1,2,1,1,2,0,20,2021_Oct_29_1526,listening_fmri,3.2.4,59.93022707212587,
1,parcelated_audio/43/43_10.ogg,,,,,,,,,0,0,0,0,0,1,1,1,0,0,0,0,,,,,,,,,0,0,0,0,0,9,9,9,,,,,,,,,,,,,,,,,,,,,,,,,,,,,,,,,,,,,,,,,,,,359.8547749600002,364.74250929200025,,,,,,,,,,,,,,,,,,,,,,,,,,,,,,,,,,,,,,,,,,,,,,,,,,,,,,,,,,,,,,,,,,102921,0,2,1,2,1,1,2,0,20,2021_Oct_29_1526,listening_fmri,3.2.4,59.93022707212587,
1,parcelated_audio/43/43_11.ogg,,,,,,,,,0,0,0,0,0,1,1,1,0,0,0,0,,,,,,,,,0,0,0,0,0,10,10,10,,,,,,,,,,,,,,,,,,,,,,,,,,,,,,,,,,,,,,,,,,,,364.7428172790005,375.7752214279999,,,,,,,,,,,,,,,,,,,,,,,,,,,,,,,,,,,,,,,,,,,,,,,,,,,,,,,,,,,,,,,,,,102921,0,2,1,2,1,1,2,0,20,2021_Oct_29_1526,listening_fmri,3.2.4,59.93022707212587,
1,parcelated_audio/43/43_12.ogg,,,,,,,,,0,0,0,0,0,1,1,1,0,0,0,0,,,,,,,,,0,0,0,0,0,11,11,11,,,,,,,,,,,,,,,,,,,,,,,,,,,,,,,,,,,,,,,,,,,,375.77551488600056,381.8457917430005,,,,,,,,,,,,,,,,,,,,,,,,,,,,,,,,,,,,,,,,,,,,,,,,,,,,,,,,,,,,,,,,,,102921,0,2,1,2,1,1,2,0,20,2021_Oct_29_1526,listening_fmri,3.2.4,59.93022707212587,
1,parcelated_audio/43/43_13.ogg,,,,,,,,,0,0,0,0,0,1,1,1,0,0,0,0,,,,,,,,,0,0,0,0,0,12,12,12,,,,,,,,,,,,,,,,,,,,,,,,,,,,,,,,,,,,,,,,,,,,381.8466779500004,390.1013977370003,,,,,,,,,,,,,,,,,,,,,,,,,,,,,,,,,,,,,,,,,,,,,,,,,,,,,,,,,,,,,,,,,,102921,0,2,1,2,1,1,2,0,20,2021_Oct_29_1526,listening_fmri,3.2.4,59.93022707212587,
1,parcelated_audio/43/43_14.ogg,,,,,,,,,0,0,0,0,0,1,1,1,0,0,0,0,,,,,,,,,0,0,0,0,0,13,13,13,,,,,,,,,,,,,,,,,,,,,,,,,,,,,,,,,,,,,,,,,,,,390.1017048570002,398.6339773589998,,,,,,,,,,,,,,,,,,,,,,,,,,,,,,,,,,,,,,,,,,,,,,,,,,,,,,,,,,,,,,,,,,102921,0,2,1,2,1,1,2,0,20,2021_Oct_29_1526,listening_fmri,3.2.4,59.93022707212587,
1,parcelated_audio/43/43_15.ogg,,,,,,,,,0,0,0,0,0,1,1,1,0,0,0,0,,,,,,,,,0,0,0,0,0,14,14,14,,,,,,,,,,,,,,,,,,,,,,,,,,,,,,,,,,,,,,,,,,,,398.63425722400007,402.96713405300034,,,,,,,,,,,,,,,,,,,,,,,,,,,,,,,,,,,,,,,,,,,,,,,,,,,,,,,,,,,,,,,,,,102921,0,2,1,2,1,1,2,0,20,2021_Oct_29_1526,listening_fmri,3.2.4,59.93022707212587,
1,parcelated_audio/43/43_16.ogg,,,,,,,,,0,0,0,0,0,1,1,1,0,0,0,0,,,,,,,,,0,0,0,0,0,15,15,15,,,,,,,,,,,,,,,,,,,,,,,,,,,,,,,,,,,,,,,,,,,,402.96741449300043,407.4870365759998,,,,,,,,,,,,,,,,,,,,,,,,,,,,,,,,,,,,,,,,,,,,,,,,,,,,,,,,,,,,,,,,,,102921,0,2,1,2,1,1,2,0,20,2021_Oct_29_1526,listening_fmri,3.2.4,59.93022707212587,
1,parcelated_audio/43/43_17.ogg,,,,,,,,,0,0,0,0,0,1,1,1,0,0,0,0,,,,,,,,,0,0,0,0,0,16,16,16,,,,,,,,,,,,,,,,,,,,,,,,,,,,,,,,,,,,,,,,,,,,407.4881439999999,411.2685319310003,,,,,,,,,,,,,,,,,,,,,,,,,,,,,,,,,,,,,,,,,,,,,,,,,,,,,,,,,,,,,,,,,,102921,0,2,1,2,1,1,2,0,20,2021_Oct_29_1526,listening_fmri,3.2.4,59.93022707212587,
1,parcelated_audio/43/43_18.ogg,,,,,,,,,0,0,0,0,0,1,1,1,0,0,0,0,,,,,,,,,0,0,0,0,0,17,17,17,,,,,,,,,,,,,,,,,,,,,,,,,,,,,,,,,,,,,,,,,,,,411.2692756770002,413.4631418400004,,,,,,,,,,,,,,,,,,,,,,,,,,,,,,,,,,,,,,,,,,,,,,,,,,,,,,,,,,,,,,,,,,102921,0,2,1,2,1,1,2,0,20,2021_Oct_29_1526,listening_fmri,3.2.4,59.93022707212587,
1,parcelated_audio/43/43_19.ogg,,,,,,,,,0,0,0,0,0,1,1,1,0,0,0,0,,,,,,,,,0,0,0,0,0,18,18,18,,,,,,,,,,,,,,,,,,,,,,,,,,,,,,,,,,,,,,,,,,,,413.4634265370005,417.10325744500005,,,,,,,,,,,,,,,,,,,,,,,,,,,,,,,,,,,,,,,,,,,,,,,,,,,,,,,,,,,,,,,,,,102921,0,2,1,2,1,1,2,0,20,2021_Oct_29_1526,listening_fmri,3.2.4,59.93022707212587,
1,parcelated_audio/43/43_20.ogg,,,,,,,,,0,0,0,0,0,1,1,1,0,0,0,0,,,,,,,,,0,0,0,0,0,19,19,19,,,,,,,,,,,,,,,,,,,,,,,,,,,,,,,,,,,,,,,,,,,,417.1035503359999,424.2922204080005,,,,,,,,,,,,,,,,,,,,,,,,,,,,,,,,,,,,,,,,,,,,,,,,,,,,,,,,,,,,,,,,,,102921,0,2,1,2,1,1,2,0,20,2021_Oct_29_1526,listening_fmri,3.2.4,59.93022707212587,
1,parcelated_audio/43/43_21.ogg,,,,,,,,,0,0,0,0,0,1,1,1,0,0,0,0,,,,,,,,,0,0,0,0,0,20,20,20,,,,,,,,,,,,,,,,,,,,,,,,,,,,,,,,,,,,,,,,,,,,424.2925620040005,426.7592455510003,,,,,,,,,,,,,,,,,,,,,,,,,,,,,,,,,,,,,,,,,,,,,,,,,,,,,,,,,,,,,,,,,,102921,0,2,1,2,1,1,2,0,20,2021_Oct_29_1526,listening_fmri,3.2.4,59.93022707212587,
1,parcelated_audio/43/43_22.ogg,,,,,,,,,0,0,0,0,0,1,1,1,0,0,0,0,,,,,,,,,0,0,0,0,0,21,21,21,,,,,,,,,,,,,,,,,,,,,,,,,,,,,,,,,,,,,,,,,,,,426.76010501700057,430.1462405960001,,,,,,,,,,,,,,,,,,,,,,,,,,,,,,,,,,,,,,,,,,,,,,,,,,,,,,,,,,,,,,,,,,102921,0,2,1,2,1,1,2,0,20,2021_Oct_29_1526,listening_fmri,3.2.4,59.93022707212587,
1,parcelated_audio/43/43_23.ogg,,,,,,,,,0,0,0,0,0,1,1,1,0,0,0,0,,,,,,,,,0,0,0,0,0,22,22,22,,,,,,,,,,,,,,,,,,,,,,,,,,,,,,,,,,,,,,,,,,,,430.14666231000047,436.1752913400005,,,,,,,,,,,,,,,,,,,,,,,,,,,,,,,,,,,,,,,,,,,,,,,,,,,,,,,,,,,,,,,,,,102921,0,2,1,2,1,1,2,0,20,2021_Oct_29_1526,listening_fmri,3.2.4,59.93022707212587,
1,parcelated_audio/43/43_24.ogg,,,,,,,,,0,0,0,0,0,1,1,1,0,0,0,0,,,,,,,,,0,0,0,0,0,23,23,23,,,,,,,,,,,,,,,,,,,,,,,,,,,,,,,,,,,,,,,,,,,,436.1756398790003,442.5165409050005,,,,,,,,,,,,,,,,,,,,,,,,,,,,,,,,,,,,,,,,,,,,,,,,,,,,,,,,,,,,,,,,,,102921,0,2,1,2,1,1,2,0,20,2021_Oct_29_1526,listening_fmri,3.2.4,59.93022707212587,
1,parcelated_audio/43/43_25.ogg,,,,,,,,,0,0,0,0,0,1,1,1,0,0,0,0,,,,,,,,,0,0,0,0,0,24,24,24,,,,,,,,,,,,,,,,,,,,,,,,,,,,,,,,,,,,,,,,,,,,442.5168971869998,447.5665226179999,,,,,,,,,,,,,,,,,,,,,,,,,,,,,,,,,,,,,,,,,,,,,,,,,,,,,,,,,,,,,,,,,,102921,0,2,1,2,1,1,2,0,20,2021_Oct_29_1526,listening_fmri,3.2.4,59.93022707212587,
1,parcelated_audio/43/43_26.ogg,,,,,,,,,0,0,0,0,0,1,1,1,0,0,0,0,,,,,,,,,0,0,0,0,0,25,25,25,,,,,,,,,,,,,,,,,,,,,,,,,,,,,,,,,,,,,,,,,,,,447.566976694,456.1352668090003,,,,,,,,,,,,,,,,,,,,,,,,,,,,,,,,,,,,,,,,,,,,,,,,,,,,,,,,,,,,,,,,,,102921,0,2,1,2,1,1,2,0,20,2021_Oct_29_1526,listening_fmri,3.2.4,59.93022707212587,
1,parcelated_audio/43/43_27.ogg,,,,,,,,,0,0,0,0,0,1,1,1,0,0,0,0,,,,,,,,,0,0,0,0,0,26,26,26,,,,,,,,,,,,,,,,,,,,,,,,,,,,,,,,,,,,,,,,,,,,456.13562447000004,460.5514670390003,,,,,,,,,,,,,,,,,,,,,,,,,,,,,,,,,,,,,,,,,,,,,,,,,,,,,,,,,,,,,,,,,,102921,0,2,1,2,1,1,2,0,20,2021_Oct_29_1526,listening_fmri,3.2.4,59.93022707212587,
1,parcelated_audio/43/43_28.ogg,,,,,,,,,0,0,0,0,0,1,1,1,0,0,0,0,,,,,,,,,0,0,0,0,0,27,27,27,,,,,,,,,,,,,,,,,,,,,,,,,,,,,,,,,,,,,,,,,,,,460.5517944630001,465.5301473979998,,,,,,,,,,,,,,,,,,,,,,,,,,,,,,,,,,,,,,,,,,,,,,,,,,,,,,,,,,,,,,,,,,102921,0,2,1,2,1,1,2,0,20,2021_Oct_29_1526,listening_fmri,3.2.4,59.93022707212587,
1,parcelated_audio/43/43_29.ogg,,,,,,,,,0,0,0,0,0,1,1,1,0,0,0,0,,,,,,,,,0,0,0,0,0,28,28,28,,,,,,,,,,,,,,,,,,,,,,,,,,,,,,,,,,,,,,,,,,,,465.5305023390001,471.68866583,,,,,,,,,,,,,,,,,,,,,,,,,,,,,,,,,,,,,,,,,,,,,,,,,,,,,,,,,,,,,,,,,,102921,0,2,1,2,1,1,2,0,20,2021_Oct_29_1526,listening_fmri,3.2.4,59.93022707212587,
1,,,,,,,,,,0,0,0,0,0,1,1,1,0,0,0,0,,,,,,,,,0,0,0,0,,,,,,,,,,,,,,,,,,,,,,,,,,,,,,,,,,,,,,,,,,,,,,,,,,,,,,,,,,,,,,,,,,,,,,,,,,,,,,,,,,,,,,,,,,,,,,,,,,,,,,,,,,,,,,,,,,,102921,0,2,1,2,1,1,2,0,20,2021_Oct_29_1526,listening_fmri,3.2.4,59.93022707212587,
1,,,,,,,,,,0,0,0,0,0,1,1,1,0,0,0,0,,,,,,,,,,,,,,,,,,,,,,,,,,,,,,,,,,,,,,471.6891596260002,477.6828096580002,521.5635989349994,None,,,,,,,,,,,,,,,,,,,,,527.5634652179997,None,527.5634652179997,None,,,,,,,,,,,,,,,,,,,,,,,,,,,,,,,,,,,,,,,,,,,,,,,,,,,,,,,,,,,,,,102921,0,2,1,2,1,1,2,0,20,2021_Oct_29_1526,listening_fmri,3.2.4,59.93022707212587,
1,,,,,,,,,,0,0,0,0,0,1,1,1,,,,,,,,,,,,,,,,,,,,,,,,,,,,,,,,,,,,,,,,,,,,,,,,,,,,,,,,,,,,,,,,,,,,,,,,,,,,,,,,,,,,,,,,,,,,,,,,,,,,,,,,,,,,,,,,,,,,,,,,,,,,,,,,,,,102921,0,2,1,2,1,1,2,0,20,2021_Oct_29_1526,listening_fmri,3.2.4,59.93022707212587,
2,,,,,,,,,,0,0,0,0,0,2,2,2,0,0,0,0,0,0,0,0,,,,,,,,,,,,,,,,,0,0,0,0,,,,,,,,,,,,,,,,,,528.5689704959996,None,528.5689704959996,None,2,1.6901876530000663,528.5689704959996,None,528.5689704959996,None,,,,,,,,,,,,,,,530.2804417669995,None,2,1.3768312989996048,530.2804417669995,None,530.2804417669995,None,531.6964948149998,None,531.6964948149998,None,531.6964948149998,None,2,1.678774457000145,531.6964948149998,None,533.3967253789997,None,2,0.9934155350001674,533.3967253789997,None,533.3967253789997,None,534.4849567419997,None,534.4849567419997,None,534.4849567419997,None,534.4849567419997,None,534.4849567419997,None,534.4849567419997,None,534.4849567419997,None,None,534.4849567419997,None,,,,,,,,,,,,,,,,,,,102921,0,2,1,2,1,1,2,0,20,2021_Oct_29_1526,listening_fmri,3.2.4,59.93022707212587,
2,,,,,,,,,,0,0,0,0,0,2,2,2,0,0,0,0,0,0,0,0,,,,,,,,,,,,,,,,,,,,,,,,,,,,,,,,,,,,,,,,,,,,,,,,,,,,,,,,,,,,,,,,,,,,,,,,,,,,,,,,,,,,,,,,,,,,,,,,,,,,,,,,,563.0634631419998,None,2,2.0877739580000707,563.0634631419998,None,563.0634631419998,None,565.1854389479995,None,565.1854389479995,None,565.1854389479995,None,2,0.7998430739999094,565.1854389479995,None,102921,0,2,1,2,1,1,2,0,20,2021_Oct_29_1526,listening_fmri,3.2.4,59.93022707212587,
2,parcelated_audio/23/23_1.ogg,,,,,,,,,0,0,0,0,0,2,2,2,0,0,0,0,,,,,,,,,0,0,0,0,0,0,0,0,,,,,,,,,,,,,,,,,,,,,,,,,,,,,,,,,,,,566.0136672579993,None,2,1.4984641020000709,566.0136672579993,None,517.6565381990004,520.6720548000003,520.6841853510005,531.0818533420006,,,,,,,,,,,,,,,,,,,,,,,,,,,,,,,,,,,,,,,,,,,,,,,,,,,,,,,,,,,,,,,,,,102921,0,2,1,2,1,1,2,0,20,2021_Oct_29_1526,listening_fmri,3.2.4,59.93022707212587,
