instructions,count,audio,trials_14.thisRepN,trials_14.thisTrialN,trials_14.thisN,trials_14.thisIndex,trials_13.thisRepN,trials_13.thisTrialN,trials_13.thisN,trials_13.thisIndex,trials_3.thisRepN,trials_3.thisTrialN,trials_3.thisN,trials_3.thisIndex,Block1.thisRepN,Block1.thisTrialN,Block1.thisN,Block1.thisIndex,trials_5.thisRepN,trials_5.thisTrialN,trials_5.thisN,trials_5.thisIndex,trials.thisRepN,trials.thisTrialN,trials.thisN,trials.thisIndex,trials_2.thisRepN,trials_2.thisTrialN,trials_2.thisN,trials_2.thisIndex,trials_22.thisRepN,trials_22.thisTrialN,trials_22.thisN,trials_22.thisIndex,trials_16.thisRepN,trials_16.thisTrialN,trials_16.thisN,trials_16.thisIndex,trials_23.thisRepN,trials_23.thisTrialN,trials_23.thisN,trials_23.thisIndex,story_list_block1,action_list_block1,key_resp_5.keys,key_resp_5.rt,key_resp_5.started,key_resp_5.stopped,text_87.started,text_87.stopped,text_88.started,text_88.stopped,key_resp_31.keys,key_resp_31.rt,key_resp_31.started,key_resp_31.stopped,text_89.started,text_89.stopped,image_27.started,image_27.stopped,text_97.started,text_97.stopped,image_24.started,image_24.stopped,key_resp_21.keys,key_resp_21.rt,key_resp_21.started,key_resp_21.stopped,text_78.started,text_78.stopped,text_96.started,text_96.stopped,image_28.started,image_28.stopped,key_resp_36.keys,key_resp_36.rt,key_resp_36.started,key_resp_36.stopped,text_94.started,text_94.stopped,text_95.started,text_95.stopped,text_90.started,text_90.stopped,key_resp_32.keys,key_resp_32.rt,key_resp_32.started,key_resp_32.stopped,text_91.started,text_91.stopped,key_resp_33.keys,key_resp_33.rt,key_resp_33.started,key_resp_33.stopped,text_92.started,text_92.stopped,key_resp_34.keys,key_resp_34.rt,key_resp_34.started,key_resp_34.stopped,text_93.started,text_93.stopped,key_resp_35.keys,key_resp_35.rt,key_resp_35.started,key_resp_35.stopped,text_98.started,text_98.stopped,text_99.started,text_99.stopped,key_resp_37.keys,key_resp_37.rt,key_resp_37.started,key_resp_37.stopped,textTrigger.started,textTrigger.stopped,getTrigger.keys,getTrigger.rt,getTrigger.started,getTrigger.stopped,triggerTime,text_76.started,text_76.stopped,text_77.started,text_77.stopped,startWait,endWait,image_23.started,image_23.stopped,text_38.started,text_38.stopped,key_resp_8.keys,key_resp_8.rt,key_resp_8.started,key_resp_8.stopped,text_39.started,text_39.stopped,text.started,text.stopped,text_50.started,text_50.stopped,key_resp_14.keys,key_resp_14.rt,key_resp_14.started,key_resp_14.stopped,storyImage_StartTime,storyImage_EndTime,clip_StartTime,clip_EndTime,text_6.started,text_6.stopped,text_52.started,text_52.stopped,participant,sA,sB,lA,lB,block_struct,play_stories,block,behavioral,random_seed,date,expName,psychopyVersion,frameRate,
Welcome to the story listening part of the experiment. ,,,0,0,0,0,0,0,0,0,,,,,,,,,,,,,,,,,,,,,,,,,,,,,,,,,[33 44 11 13 42 31 22 24],[3 4 1 3 2 1 2 4],2,8.597587931000362,16.69582701299987,None,16.69582701299987,None,16.69582701299987,None,,,,,,,,,,,,,,,,,,,,,,,,,,,,,,,,,,,,,,,,,,,,,,,,,,,,,,,,,,,,,,,,,,,,,,,,,,,,,,,,,,,,,,,,,,,,,,,,,,,,,,102921,0,2,1,2,1,1,1,0,20,2021_Oct_29_1449,listening_fmri,3.2.4,60.27956783469474,
"As a reminder, you will listen to 12 short stories.",,,0,0,0,0,0,1,1,1,,,,,,,,,,,,,,,,,,,,,,,,,,,,,,,,,,,2,4.093454116999965,25.329950651999752,None,25.329950651999752,None,25.329950651999752,None,,,,,,,,,,,,,,,,,,,,,,,,,,,,,,,,,,,,,,,,,,,,,,,,,,,,,,,,,,,,,,,,,,,,,,,,,,,,,,,,,,,,,,,,,,,,,,,,,,,,,,102921,0,2,1,2,1,1,1,0,20,2021_Oct_29_1449,listening_fmri,3.2.4,60.27956783469474,
These stories will be divided into 2 blocks of 6 stories.,,,0,0,0,0,0,2,2,2,,,,,,,,,,,,,,,,,,,,,,,,,,,,,,,,,,,2,4.480346167999869,29.449119526999766,None,29.449119526999766,None,29.449119526999766,None,,,,,,,,,,,,,,,,,,,,,,,,,,,,,,,,,,,,,,,,,,,,,,,,,,,,,,,,,,,,,,,,,,,,,,,,,,,,,,,,,,,,,,,,,,,,,,,,,,,,,,102921,0,2,1,2,1,1,1,0,20,2021_Oct_29_1449,listening_fmri,3.2.4,60.27956783469474,
"Before some of the stories, we will ask you to take on the perspective of a job. ",,,0,0,0,0,0,3,3,3,,,,,,,,,,,,,,,,,,,,,,,,,,,,,,,,,,,2,4.339946537000287,33.94952344700005,None,33.94952344700005,None,33.94952344700005,None,,,,,,,,,,,,,,,,,,,,,,,,,,,,,,,,,,,,,,,,,,,,,,,,,,,,,,,,,,,,,,,,,,,,,,,,,,,,,,,,,,,,,,,,,,,,,,,,,,,,,,102921,0,2,1,2,1,1,1,0,20,2021_Oct_29_1449,listening_fmri,3.2.4,60.27956783469474,
Please “simulate” this job while you listen to the story that follows.,,,0,0,0,0,0,4,4,4,,,,,,,,,,,,,,,,,,,,,,,,,,,,,,,,,,,2,4.912433656000303,38.329029897000055,None,38.329029897000055,None,38.329029897000055,None,,,,,,,,,,,,,,,,,,,,,,,,,,,,,,,,,,,,,,,,,,,,,,,,,,,,,,,,,,,,,,,,,,,,,,,,,,,,,,,,,,,,,,,,,,,,,,,,,,,,,,102921,0,2,1,2,1,1,1,0,20,2021_Oct_29_1449,listening_fmri,3.2.4,60.27956783469474,
"Before you begin, we will go over how to use the button box:",,,0,0,0,0,0,5,5,5,,,,,,,,,,,,,,,,,,,,,,,,,,,,,,,,,,,2,3.3333273920002284,43.26713706400005,None,43.26713706400005,None,43.26713706400005,None,,,,,,,,,,,,,,,,,,,,,,,,,,,,,,,,,,,,,,,,,,,,,,,,,,,,,,,,,,,,,,,,,,,,,,,,,,,,,,,,,,,,,,,,,,,,,,,,,,,,,,102921,0,2,1,2,1,1,1,0,20,2021_Oct_29_1449,listening_fmri,3.2.4,60.27956783469474,
"In this experiment, you'll use the first three fingers on each hand to do the quizzes and advance through the experiment. ",,,0,0,0,0,0,6,6,6,,,,,,,,,,,,,,,,,,,,,,,,,,,,,,,,,,,2,5.445480655999745,46.646100768999986,None,46.646100768999986,None,46.646100768999986,None,,,,,,,,,,,,,,,,,,,,,,,,,,,,,,,,,,,,,,,,,,,,,,,,,,,,,,,,,,,,,,,,,,,,,,,,,,,,,,,,,,,,,,,,,,,,,,,,,,,,,,102921,0,2,1,2,1,1,1,0,20,2021_Oct_29_1449,listening_fmri,3.2.4,60.27956783469474,
,,,0,0,0,0,,,,,,,,,,,,,,,,,,,,,,,,,,,,,,,,,,,,,,,,,,,,,,,2,11.053435067999999,52.11612882999998,None,52.11612882999998,None,52.11612882999998,None,52.11612882999998,None,63.20022877099973,None,2,7.501348503999907,63.20022877099973,None,63.20022877099973,None,63.20022877099973,None,63.20022877099973,None,2,5.304614720000245,70.72886368799982,None,70.72886368799982,None,70.72886368799982,None,76.06272116799983,None,1,2.8708630469996024,76.06272116799983,None,78.94973859799984,None,8,52.31884667900022,78.94973859799984,None,131.31125890699968,None,6,3.833160026999849,131.31125890699968,None,135.17820747099995,None,2,5.2163928219997615,135.17820747099995,None,140.4175709189999,None,140.4175709189999,None,space,26.499163348000366,140.4175709189999,None,,,,,,,,,,,,,,,,,,,,,,,,,,,,,,,,,,,,,,,,102921,0,2,1,2,1,1,1,0,20,2021_Oct_29_1449,listening_fmri,3.2.4,60.27956783469474,
,0,,,,,,,,,,0,0,0,0,0,0,0,0,,,,,,,,,,,,,,,,,,,,,,,,,,,,,,,,,,,,,,,,,,,,,,,,,,,,,,,,,,,,,,,,,,,,,,,,,,,,,,,,,,,,,,,,,,,,,,,,,166.94432041799973,None,equal,22.180198560000008,166.94432041799973,None,172.47392685000023,166.94432041799973,None,166.94432041799973,None,0.0004900509998151392,5.99892907200001,189.1442246669999,None,,,,,,,,,,,,,,,,,,,,,,,,,102921,0,2,1,2,1,1,1,0,20,2021_Oct_29_1449,listening_fmri,3.2.4,60.27956783469474,
,1,parcelated_audio/44/44_1.ogg,,,,,,,,,0,0,0,0,0,1,1,1,0,0,0,0,,,,,,,,,0,0,0,0,0,0,0,0,,,,,,,,,,,,,,,,,,,,,,,,,,,,,,,,,,,,,,,,,,,,,,,,,,,,,,,,,,,,,,,,,,,,,,,,,,,,,,,,,,,,,,,,,,,,195.15010874499967,None,2,1.620474639999884,195.15010874499967,None,195.15010874499967,None,195.15010874499967,None,196.80027579099988,None,2,2.6151830990002054,196.80027579099988,None,10.295107878999715,13.29836218399987,13.303879310999946,21.229411984999842,,,,,102921,0,2,1,2,1,1,1,0,20,2021_Oct_29_1449,listening_fmri,3.2.4,60.27956783469474,
,1,parcelated_audio/44/44_2.ogg,,,,,,,,,0,0,0,0,0,1,1,1,0,0,0,0,,,,,,,,,0,0,0,0,0,1,1,1,,,,,,,,,,,,,,,,,,,,,,,,,,,,,,,,,,,,,,,,,,,,,,,,,,,,,,,,,,,,,,,,,,,,,,,,,,,,,,,,,,,,,,,,,,,,,,,,,,,,,,,,,,,,,,21.229872255999908,30.35438343299984,,,,,102921,0,2,1,2,1,1,1,0,20,2021_Oct_29_1449,listening_fmri,3.2.4,60.27956783469474,
,1,parcelated_audio/44/44_3.ogg,,,,,,,,,0,0,0,0,0,1,1,1,0,0,0,0,,,,,,,,,0,0,0,0,0,2,2,2,,,,,,,,,,,,,,,,,,,,,,,,,,,,,,,,,,,,,,,,,,,,,,,,,,,,,,,,,,,,,,,,,,,,,,,,,,,,,,,,,,,,,,,,,,,,,,,,,,,,,,,,,,,,,,30.354677635999906,35.806815791999725,,,,,102921,0,2,1,2,1,1,1,0,20,2021_Oct_29_1449,listening_fmri,3.2.4,60.27956783469474,
,1,parcelated_audio/44/44_4.ogg,,,,,,,,,0,0,0,0,0,1,1,1,0,0,0,0,,,,,,,,,0,0,0,0,0,3,3,3,,,,,,,,,,,,,,,,,,,,,,,,,,,,,,,,,,,,,,,,,,,,,,,,,,,,,,,,,,,,,,,,,,,,,,,,,,,,,,,,,,,,,,,,,,,,,,,,,,,,,,,,,,,,,,35.80760728699988,40.8973078099998,,,,,102921,0,2,1,2,1,1,1,0,20,2021_Oct_29_1449,listening_fmri,3.2.4,60.27956783469474,
,1,parcelated_audio/44/44_5.ogg,,,,,,,,,0,0,0,0,0,1,1,1,0,0,0,0,,,,,,,,,0,0,0,0,0,4,4,4,,,,,,,,,,,,,,,,,,,,,,,,,,,,,,,,,,,,,,,,,,,,,,,,,,,,,,,,,,,,,,,,,,,,,,,,,,,,,,,,,,,,,,,,,,,,,,,,,,,,,,,,,,,,,,40.8975822389998,47.125919065999824,,,,,102921,0,2,1,2,1,1,1,0,20,2021_Oct_29_1449,listening_fmri,3.2.4,60.27956783469474,
,1,parcelated_audio/44/44_6.ogg,,,,,,,,,0,0,0,0,0,1,1,1,0,0,0,0,,,,,,,,,0,0,0,0,0,5,5,5,,,,,,,,,,,,,,,,,,,,,,,,,,,,,,,,,,,,,,,,,,,,,,,,,,,,,,,,,,,,,,,,,,,,,,,,,,,,,,,,,,,,,,,,,,,,,,,,,,,,,,,,,,,,,,47.12636507199977,54.07483349499989,,,,,102921,0,2,1,2,1,1,1,0,20,2021_Oct_29_1449,listening_fmri,3.2.4,60.27956783469474,
,1,parcelated_audio/44/44_7.ogg,,,,,,,,,0,0,0,0,0,1,1,1,0,0,0,0,,,,,,,,,0,0,0,0,0,6,6,6,,,,,,,,,,,,,,,,,,,,,,,,,,,,,,,,,,,,,,,,,,,,,,,,,,,,,,,,,,,,,,,,,,,,,,,,,,,,,,,,,,,,,,,,,,,,,,,,,,,,,,,,,,,,,,54.075229895999655,60.114864208999734,,,,,102921,0,2,1,2,1,1,1,0,20,2021_Oct_29_1449,listening_fmri,3.2.4,60.27956783469474,
,1,parcelated_audio/44/44_8.ogg,,,,,,,,,0,0,0,0,0,1,1,1,0,0,0,0,,,,,,,,,0,0,0,0,0,7,7,7,,,,,,,,,,,,,,,,,,,,,,,,,,,,,,,,,,,,,,,,,,,,,,,,,,,,,,,,,,,,,,,,,,,,,,,,,,,,,,,,,,,,,,,,,,,,,,,,,,,,,,,,,,,,,,60.11531237700001,64.38761126700001,,,,,102921,0,2,1,2,1,1,1,0,20,2021_Oct_29_1449,listening_fmri,3.2.4,60.27956783469474,
,1,parcelated_audio/44/44_9.ogg,,,,,,,,,0,0,0,0,0,1,1,1,0,0,0,0,,,,,,,,,0,0,0,0,0,8,8,8,,,,,,,,,,,,,,,,,,,,,,,,,,,,,,,,,,,,,,,,,,,,,,,,,,,,,,,,,,,,,,,,,,,,,,,,,,,,,,,,,,,,,,,,,,,,,,,,,,,,,,,,,,,,,,64.38800255999968,68.0879187659998,,,,,102921,0,2,1,2,1,1,1,0,20,2021_Oct_29_1449,listening_fmri,3.2.4,60.27956783469474,
,1,parcelated_audio/44/44_10.ogg,,,,,,,,,0,0,0,0,0,1,1,1,0,0,0,0,,,,,,,,,0,0,0,0,0,9,9,9,,,,,,,,,,,,,,,,,,,,,,,,,,,,,,,,,,,,,,,,,,,,,,,,,,,,,,,,,,,,,,,,,,,,,,,,,,,,,,,,,,,,,,,,,,,,,,,,,,,,,,,,,,,,,,68.08819546199993,78.21118563399978,,,,,102921,0,2,1,2,1,1,1,0,20,2021_Oct_29_1449,listening_fmri,3.2.4,60.27956783469474,
,1,parcelated_audio/44/44_11.ogg,,,,,,,,,0,0,0,0,0,1,1,1,0,0,0,0,,,,,,,,,0,0,0,0,0,10,10,10,,,,,,,,,,,,,,,,,,,,,,,,,,,,,,,,,,,,,,,,,,,,,,,,,,,,,,,,,,,,,,,,,,,,,,,,,,,,,,,,,,,,,,,,,,,,,,,,,,,,,,,,,,,,,,78.21146116599994,81.76270776399997,,,,,102921,0,2,1,2,1,1,1,0,20,2021_Oct_29_1449,listening_fmri,3.2.4,60.27956783469474,
,1,parcelated_audio/44/44_12.ogg,,,,,,,,,0,0,0,0,0,1,1,1,0,0,0,0,,,,,,,,,0,0,0,0,0,11,11,11,,,,,,,,,,,,,,,,,,,,,,,,,,,,,,,,,,,,,,,,,,,,,,,,,,,,,,,,,,,,,,,,,,,,,,,,,,,,,,,,,,,,,,,,,,,,,,,,,,,,,,,,,,,,,,81.76297865599963,92.34855453499995,,,,,102921,0,2,1,2,1,1,1,0,20,2021_Oct_29_1449,listening_fmri,3.2.4,60.27956783469474,
,1,parcelated_audio/44/44_13.ogg,,,,,,,,,0,0,0,0,0,1,1,1,0,0,0,0,,,,,,,,,0,0,0,0,0,12,12,12,,,,,,,,,,,,,,,,,,,,,,,,,,,,,,,,,,,,,,,,,,,,,,,,,,,,,,,,,,,,,,,,,,,,,,,,,,,,,,,,,,,,,,,,,,,,,,,,,,,,,,,,,,,,,,92.34890615599988,99.51726703099985,,,,,102921,0,2,1,2,1,1,1,0,20,2021_Oct_29_1449,listening_fmri,3.2.4,60.27956783469474,
,1,parcelated_audio/44/44_14.ogg,,,,,,,,,0,0,0,0,0,1,1,1,0,0,0,0,,,,,,,,,0,0,0,0,0,13,13,13,,,,,,,,,,,,,,,,,,,,,,,,,,,,,,,,,,,,,,,,,,,,,,,,,,,,,,,,,,,,,,,,,,,,,,,,,,,,,,,,,,,,,,,,,,,,,,,,,,,,,,,,,,,,,,99.51761668699965,105.8319684359999,,,,,102921,0,2,1,2,1,1,1,0,20,2021_Oct_29_1449,listening_fmri,3.2.4,60.27956783469474,
,1,parcelated_audio/44/44_15.ogg,,,,,,,,,0,0,0,0,0,1,1,1,0,0,0,0,,,,,,,,,0,0,0,0,0,14,14,14,,,,,,,,,,,,,,,,,,,,,,,,,,,,,,,,,,,,,,,,,,,,,,,,,,,,,,,,,,,,,,,,,,,,,,,,,,,,,,,,,,,,,,,,,,,,,,,,,,,,,,,,,,,,,,105.83226827099998,109.91381978499976,,,,,102921,0,2,1,2,1,1,1,0,20,2021_Oct_29_1449,listening_fmri,3.2.4,60.27956783469474,
,1,parcelated_audio/44/44_16.ogg,,,,,,,,,0,0,0,0,0,1,1,1,0,0,0,0,,,,,,,,,0,0,0,0,0,15,15,15,,,,,,,,,,,,,,,,,,,,,,,,,,,,,,,,,,,,,,,,,,,,,,,,,,,,,,,,,,,,,,,,,,,,,,,,,,,,,,,,,,,,,,,,,,,,,,,,,,,,,,,,,,,,,,109.91418843499969,114.0375082239998,,,,,102921,0,2,1,2,1,1,1,0,20,2021_Oct_29_1449,listening_fmri,3.2.4,60.27956783469474,
,1,parcelated_audio/44/44_17.ogg,,,,,,,,,0,0,0,0,0,1,1,1,0,0,0,0,,,,,,,,,0,0,0,0,0,16,16,16,,,,,,,,,,,,,,,,,,,,,,,,,,,,,,,,,,,,,,,,,,,,,,,,,,,,,,,,,,,,,,,,,,,,,,,,,,,,,,,,,,,,,,,,,,,,,,,,,,,,,,,,,,,,,,114.03801608499998,122.51740765899967,,,,,102921,0,2,1,2,1,1,1,0,20,2021_Oct_29_1449,listening_fmri,3.2.4,60.27956783469474,
,1,parcelated_audio/44/44_18.ogg,,,,,,,,,0,0,0,0,0,1,1,1,0,0,0,0,,,,,,,,,0,0,0,0,0,17,17,17,,,,,,,,,,,,,,,,,,,,,,,,,,,,,,,,,,,,,,,,,,,,,,,,,,,,,,,,,,,,,,,,,,,,,,,,,,,,,,,,,,,,,,,,,,,,,,,,,,,,,,,,,,,,,,122.51775994799982,132.35155619499983,,,,,102921,0,2,1,2,1,1,1,0,20,2021_Oct_29_1449,listening_fmri,3.2.4,60.27956783469474,
,1,parcelated_audio/44/44_19.ogg,,,,,,,,,0,0,0,0,0,1,1,1,0,0,0,0,,,,,,,,,0,0,0,0,0,18,18,18,,,,,,,,,,,,,,,,,,,,,,,,,,,,,,,,,,,,,,,,,,,,,,,,,,,,,,,,,,,,,,,,,,,,,,,,,,,,,,,,,,,,,,,,,,,,,,,,,,,,,,,,,,,,,,132.352011512,143.3335084739997,,,,,102921,0,2,1,2,1,1,1,0,20,2021_Oct_29_1449,listening_fmri,3.2.4,60.27956783469474,
,1,parcelated_audio/44/44_20.ogg,,,,,,,,,0,0,0,0,0,1,1,1,0,0,0,0,,,,,,,,,0,0,0,0,0,19,19,19,,,,,,,,,,,,,,,,,,,,,,,,,,,,,,,,,,,,,,,,,,,,,,,,,,,,,,,,,,,,,,,,,,,,,,,,,,,,,,,,,,,,,,,,,,,,,,,,,,,,,,,,,,,,,,143.33386428899985,151.56780783899967,,,,,102921,0,2,1,2,1,1,1,0,20,2021_Oct_29_1449,listening_fmri,3.2.4,60.27956783469474,
,1,parcelated_audio/44/44_21.ogg,,,,,,,,,0,0,0,0,0,1,1,1,0,0,0,0,,,,,,,,,0,0,0,0,0,20,20,20,,,,,,,,,,,,,,,,,,,,,,,,,,,,,,,,,,,,,,,,,,,,,,,,,,,,,,,,,,,,,,,,,,,,,,,,,,,,,,,,,,,,,,,,,,,,,,,,,,,,,,,,,,,,,,151.56869186199992,160.4748144109999,,,,,102921,0,2,1,2,1,1,1,0,20,2021_Oct_29_1449,listening_fmri,3.2.4,60.27956783469474,
,1,parcelated_audio/44/44_22.ogg,,,,,,,,,0,0,0,0,0,1,1,1,0,0,0,0,,,,,,,,,0,0,0,0,0,21,21,21,,,,,,,,,,,,,,,,,,,,,,,,,,,,,,,,,,,,,,,,,,,,,,,,,,,,,,,,,,,,,,,,,,,,,,,,,,,,,,,,,,,,,,,,,,,,,,,,,,,,,,,,,,,,,,160.4752884669997,165.401480214,,,,,102921,0,2,1,2,1,1,1,0,20,2021_Oct_29_1449,listening_fmri,3.2.4,60.27956783469474,
,1,parcelated_audio/44/44_23.ogg,,,,,,,,,0,0,0,0,0,1,1,1,0,0,0,0,,,,,,,,,0,0,0,0,0,22,22,22,,,,,,,,,,,,,,,,,,,,,,,,,,,,,,,,,,,,,,,,,,,,,,,,,,,,,,,,,,,,,,,,,,,,,,,,,,,,,,,,,,,,,,,,,,,,,,,,,,,,,,,,,,,,,,165.40266755699986,172.04791033499987,,,,,102921,0,2,1,2,1,1,1,0,20,2021_Oct_29_1449,listening_fmri,3.2.4,60.27956783469474,
,1,parcelated_audio/44/44_24.ogg,,,,,,,,,0,0,0,0,0,1,1,1,0,0,0,0,,,,,,,,,0,0,0,0,0,23,23,23,,,,,,,,,,,,,,,,,,,,,,,,,,,,,,,,,,,,,,,,,,,,,,,,,,,,,,,,,,,,,,,,,,,,,,,,,,,,,,,,,,,,,,,,,,,,,,,,,,,,,,,,,,,,,,172.0483160859999,180.80005671499976,,,,,102921,0,2,1,2,1,1,1,0,20,2021_Oct_29_1449,listening_fmri,3.2.4,60.27956783469474,
,1,parcelated_audio/44/44_25.ogg,,,,,,,,,0,0,0,0,0,1,1,1,0,0,0,0,,,,,,,,,0,0,0,0,0,24,24,24,,,,,,,,,,,,,,,,,,,,,,,,,,,,,,,,,,,,,,,,,,,,,,,,,,,,,,,,,,,,,,,,,,,,,,,,,,,,,,,,,,,,,,,,,,,,,,,,,,,,,,,,,,,,,,180.80042447000005,187.106801766,,,,,102921,0,2,1,2,1,1,1,0,20,2021_Oct_29_1449,listening_fmri,3.2.4,60.27956783469474,
,1,parcelated_audio/44/44_26.ogg,,,,,,,,,0,0,0,0,0,1,1,1,0,0,0,0,,,,,,,,,0,0,0,0,0,25,25,25,,,,,,,,,,,,,,,,,,,,,,,,,,,,,,,,,,,,,,,,,,,,,,,,,,,,,,,,,,,,,,,,,,,,,,,,,,,,,,,,,,,,,,,,,,,,,,,,,,,,,,,,,,,,,,187.107074991,191.96540124900002,,,,,102921,0,2,1,2,1,1,1,0,20,2021_Oct_29_1449,listening_fmri,3.2.4,60.27956783469474,
,1,parcelated_audio/44/44_27.ogg,,,,,,,,,0,0,0,0,0,1,1,1,0,0,0,0,,,,,,,,,0,0,0,0,0,26,26,26,,,,,,,,,,,,,,,,,,,,,,,,,,,,,,,,,,,,,,,,,,,,,,,,,,,,,,,,,,,,,,,,,,,,,,,,,,,,,,,,,,,,,,,,,,,,,,,,,,,,,,,,,,,,,,191.9656752699998,198.95470388399963,,,,,102921,0,2,1,2,1,1,1,0,20,2021_Oct_29_1449,listening_fmri,3.2.4,60.27956783469474,
,1,parcelated_audio/44/44_28.ogg,,,,,,,,,0,0,0,0,0,1,1,1,0,0,0,0,,,,,,,,,0,0,0,0,0,27,27,27,,,,,,,,,,,,,,,,,,,,,,,,,,,,,,,,,,,,,,,,,,,,,,,,,,,,,,,,,,,,,,,,,,,,,,,,,,,,,,,,,,,,,,,,,,,,,,,,,,,,,,,,,,,,,,198.955140174,210.23472042599997,,,,,102921,0,2,1,2,1,1,1,0,20,2021_Oct_29_1449,listening_fmri,3.2.4,60.27956783469474,
,1,,,,,,,,,,0,0,0,0,0,1,1,1,0,0,0,0,,,,,,,,,0,0,0,0,,,,,,,,,,,,,,,,,,,,,,,,,,,,,,,,,,,,,,,,,,,,,,,,,,,,,,,,,,,,,,,,,,,,,,,,,,,,,,,,,,,,,,,,,,,,,,,,,,,,,,,,,,,,,,,,,,,,,,,,102921,0,2,1,2,1,1,1,0,20,2021_Oct_29_1449,listening_fmri,3.2.4,60.27956783469474,
,,,,,,,,,,,,,,,,,,,,,,,,,,,,,,,,,,,,,,,,,,,,,,,,,,,,,,,,,,,,,,,,,,,,,,,,,,,,,,,,,,,,,,,,,,,,,,,,,,,,,,,,,,,,,,,,,,,,,,,,,,,,,,210.23510809399977,216.22226308899963,399.3671315759998,None,,,,,,,,,,,,,,,,,,,,,405.3674893729999,None,405.3674893729999,None,,,,,,,,,,,,,,,
﻿instructions,count,audio,trials_14.thisRepN,trials_14.thisTrialN,trials_14.thisN,trials_14.thisIndex,trials_13.thisRepN,trials_13.thisTrialN,trials_13.thisN,trials_13.thisIndex,trials_3.thisRepN,trials_3.thisTrialN,trials_3.thisN,trials_3.thisIndex,Block1.thisRepN,Block1.thisTrialN,Block1.thisN,Block1.thisIndex,trials_5.thisRepN,trials_5.thisTrialN,trials_5.thisN,trials_5.thisIndex,trials.thisRepN,trials.thisTrialN,trials.thisN,trials.thisIndex,trials_2.thisRepN,trials_2.thisTrialN,trials_2.thisN,trials_2.thisIndex,trials_22.thisRepN,trials_22.thisTrialN,trials_22.thisN,trials_22.thisIndex,trials_16.thisRepN,trials_16.thisTrialN,trials_16.thisN,trials_16.thisIndex,trials_23.thisRepN,trials_23.thisTrialN,trials_23.thisN,trials_23.thisIndex,trials_7.thisRepN,trials_7.thisTrialN,trials_7.thisN,trials_7.thisIndex,story_list_block1,action_list_block1,key_resp_5.keys,key_resp_5.rt,key_resp_5.started,key_resp_5.stopped,text_87.started,text_87.stopped,text_88.started,text_88.stopped,key_resp_31.keys,key_resp_31.rt,key_resp_31.started,key_resp_31.stopped,text_89.started,text_89.stopped,image_27.started,image_27.stopped,text_97.started,text_97.stopped,image_24.started,image_24.stopped,key_resp_21.keys,key_resp_21.rt,key_resp_21.started,key_resp_21.stopped,text_78.started,text_78.stopped,text_96.started,text_96.stopped,image_28.started,image_28.stopped,key_resp_36.keys,key_resp_36.rt,key_resp_36.started,key_resp_36.stopped,text_94.started,text_94.stopped,text_95.started,text_95.stopped,text_90.started,text_90.stopped,key_resp_32.keys,key_resp_32.rt,key_resp_32.started,key_resp_32.stopped,text_91.started,text_91.stopped,key_resp_33.keys,key_resp_33.rt,key_resp_33.started,key_resp_33.stopped,text_92.started,text_92.stopped,key_resp_34.keys,key_resp_34.rt,key_resp_34.started,key_resp_34.stopped,text_93.started,text_93.stopped,key_resp_35.keys,key_resp_35.rt,key_resp_35.started,key_resp_35.stopped,text_98.started,text_98.stopped,text_99.started,text_99.stopped,key_resp_37.keys,key_resp_37.rt,key_resp_37.started,key_resp_37.stopped,textTrigger.started,textTrigger.stopped,getTrigger.keys,getTrigger.rt,getTrigger.started,getTrigger.stopped,triggerTime,text_76.started,text_76.stopped,text_77.started,text_77.stopped,startWait,endWait,image_23.started,image_23.stopped,text_38.started,text_38.stopped,key_resp_8.keys,key_resp_8.rt,key_resp_8.started,key_resp_8.stopped,text_39.started,text_39.stopped,text.started,text.stopped,text_50.started,text_50.stopped,key_resp_14.keys,key_resp_14.rt,key_resp_14.started,key_resp_14.stopped,storyImage_StartTime,storyImage_EndTime,clip_StartTime,clip_EndTime,text_6.started,text_6.stopped,text_52.started,text_52.stopped,text_33.started,text_33.stopped,key_resp_30.keys,key_resp_30.rt,key_resp_30.started,key_resp_30.stopped,text_79.started,text_79.stopped,text_4.started,text_4.stopped,image.started,image.stopped,text_5.started,text_5.stopped,key_resp_22.keys,key_resp_22.rt,key_resp_22.started,key_resp_22.stopped,text_37.started,text_37.stopped,key_resp_7.keys,key_resp_7.rt,key_resp_7.started,key_resp_7.stopped,text_80.started,text_80.stopped,question1_3.started,question1_3.stopped,question2_3.started,question2_3.stopped,question3_3.started,question3_3.stopped,question4_3.started,question4_3.stopped,question5_3.started,question5_3.stopped,question6_3.started,question6_3.stopped,image_16.started,image_16.stopped,text_49.started,text_49.stopped,key_resp_15.keys,key_resp_15.rt,key_resp_15.started,key_resp_15.stopped,text_81.started,text_81.stopped,participant,sA,sB,lA,lB,block_struct,play_stories,block,behavioral,random_seed,date,expName,psychopyVersion,frameRate,
Welcome to the story listening part of the experiment. ,,,0,0,0,0,0,0,0,0,,,,,,,,,,,,,,,,,,,,,,,,,,,,,,,,,,,,,[33 44 11 13 42 31 22 24],[3 4 1 3 2 1 2 4],2,8.597587931000362,16.69582701299987,None,16.69582701299987,None,16.69582701299987,None,,,,,,,,,,,,,,,,,,,,,,,,,,,,,,,,,,,,,,,,,,,,,,,,,,,,,,,,,,,,,,,,,,,,,,,,,,,,,,,,,,,,,,,,,,,,,,,,,,,,,,,,,,,,,,,,,,,,,,,,,,,,,,,,,,,,,,,,,,,,,,,,,,,,,,102921,0,2,1,2,1,1,1,0,20,2021_Oct_29_1449,listening_fmri,3.2.4,60.27956783469474,
"As a reminder, you will listen to 12 short stories.",,,0,0,0,0,0,1,1,1,,,,,,,,,,,,,,,,,,,,,,,,,,,,,,,,,,,,,,,2,4.093454116999965,25.329950651999752,None,25.329950651999752,None,25.329950651999752,None,,,,,,,,,,,,,,,,,,,,,,,,,,,,,,,,,,,,,,,,,,,,,,,,,,,,,,,,,,,,,,,,,,,,,,,,,,,,,,,,,,,,,,,,,,,,,,,,,,,,,,,,,,,,,,,,,,,,,,,,,,,,,,,,,,,,,,,,,,,,,,,,,,,,,,102921,0,2,1,2,1,1,1,0,20,2021_Oct_29_1449,listening_fmri,3.2.4,60.27956783469474,
These stories will be divided into 2 blocks of 6 stories.,,,0,0,0,0,0,2,2,2,,,,,,,,,,,,,,,,,,,,,,,,,,,,,,,,,,,,,,,2,4.480346167999869,29.449119526999766,None,29.449119526999766,None,29.449119526999766,None,,,,,,,,,,,,,,,,,,,,,,,,,,,,,,,,,,,,,,,,,,,,,,,,,,,,,,,,,,,,,,,,,,,,,,,,,,,,,,,,,,,,,,,,,,,,,,,,,,,,,,,,,,,,,,,,,,,,,,,,,,,,,,,,,,,,,,,,,,,,,,,,,,,,,,102921,0,2,1,2,1,1,1,0,20,2021_Oct_29_1449,listening_fmri,3.2.4,60.27956783469474,
"Before some of the stories, we will ask you to take on the perspective of a job. ",,,0,0,0,0,0,3,3,3,,,,,,,,,,,,,,,,,,,,,,,,,,,,,,,,,,,,,,,2,4.339946537000287,33.94952344700005,None,33.94952344700005,None,33.94952344700005,None,,,,,,,,,,,,,,,,,,,,,,,,,,,,,,,,,,,,,,,,,,,,,,,,,,,,,,,,,,,,,,,,,,,,,,,,,,,,,,,,,,,,,,,,,,,,,,,,,,,,,,,,,,,,,,,,,,,,,,,,,,,,,,,,,,,,,,,,,,,,,,,,,,,,,,102921,0,2,1,2,1,1,1,0,20,2021_Oct_29_1449,listening_fmri,3.2.4,60.27956783469474,
Please “simulate” this job while you listen to the story that follows.,,,0,0,0,0,0,4,4,4,,,,,,,,,,,,,,,,,,,,,,,,,,,,,,,,,,,,,,,2,4.912433656000303,38.329029897000055,None,38.329029897000055,None,38.329029897000055,None,,,,,,,,,,,,,,,,,,,,,,,,,,,,,,,,,,,,,,,,,,,,,,,,,,,,,,,,,,,,,,,,,,,,,,,,,,,,,,,,,,,,,,,,,,,,,,,,,,,,,,,,,,,,,,,,,,,,,,,,,,,,,,,,,,,,,,,,,,,,,,,,,,,,,,102921,0,2,1,2,1,1,1,0,20,2021_Oct_29_1449,listening_fmri,3.2.4,60.27956783469474,
"Before you begin, we will go over how to use the button box:",,,0,0,0,0,0,5,5,5,,,,,,,,,,,,,,,,,,,,,,,,,,,,,,,,,,,,,,,2,3.3333273920002284,43.26713706400005,None,43.26713706400005,None,43.26713706400005,None,,,,,,,,,,,,,,,,,,,,,,,,,,,,,,,,,,,,,,,,,,,,,,,,,,,,,,,,,,,,,,,,,,,,,,,,,,,,,,,,,,,,,,,,,,,,,,,,,,,,,,,,,,,,,,,,,,,,,,,,,,,,,,,,,,,,,,,,,,,,,,,,,,,,,,102921,0,2,1,2,1,1,1,0,20,2021_Oct_29_1449,listening_fmri,3.2.4,60.27956783469474,
"In this experiment, you'll use the first three fingers on each hand to do the quizzes and advance through the experiment. ",,,0,0,0,0,0,6,6,6,,,,,,,,,,,,,,,,,,,,,,,,,,,,,,,,,,,,,,,2,5.445480655999745,46.646100768999986,None,46.646100768999986,None,46.646100768999986,None,,,,,,,,,,,,,,,,,,,,,,,,,,,,,,,,,,,,,,,,,,,,,,,,,,,,,,,,,,,,,,,,,,,,,,,,,,,,,,,,,,,,,,,,,,,,,,,,,,,,,,,,,,,,,,,,,,,,,,,,,,,,,,,,,,,,,,,,,,,,,,,,,,,,,,102921,0,2,1,2,1,1,1,0,20,2021_Oct_29_1449,listening_fmri,3.2.4,60.27956783469474,
,,,0,0,0,0,,,,,,,,,,,,,,,,,,,,,,,,,,,,,,,,,,,,,,,,,,,,,,,,,,,2,11.053435067999999,52.11612882999998,None,52.11612882999998,None,52.11612882999998,None,52.11612882999998,None,63.20022877099973,None,2,7.501348503999907,63.20022877099973,None,63.20022877099973,None,63.20022877099973,None,63.20022877099973,None,2,5.304614720000245,70.72886368799982,None,70.72886368799982,None,70.72886368799982,None,76.06272116799983,None,1,2.8708630469996024,76.06272116799983,None,78.94973859799984,None,8,52.31884667900022,78.94973859799984,None,131.31125890699968,None,6,3.833160026999849,131.31125890699968,None,135.17820747099995,None,2,5.2163928219997615,135.17820747099995,None,140.4175709189999,None,140.4175709189999,None,space,26.499163348000366,140.4175709189999,None,,,,,,,,,,,,,,,,,,,,,,,,,,,,,,,,,,,,,,,,,,,,,,,,,,,,,,,,,,,,,,,,,,,,,,,,,,,,,,,,,,,,,,,,102921,0,2,1,2,1,1,1,0,20,2021_Oct_29_1449,listening_fmri,3.2.4,60.27956783469474,
,0,,,,,,,,,,0,0,0,0,0,0,0,0,,,,,,,,,,,,,,,,,,,,,,,,,,,,,,,,,,,,,,,,,,,,,,,,,,,,,,,,,,,,,,,,,,,,,,,,,,,,,,,,,,,,,,,,,,,,,,,,,,,,,166.94432041799973,None,equal,22.180198560000008,166.94432041799973,None,172.47392685000023,166.94432041799973,None,166.94432041799973,None,0.0004900509998151392,5.99892907200001,189.1442246669999,None,,,,,,,,,,,,,,,,,,,,,,,,,,,,,,,,,,,,,,,,,,,,,,,,,,,,,,,,,,,,,,,,,,,,,,,,,102921,0,2,1,2,1,1,1,0,20,2021_Oct_29_1449,listening_fmri,3.2.4,60.27956783469474,
,1,parcelated_audio/44/44_1.ogg,,,,,,,,,0,0,0,0,0,1,1,1,0,0,0,0,,,,,,,,,0,0,0,0,0,0,0,0,,,,,,,,,,,,,,,,,,,,,,,,,,,,,,,,,,,,,,,,,,,,,,,,,,,,,,,,,,,,,,,,,,,,,,,,,,,,,,,,,,,,,,,,,,,,,,,,195.15010874499967,None,2,1.620474639999884,195.15010874499967,None,195.15010874499967,None,195.15010874499967,None,196.80027579099988,None,2,2.6151830990002054,196.80027579099988,None,10.295107878999715,13.29836218399987,13.303879310999946,21.229411984999842,,,,,,,,,,,,,,,,,,,,,,,,,,,,,,,,,,,,,,,,,,,,,,,,,,,,,102921,0,2,1,2,1,1,1,0,20,2021_Oct_29_1449,listening_fmri,3.2.4,60.27956783469474,
,1,parcelated_audio/44/44_2.ogg,,,,,,,,,0,0,0,0,0,1,1,1,0,0,0,0,,,,,,,,,0,0,0,0,0,1,1,1,,,,,,,,,,,,,,,,,,,,,,,,,,,,,,,,,,,,,,,,,,,,,,,,,,,,,,,,,,,,,,,,,,,,,,,,,,,,,,,,,,,,,,,,,,,,,,,,,,,,,,,,,,,,,,,,,,21.229872255999908,30.35438343299984,,,,,,,,,,,,,,,,,,,,,,,,,,,,,,,,,,,,,,,,,,,,,,,,,,,,,102921,0,2,1,2,1,1,1,0,20,2021_Oct_29_1449,listening_fmri,3.2.4,60.27956783469474,
,1,parcelated_audio/44/44_3.ogg,,,,,,,,,0,0,0,0,0,1,1,1,0,0,0,0,,,,,,,,,0,0,0,0,0,2,2,2,,,,,,,,,,,,,,,,,,,,,,,,,,,,,,,,,,,,,,,,,,,,,,,,,,,,,,,,,,,,,,,,,,,,,,,,,,,,,,,,,,,,,,,,,,,,,,,,,,,,,,,,,,,,,,,,,,30.354677635999906,35.806815791999725,,,,,,,,,,,,,,,,,,,,,,,,,,,,,,,,,,,,,,,,,,,,,,,,,,,,,102921,0,2,1,2,1,1,1,0,20,2021_Oct_29_1449,listening_fmri,3.2.4,60.27956783469474,
,1,parcelated_audio/44/44_4.ogg,,,,,,,,,0,0,0,0,0,1,1,1,0,0,0,0,,,,,,,,,0,0,0,0,0,3,3,3,,,,,,,,,,,,,,,,,,,,,,,,,,,,,,,,,,,,,,,,,,,,,,,,,,,,,,,,,,,,,,,,,,,,,,,,,,,,,,,,,,,,,,,,,,,,,,,,,,,,,,,,,,,,,,,,,,35.80760728699988,40.8973078099998,,,,,,,,,,,,,,,,,,,,,,,,,,,,,,,,,,,,,,,,,,,,,,,,,,,,,102921,0,2,1,2,1,1,1,0,20,2021_Oct_29_1449,listening_fmri,3.2.4,60.27956783469474,
,1,parcelated_audio/44/44_5.ogg,,,,,,,,,0,0,0,0,0,1,1,1,0,0,0,0,,,,,,,,,0,0,0,0,0,4,4,4,,,,,,,,,,,,,,,,,,,,,,,,,,,,,,,,,,,,,,,,,,,,,,,,,,,,,,,,,,,,,,,,,,,,,,,,,,,,,,,,,,,,,,,,,,,,,,,,,,,,,,,,,,,,,,,,,,40.8975822389998,47.125919065999824,,,,,,,,,,,,,,,,,,,,,,,,,,,,,,,,,,,,,,,,,,,,,,,,,,,,,102921,0,2,1,2,1,1,1,0,20,2021_Oct_29_1449,listening_fmri,3.2.4,60.27956783469474,
,1,parcelated_audio/44/44_6.ogg,,,,,,,,,0,0,0,0,0,1,1,1,0,0,0,0,,,,,,,,,0,0,0,0,0,5,5,5,,,,,,,,,,,,,,,,,,,,,,,,,,,,,,,,,,,,,,,,,,,,,,,,,,,,,,,,,,,,,,,,,,,,,,,,,,,,,,,,,,,,,,,,,,,,,,,,,,,,,,,,,,,,,,,,,,47.12636507199977,54.07483349499989,,,,,,,,,,,,,,,,,,,,,,,,,,,,,,,,,,,,,,,,,,,,,,,,,,,,,102921,0,2,1,2,1,1,1,0,20,2021_Oct_29_1449,listening_fmri,3.2.4,60.27956783469474,
,1,parcelated_audio/44/44_7.ogg,,,,,,,,,0,0,0,0,0,1,1,1,0,0,0,0,,,,,,,,,0,0,0,0,0,6,6,6,,,,,,,,,,,,,,,,,,,,,,,,,,,,,,,,,,,,,,,,,,,,,,,,,,,,,,,,,,,,,,,,,,,,,,,,,,,,,,,,,,,,,,,,,,,,,,,,,,,,,,,,,,,,,,,,,,54.075229895999655,60.114864208999734,,,,,,,,,,,,,,,,,,,,,,,,,,,,,,,,,,,,,,,,,,,,,,,,,,,,,102921,0,2,1,2,1,1,1,0,20,2021_Oct_29_1449,listening_fmri,3.2.4,60.27956783469474,
,1,parcelated_audio/44/44_8.ogg,,,,,,,,,0,0,0,0,0,1,1,1,0,0,0,0,,,,,,,,,0,0,0,0,0,7,7,7,,,,,,,,,,,,,,,,,,,,,,,,,,,,,,,,,,,,,,,,,,,,,,,,,,,,,,,,,,,,,,,,,,,,,,,,,,,,,,,,,,,,,,,,,,,,,,,,,,,,,,,,,,,,,,,,,,60.11531237700001,64.38761126700001,,,,,,,,,,,,,,,,,,,,,,,,,,,,,,,,,,,,,,,,,,,,,,,,,,,,,102921,0,2,1,2,1,1,1,0,20,2021_Oct_29_1449,listening_fmri,3.2.4,60.27956783469474,
,1,parcelated_audio/44/44_9.ogg,,,,,,,,,0,0,0,0,0,1,1,1,0,0,0,0,,,,,,,,,0,0,0,0,0,8,8,8,,,,,,,,,,,,,,,,,,,,,,,,,,,,,,,,,,,,,,,,,,,,,,,,,,,,,,,,,,,,,,,,,,,,,,,,,,,,,,,,,,,,,,,,,,,,,,,,,,,,,,,,,,,,,,,,,,64.38800255999968,68.0879187659998,,,,,,,,,,,,,,,,,,,,,,,,,,,,,,,,,,,,,,,,,,,,,,,,,,,,,102921,0,2,1,2,1,1,1,0,20,2021_Oct_29_1449,listening_fmri,3.2.4,60.27956783469474,
,1,parcelated_audio/44/44_10.ogg,,,,,,,,,0,0,0,0,0,1,1,1,0,0,0,0,,,,,,,,,0,0,0,0,0,9,9,9,,,,,,,,,,,,,,,,,,,,,,,,,,,,,,,,,,,,,,,,,,,,,,,,,,,,,,,,,,,,,,,,,,,,,,,,,,,,,,,,,,,,,,,,,,,,,,,,,,,,,,,,,,,,,,,,,,68.08819546199993,78.21118563399978,,,,,,,,,,,,,,,,,,,,,,,,,,,,,,,,,,,,,,,,,,,,,,,,,,,,,102921,0,2,1,2,1,1,1,0,20,2021_Oct_29_1449,listening_fmri,3.2.4,60.27956783469474,
,1,parcelated_audio/44/44_11.ogg,,,,,,,,,0,0,0,0,0,1,1,1,0,0,0,0,,,,,,,,,0,0,0,0,0,10,10,10,,,,,,,,,,,,,,,,,,,,,,,,,,,,,,,,,,,,,,,,,,,,,,,,,,,,,,,,,,,,,,,,,,,,,,,,,,,,,,,,,,,,,,,,,,,,,,,,,,,,,,,,,,,,,,,,,,78.21146116599994,81.76270776399997,,,,,,,,,,,,,,,,,,,,,,,,,,,,,,,,,,,,,,,,,,,,,,,,,,,,,102921,0,2,1,2,1,1,1,0,20,2021_Oct_29_1449,listening_fmri,3.2.4,60.27956783469474,
,1,parcelated_audio/44/44_12.ogg,,,,,,,,,0,0,0,0,0,1,1,1,0,0,0,0,,,,,,,,,0,0,0,0,0,11,11,11,,,,,,,,,,,,,,,,,,,,,,,,,,,,,,,,,,,,,,,,,,,,,,,,,,,,,,,,,,,,,,,,,,,,,,,,,,,,,,,,,,,,,,,,,,,,,,,,,,,,,,,,,,,,,,,,,,81.76297865599963,92.34855453499995,,,,,,,,,,,,,,,,,,,,,,,,,,,,,,,,,,,,,,,,,,,,,,,,,,,,,102921,0,2,1,2,1,1,1,0,20,2021_Oct_29_1449,listening_fmri,3.2.4,60.27956783469474,
,1,parcelated_audio/44/44_13.ogg,,,,,,,,,0,0,0,0,0,1,1,1,0,0,0,0,,,,,,,,,0,0,0,0,0,12,12,12,,,,,,,,,,,,,,,,,,,,,,,,,,,,,,,,,,,,,,,,,,,,,,,,,,,,,,,,,,,,,,,,,,,,,,,,,,,,,,,,,,,,,,,,,,,,,,,,,,,,,,,,,,,,,,,,,,92.34890615599988,99.51726703099985,,,,,,,,,,,,,,,,,,,,,,,,,,,,,,,,,,,,,,,,,,,,,,,,,,,,,102921,0,2,1,2,1,1,1,0,20,2021_Oct_29_1449,listening_fmri,3.2.4,60.27956783469474,
,1,parcelated_audio/44/44_14.ogg,,,,,,,,,0,0,0,0,0,1,1,1,0,0,0,0,,,,,,,,,0,0,0,0,0,13,13,13,,,,,,,,,,,,,,,,,,,,,,,,,,,,,,,,,,,,,,,,,,,,,,,,,,,,,,,,,,,,,,,,,,,,,,,,,,,,,,,,,,,,,,,,,,,,,,,,,,,,,,,,,,,,,,,,,,99.51761668699965,105.8319684359999,,,,,,,,,,,,,,,,,,,,,,,,,,,,,,,,,,,,,,,,,,,,,,,,,,,,,102921,0,2,1,2,1,1,1,0,20,2021_Oct_29_1449,listening_fmri,3.2.4,60.27956783469474,
,1,parcelated_audio/44/44_15.ogg,,,,,,,,,0,0,0,0,0,1,1,1,0,0,0,0,,,,,,,,,0,0,0,0,0,14,14,14,,,,,,,,,,,,,,,,,,,,,,,,,,,,,,,,,,,,,,,,,,,,,,,,,,,,,,,,,,,,,,,,,,,,,,,,,,,,,,,,,,,,,,,,,,,,,,,,,,,,,,,,,,,,,,,,,,105.83226827099998,109.91381978499976,,,,,,,,,,,,,,,,,,,,,,,,,,,,,,,,,,,,,,,,,,,,,,,,,,,,,102921,0,2,1,2,1,1,1,0,20,2021_Oct_29_1449,listening_fmri,3.2.4,60.27956783469474,
,1,parcelated_audio/44/44_16.ogg,,,,,,,,,0,0,0,0,0,1,1,1,0,0,0,0,,,,,,,,,0,0,0,0,0,15,15,15,,,,,,,,,,,,,,,,,,,,,,,,,,,,,,,,,,,,,,,,,,,,,,,,,,,,,,,,,,,,,,,,,,,,,,,,,,,,,,,,,,,,,,,,,,,,,,,,,,,,,,,,,,,,,,,,,,109.91418843499969,114.0375082239998,,,,,,,,,,,,,,,,,,,,,,,,,,,,,,,,,,,,,,,,,,,,,,,,,,,,,102921,0,2,1,2,1,1,1,0,20,2021_Oct_29_1449,listening_fmri,3.2.4,60.27956783469474,
,1,parcelated_audio/44/44_17.ogg,,,,,,,,,0,0,0,0,0,1,1,1,0,0,0,0,,,,,,,,,0,0,0,0,0,16,16,16,,,,,,,,,,,,,,,,,,,,,,,,,,,,,,,,,,,,,,,,,,,,,,,,,,,,,,,,,,,,,,,,,,,,,,,,,,,,,,,,,,,,,,,,,,,,,,,,,,,,,,,,,,,,,,,,,,114.03801608499998,122.51740765899967,,,,,,,,,,,,,,,,,,,,,,,,,,,,,,,,,,,,,,,,,,,,,,,,,,,,,102921,0,2,1,2,1,1,1,0,20,2021_Oct_29_1449,listening_fmri,3.2.4,60.27956783469474,
,1,parcelated_audio/44/44_18.ogg,,,,,,,,,0,0,0,0,0,1,1,1,0,0,0,0,,,,,,,,,0,0,0,0,0,17,17,17,,,,,,,,,,,,,,,,,,,,,,,,,,,,,,,,,,,,,,,,,,,,,,,,,,,,,,,,,,,,,,,,,,,,,,,,,,,,,,,,,,,,,,,,,,,,,,,,,,,,,,,,,,,,,,,,,,122.51775994799982,132.35155619499983,,,,,,,,,,,,,,,,,,,,,,,,,,,,,,,,,,,,,,,,,,,,,,,,,,,,,102921,0,2,1,2,1,1,1,0,20,2021_Oct_29_1449,listening_fmri,3.2.4,60.27956783469474,
,1,parcelated_audio/44/44_19.ogg,,,,,,,,,0,0,0,0,0,1,1,1,0,0,0,0,,,,,,,,,0,0,0,0,0,18,18,18,,,,,,,,,,,,,,,,,,,,,,,,,,,,,,,,,,,,,,,,,,,,,,,,,,,,,,,,,,,,,,,,,,,,,,,,,,,,,,,,,,,,,,,,,,,,,,,,,,,,,,,,,,,,,,,,,,132.352011512,143.3335084739997,,,,,,,,,,,,,,,,,,,,,,,,,,,,,,,,,,,,,,,,,,,,,,,,,,,,,102921,0,2,1,2,1,1,1,0,20,2021_Oct_29_1449,listening_fmri,3.2.4,60.27956783469474,
,1,parcelated_audio/44/44_20.ogg,,,,,,,,,0,0,0,0,0,1,1,1,0,0,0,0,,,,,,,,,0,0,0,0,0,19,19,19,,,,,,,,,,,,,,,,,,,,,,,,,,,,,,,,,,,,,,,,,,,,,,,,,,,,,,,,,,,,,,,,,,,,,,,,,,,,,,,,,,,,,,,,,,,,,,,,,,,,,,,,,,,,,,,,,,143.33386428899985,151.56780783899967,,,,,,,,,,,,,,,,,,,,,,,,,,,,,,,,,,,,,,,,,,,,,,,,,,,,,102921,0,2,1,2,1,1,1,0,20,2021_Oct_29_1449,listening_fmri,3.2.4,60.27956783469474,
,1,parcelated_audio/44/44_21.ogg,,,,,,,,,0,0,0,0,0,1,1,1,0,0,0,0,,,,,,,,,0,0,0,0,0,20,20,20,,,,,,,,,,,,,,,,,,,,,,,,,,,,,,,,,,,,,,,,,,,,,,,,,,,,,,,,,,,,,,,,,,,,,,,,,,,,,,,,,,,,,,,,,,,,,,,,,,,,,,,,,,,,,,,,,,151.56869186199992,160.4748144109999,,,,,,,,,,,,,,,,,,,,,,,,,,,,,,,,,,,,,,,,,,,,,,,,,,,,,102921,0,2,1,2,1,1,1,0,20,2021_Oct_29_1449,listening_fmri,3.2.4,60.27956783469474,
,1,parcelated_audio/44/44_22.ogg,,,,,,,,,0,0,0,0,0,1,1,1,0,0,0,0,,,,,,,,,0,0,0,0,0,21,21,21,,,,,,,,,,,,,,,,,,,,,,,,,,,,,,,,,,,,,,,,,,,,,,,,,,,,,,,,,,,,,,,,,,,,,,,,,,,,,,,,,,,,,,,,,,,,,,,,,,,,,,,,,,,,,,,,,,160.4752884669997,165.401480214,,,,,,,,,,,,,,,,,,,,,,,,,,,,,,,,,,,,,,,,,,,,,,,,,,,,,102921,0,2,1,2,1,1,1,0,20,2021_Oct_29_1449,listening_fmri,3.2.4,60.27956783469474,
,1,parcelated_audio/44/44_23.ogg,,,,,,,,,0,0,0,0,0,1,1,1,0,0,0,0,,,,,,,,,0,0,0,0,0,22,22,22,,,,,,,,,,,,,,,,,,,,,,,,,,,,,,,,,,,,,,,,,,,,,,,,,,,,,,,,,,,,,,,,,,,,,,,,,,,,,,,,,,,,,,,,,,,,,,,,,,,,,,,,,,,,,,,,,,165.40266755699986,172.04791033499987,,,,,,,,,,,,,,,,,,,,,,,,,,,,,,,,,,,,,,,,,,,,,,,,,,,,,102921,0,2,1,2,1,1,1,0,20,2021_Oct_29_1449,listening_fmri,3.2.4,60.27956783469474,
,1,parcelated_audio/44/44_24.ogg,,,,,,,,,0,0,0,0,0,1,1,1,0,0,0,0,,,,,,,,,0,0,0,0,0,23,23,23,,,,,,,,,,,,,,,,,,,,,,,,,,,,,,,,,,,,,,,,,,,,,,,,,,,,,,,,,,,,,,,,,,,,,,,,,,,,,,,,,,,,,,,,,,,,,,,,,,,,,,,,,,,,,,,,,,172.0483160859999,180.80005671499976,,,,,,,,,,,,,,,,,,,,,,,,,,,,,,,,,,,,,,,,,,,,,,,,,,,,,102921,0,2,1,2,1,1,1,0,20,2021_Oct_29_1449,listening_fmri,3.2.4,60.27956783469474,
,1,parcelated_audio/44/44_25.ogg,,,,,,,,,0,0,0,0,0,1,1,1,0,0,0,0,,,,,,,,,0,0,0,0,0,24,24,24,,,,,,,,,,,,,,,,,,,,,,,,,,,,,,,,,,,,,,,,,,,,,,,,,,,,,,,,,,,,,,,,,,,,,,,,,,,,,,,,,,,,,,,,,,,,,,,,,,,,,,,,,,,,,,,,,,180.80042447000005,187.106801766,,,,,,,,,,,,,,,,,,,,,,,,,,,,,,,,,,,,,,,,,,,,,,,,,,,,,102921,0,2,1,2,1,1,1,0,20,2021_Oct_29_1449,listening_fmri,3.2.4,60.27956783469474,
,1,parcelated_audio/44/44_26.ogg,,,,,,,,,0,0,0,0,0,1,1,1,0,0,0,0,,,,,,,,,0,0,0,0,0,25,25,25,,,,,,,,,,,,,,,,,,,,,,,,,,,,,,,,,,,,,,,,,,,,,,,,,,,,,,,,,,,,,,,,,,,,,,,,,,,,,,,,,,,,,,,,,,,,,,,,,,,,,,,,,,,,,,,,,,187.107074991,191.96540124900002,,,,,,,,,,,,,,,,,,,,,,,,,,,,,,,,,,,,,,,,,,,,,,,,,,,,,102921,0,2,1,2,1,1,1,0,20,2021_Oct_29_1449,listening_fmri,3.2.4,60.27956783469474,
,1,parcelated_audio/44/44_27.ogg,,,,,,,,,0,0,0,0,0,1,1,1,0,0,0,0,,,,,,,,,0,0,0,0,0,26,26,26,,,,,,,,,,,,,,,,,,,,,,,,,,,,,,,,,,,,,,,,,,,,,,,,,,,,,,,,,,,,,,,,,,,,,,,,,,,,,,,,,,,,,,,,,,,,,,,,,,,,,,,,,,,,,,,,,,191.9656752699998,198.95470388399963,,,,,,,,,,,,,,,,,,,,,,,,,,,,,,,,,,,,,,,,,,,,,,,,,,,,,102921,0,2,1,2,1,1,1,0,20,2021_Oct_29_1449,listening_fmri,3.2.4,60.27956783469474,
,1,parcelated_audio/44/44_28.ogg,,,,,,,,,0,0,0,0,0,1,1,1,0,0,0,0,,,,,,,,,0,0,0,0,0,27,27,27,,,,,,,,,,,,,,,,,,,,,,,,,,,,,,,,,,,,,,,,,,,,,,,,,,,,,,,,,,,,,,,,,,,,,,,,,,,,,,,,,,,,,,,,,,,,,,,,,,,,,,,,,,,,,,,,,,198.955140174,210.23472042599997,,,,,,,,,,,,,,,,,,,,,,,,,,,,,,,,,,,,,,,,,,,,,,,,,,,,,102921,0,2,1,2,1,1,1,0,20,2021_Oct_29_1449,listening_fmri,3.2.4,60.27956783469474,
,1,,,,,,,,,,0,0,0,0,0,1,1,1,0,0,0,0,,,,,,,,,0,0,0,0,,,,,,,,,,,,,,,,,,,,,,,,,,,,,,,,,,,,,,,,,,,,,,,,,,,,,,,,,,,,,,,,,,,,,,,,,,,,,,,,,,,,,,,,,,,,,,,,,,,,,,,,,,,,,,,,,,,,,,,,,,,,,,,,,,,,,,,,,,,,,,,,,,,,,,,,,,,,,,,,,,,,,,,,,,,,102921,0,2,1,2,1,1,1,0,20,2021_Oct_29_1449,listening_fmri,3.2.4,60.27956783469474,
,1,,,,,,,,,,0,0,0,0,0,1,1,1,0,0,0,0,,,,,,,,,,,,,,,,,,,,,,,,,,,,,,,,,,,,,,,,,,,,,,,,,,,,,,,,,,,,,,,,,,,,,,,,,,,,,,,,,,,,,,,,,,,,,,,,,,,,,,,,,,,,210.23510809399977,216.22226308899963,399.3671315759998,None,,,,,,,,,,,,,,,,,,,,,405.3674893729999,None,405.3674893729999,None,,,,,,,,,,,,,,,,,,,,,,,,,,,,,,,,,,,,,,,,,,,,,,,,,102921,0,2,1,2,1,1,1,0,20,2021_Oct_29_1449,listening_fmri,3.2.4,60.27956783469474,
,1,,,,,,,,,,0,0,0,0,0,1,1,1,,,,,,,,,,,,,,,,,,,,,,,,,,,,,,,,,,,,,,,,,,,,,,,,,,,,,,,,,,,,,,,,,,,,,,,,,,,,,,,,,,,,,,,,,,,,,,,,,,,,,,,,,,,,,,,,,,,,,,,,,,,,,,,,,,,,,,,,,,,,,,,,,,,,,,,,,,,,,,,,,,,,,,,,,,,,,,,,,,,,,,,,,,,,102921,0,2,1,2,1,1,1,0,20,2021_Oct_29_1449,listening_fmri,3.2.4,60.27956783469474,
,2,,,,,,,,,,0,0,0,0,0,2,2,2,0,0,0,0,0,0,0,0,,,,,,,,,,,,,,,,,0,0,0,0,,,,,,,,,,,,,,,,,,,,,,,,,,,,,,,,,,,,,,,,,,,,,,,,,,,,,,,,,,,,,,,,,,,,,,,,,,,,,,,,,,,,,,,,406.3832516949997,None,2,2.092330056999799,406.3832516949997,None,406.3832516949997,None,406.3832516949997,None,,,,,,,,,,,,,,,408.50093350099996,None,2,2.202628736999941,408.50093350099996,None,408.50093350099996,None,410.75063168099996,None,410.75063168099996,None,410.75063168099996,None,2,2.638961544000267,410.75063168099996,None,413.43374318099995,None,2,4.674725915000181,413.43374318099995,None,413.43374318099995,None,418.2410634869998,None,418.2410634869998,None,418.2410634869998,None,418.2410634869998,None,418.2410634869998,None,418.2410634869998,None,418.2410634869998,None,,,,,,,,,102921,0,2,1,2,1,1,1,0,20,2021_Oct_29_1449,listening_fmri,3.2.4,60.27956783469474,
,2,,,,,,,,,,0,0,0,0,0,2,2,2,0,0,0,0,0,0,0,0,,,,,,,,,,,,,,,,,,,,,,,,,,,,,,,,,,,,,,,,,,,,,,,,,,,,,,,,,,,,,,,,,,,,,,,,,,,,,,,,,,,,,,,,,,,,,,,,,,,,,,,,,,,,,,,,,,,,,,,,,,,,,,,,,,,,,,,,,,,,478.1505191440001,None,478.1505191440001,None,478.1505191440001,None,2,1.5920836979998967,478.1505191440001,None,,,,,,,,,,,,,,,,,,,,,,,475.1845911999999,None,2,2.916869176000091,475.1845911999999,None,475.1845911999999,None,102921,0,2,1,2,1,1,1,0,20,2021_Oct_29_1449,listening_fmri,3.2.4,60.27956783469474,
,2,parcelated_audio/11/11_1.ogg,,,,,,,,,0,0,0,0,0,2,2,2,0,0,0,0,,,,,,,,,0,0,0,0,0,0,0,0,,,,,,,,,,,,,,,,,,,,,,,,,,,,,,,,,,,,,,,,,,,,,,,,,,,,,,,,,,,,,,,,,,,,,,,,,,,,,,,,,,,,,,,,,,,,,,,,,,,,,,,,,,479.7669352839998,None,2,2.4025270299998738,479.7669352839998,None,293.0651699739997,296.07276126099987,296.0885621369998,308.162830538,,,,,,,,,,,,,,,,,,,,,,,,,,,,,,,,,,,,,,,,,,,,,,,,,,,,,102921,0,2,1,2,1,1,1,0,20,2021_Oct_29_1449,listening_fmri,3.2.4,60.27956783469474,
,2,parcelated_audio/11/11_2.ogg,,,,,,,,,0,0,0,0,0,2,2,2,0,0,0,0,,,,,,,,,0,0,0,0,0,1,1,1,,,,,,,,,,,,,,,,,,,,,,,,,,,,,,,,,,,,,,,,,,,,,,,,,,,,,,,,,,,,,,,,,,,,,,,,,,,,,,,,,,,,,,,,,,,,,,,,,,,,,,,,,,,,,,,,,,308.16327670500004,312.64291081700003,,,,,,,,,,,,,,,,,,,,,,,,,,,,,,,,,,,,,,,,,,,,,,,,,,,,,102921,0,2,1,2,1,1,1,0,20,2021_Oct_29_1449,listening_fmri,3.2.4,60.27956783469474,
,2,parcelated_audio/11/11_3.ogg,,,,,,,,,0,0,0,0,0,2,2,2,0,0,0,0,,,,,,,,,0,0,0,0,0,2,2,2,,,,,,,,,,,,,,,,,,,,,,,,,,,,,,,,,,,,,,,,,,,,,,,,,,,,,,,,,,,,,,,,,,,,,,,,,,,,,,,,,,,,,,,,,,,,,,,,,,,,,,,,,,,,,,,,,,312.643337513,317.62980121600003,,,,,,,,,,,,,,,,,,,,,,,,,,,,,,,,,,,,,,,,,,,,,,,,,,,,,102921,0,2,1,2,1,1,1,0,20,2021_Oct_29_1449,listening_fmri,3.2.4,60.27956783469474,
,2,parcelated_audio/11/11_4.ogg,,,,,,,,,0,0,0,0,0,2,2,2,0,0,0,0,,,,,,,,,0,0,0,0,0,3,3,3,,,,,,,,,,,,,,,,,,,,,,,,,,,,,,,,,,,,,,,,,,,,,,,,,,,,,,,,,,,,,,,,,,,,,,,,,,,,,,,,,,,,,,,,,,,,,,,,,,,,,,,,,,,,,,,,,,317.63005470100006,326.7218268679999,,,,,,,,,,,,,,,,,,,,,,,,,,,,,,,,,,,,,,,,,,,,,,,,,,,,,102921,0,2,1,2,1,1,1,0,20,2021_Oct_29_1449,listening_fmri,3.2.4,60.27956783469474,
,2,parcelated_audio/11/11_5.ogg,,,,,,,,,0,0,0,0,0,2,2,2,0,0,0,0,,,,,,,,,0,0,0,0,0,4,4,4,,,,,,,,,,,,,,,,,,,,,,,,,,,,,,,,,,,,,,,,,,,,,,,,,,,,,,,,,,,,,,,,,,,,,,,,,,,,,,,,,,,,,,,,,,,,,,,,,,,,,,,,,,,,,,,,,,326.72210295099967,332.4724210549998,,,,,,,,,,,,,,,,,,,,,,,,,,,,,,,,,,,,,,,,,,,,,,,,,,,,,102921,0,2,1,2,1,1,1,0,20,2021_Oct_29_1449,listening_fmri,3.2.4,60.27956783469474,
,2,parcelated_audio/11/11_6.ogg,,,,,,,,,0,0,0,0,0,2,2,2,0,0,0,0,,,,,,,,,0,0,0,0,0,5,5,5,,,,,,,,,,,,,,,,,,,,,,,,,,,,,,,,,,,,,,,,,,,,,,,,,,,,,,,,,,,,,,,,,,,,,,,,,,,,,,,,,,,,,,,,,,,,,,,,,,,,,,,,,,,,,,,,,,332.473294076,337.04971713099985,,,,,,,,,,,,,,,,,,,,,,,,,,,,,,,,,,,,,,,,,,,,,,,,,,,,,102921,0,2,1,2,1,1,1,0,20,2021_Oct_29_1449,listening_fmri,3.2.4,60.27956783469474,
,2,parcelated_audio/11/11_7.ogg,,,,,,,,,0,0,0,0,0,2,2,2,0,0,0,0,,,,,,,,,0,0,0,0,0,6,6,6,,,,,,,,,,,,,,,,,,,,,,,,,,,,,,,,,,,,,,,,,,,,,,,,,,,,,,,,,,,,,,,,,,,,,,,,,,,,,,,,,,,,,,,,,,,,,,,,,,,,,,,,,,,,,,,,,,337.050597854,343.58487982099996,,,,,,,,,,,,,,,,,,,,,,,,,,,,,,,,,,,,,,,,,,,,,,,,,,,,,102921,0,2,1,2,1,1,1,0,20,2021_Oct_29_1449,listening_fmri,3.2.4,60.27956783469474,
,2,parcelated_audio/11/11_8.ogg,,,,,,,,,0,0,0,0,0,2,2,2,0,0,0,0,,,,,,,,,0,0,0,0,0,7,7,7,,,,,,,,,,,,,,,,,,,,,,,,,,,,,,,,,,,,,,,,,,,,,,,,,,,,,,,,,,,,,,,,,,,,,,,,,,,,,,,,,,,,,,,,,,,,,,,,,,,,,,,,,,,,,,,,,,343.58570255999985,349.36400390799963,,,,,,,,,,,,,,,,,,,,,,,,,,,,,,,,,,,,,,,,,,,,,,,,,,,,,102921,0,2,1,2,1,1,1,0,20,2021_Oct_29_1449,listening_fmri,3.2.4,60.27956783469474,
,2,parcelated_audio/11/11_9.ogg,,,,,,,,,0,0,0,0,0,2,2,2,0,0,0,0,,,,,,,,,0,0,0,0,0,8,8,8,,,,,,,,,,,,,,,,,,,,,,,,,,,,,,,,,,,,,,,,,,,,,,,,,,,,,,,,,,,,,,,,,,,,,,,,,,,,,,,,,,,,,,,,,,,,,,,,,,,,,,,,,,,,,,,,,,349.3645594229997,353.6772712530001,,,,,,,,,,,,,,,,,,,,,,,,,,,,,,,,,,,,,,,,,,,,,,,,,,,,,102921,0,2,1,2,1,1,1,0,20,2021_Oct_29_1449,listening_fmri,3.2.4,60.27956783469474,
,2,parcelated_audio/11/11_10.ogg,,,,,,,,,0,0,0,0,0,2,2,2,0,0,0,0,,,,,,,,,0,0,0,0,0,9,9,9,,,,,,,,,,,,,,,,,,,,,,,,,,,,,,,,,,,,,,,,,,,,,,,,,,,,,,,,,,,,,,,,,,,,,,,,,,,,,,,,,,,,,,,,,,,,,,,,,,,,,,,,,,,,,,,,,,353.6775481159998,358.26254581199964,,,,,,,,,,,,,,,,,,,,,,,,,,,,,,,,,,,,,,,,,,,,,,,,,,,,,102921,0,2,1,2,1,1,1,0,20,2021_Oct_29_1449,listening_fmri,3.2.4,60.27956783469474,
,2,parcelated_audio/11/11_11.ogg,,,,,,,,,0,0,0,0,0,2,2,2,0,0,0,0,,,,,,,,,0,0,0,0,0,10,10,10,,,,,,,,,,,,,,,,,,,,,,,,,,,,,,,,,,,,,,,,,,,,,,,,,,,,,,,,,,,,,,,,,,,,,,,,,,,,,,,,,,,,,,,,,,,,,,,,,,,,,,,,,,,,,,,,,,358.2628227099999,361.43467806599983,,,,,,,,,,,,,,,,,,,,,,,,,,,,,,,,,,,,,,,,,,,,,,,,,,,,,102921,0,2,1,2,1,1,1,0,20,2021_Oct_29_1449,listening_fmri,3.2.4,60.27956783469474,
,2,parcelated_audio/11/11_12.ogg,,,,,,,,,0,0,0,0,0,2,2,2,0,0,0,0,,,,,,,,,0,0,0,0,0,11,11,11,,,,,,,,,,,,,,,,,,,,,,,,,,,,,,,,,,,,,,,,,,,,,,,,,,,,,,,,,,,,,,,,,,,,,,,,,,,,,,,,,,,,,,,,,,,,,,,,,,,,,,,,,,,,,,,,,,361.43506529199976,364.2825711539999,,,,,,,,,,,,,,,,,,,,,,,,,,,,,,,,,,,,,,,,,,,,,,,,,,,,,102921,0,2,1,2,1,1,1,0,20,2021_Oct_29_1449,listening_fmri,3.2.4,60.27956783469474,
,2,parcelated_audio/11/11_13.ogg,,,,,,,,,0,0,0,0,0,2,2,2,0,0,0,0,,,,,,,,,0,0,0,0,0,12,12,12,,,,,,,,,,,,,,,,,,,,,,,,,,,,,,,,,,,,,,,,,,,,,,,,,,,,,,,,,,,,,,,,,,,,,,,,,,,,,,,,,,,,,,,,,,,,,,,,,,,,,,,,,,,,,,,,,,364.28287920899993,367.5998180829997,,,,,,,,,,,,,,,,,,,,,,,,,,,,,,,,,,,,,,,,,,,,,,,,,,,,,102921,0,2,1,2,1,1,1,0,20,2021_Oct_29_1449,listening_fmri,3.2.4,60.27956783469474,
,2,parcelated_audio/11/11_14.ogg,,,,,,,,,0,0,0,0,0,2,2,2,0,0,0,0,,,,,,,,,0,0,0,0,0,13,13,13,,,,,,,,,,,,,,,,,,,,,,,,,,,,,,,,,,,,,,,,,,,,,,,,,,,,,,,,,,,,,,,,,,,,,,,,,,,,,,,,,,,,,,,,,,,,,,,,,,,,,,,,,,,,,,,,,,367.60009299500007,370.2916431139997,,,,,,,,,,,,,,,,,,,,,,,,,,,,,,,,,,,,,,,,,,,,,,,,,,,,,102921,0,2,1,2,1,1,1,0,20,2021_Oct_29_1449,listening_fmri,3.2.4,60.27956783469474,
,2,parcelated_audio/11/11_15.ogg,,,,,,,,,0,0,0,0,0,2,2,2,0,0,0,0,,,,,,,,,0,0,0,0,0,14,14,14,,,,,,,,,,,,,,,,,,,,,,,,,,,,,,,,,,,,,,,,,,,,,,,,,,,,,,,,,,,,,,,,,,,,,,,,,,,,,,,,,,,,,,,,,,,,,,,,,,,,,,,,,,,,,,,,,,370.29193329400005,381.4559112879997,,,,,,,,,,,,,,,,,,,,,,,,,,,,,,,,,,,,,,,,,,,,,,,,,,,,,102921,0,2,1,2,1,1,1,0,20,2021_Oct_29_1449,listening_fmri,3.2.4,60.27956783469474,
,2,parcelated_audio/11/11_16.ogg,,,,,,,,,0,0,0,0,0,2,2,2,0,0,0,0,,,,,,,,,0,0,0,0,0,15,15,15,,,,,,,,,,,,,,,,,,,,,,,,,,,,,,,,,,,,,,,,,,,,,,,,,,,,,,,,,,,,,,,,,,,,,,,,,,,,,,,,,,,,,,,,,,,,,,,,,,,,,,,,,,,,,,,,,,381.456389683,384.45567424699993,,,,,,,,,,,,,,,,,,,,,,,,,,,,,,,,,,,,,,,,,,,,,,,,,,,,,102921,0,2,1,2,1,1,1,0,20,2021_Oct_29_1449,listening_fmri,3.2.4,60.27956783469474,
,2,parcelated_audio/11/11_17.ogg,,,,,,,,,0,0,0,0,0,2,2,2,0,0,0,0,,,,,,,,,0,0,0,0,0,16,16,16,,,,,,,,,,,,,,,,,,,,,,,,,,,,,,,,,,,,,,,,,,,,,,,,,,,,,,,,,,,,,,,,,,,,,,,,,,,,,,,,,,,,,,,,,,,,,,,,,,,,,,,,,,,,,,,,,,384.45602411599975,391.4611215519999,,,,,,,,,,,,,,,,,,,,,,,,,,,,,,,,,,,,,,,,,,,,,,,,,,,,,102921,0,2,1,2,1,1,1,0,20,2021_Oct_29_1449,listening_fmri,3.2.4,60.27956783469474,
,2,parcelated_audio/11/11_18.ogg,,,,,,,,,0,0,0,0,0,2,2,2,0,0,0,0,,,,,,,,,0,0,0,0,0,17,17,17,,,,,,,,,,,,,,,,,,,,,,,,,,,,,,,,,,,,,,,,,,,,,,,,,,,,,,,,,,,,,,,,,,,,,,,,,,,,,,,,,,,,,,,,,,,,,,,,,,,,,,,,,,,,,,,,,,391.46150452899974,398.91793767499985,,,,,,,,,,,,,,,,,,,,,,,,,,,,,,,,,,,,,,,,,,,,,,,,,,,,,102921,0,2,1,2,1,1,1,0,20,2021_Oct_29_1449,listening_fmri,3.2.4,60.27956783469474,
,2,parcelated_audio/11/11_19.ogg,,,,,,,,,0,0,0,0,0,2,2,2,0,0,0,0,,,,,,,,,0,0,0,0,0,18,18,18,,,,,,,,,,,,,,,,,,,,,,,,,,,,,,,,,,,,,,,,,,,,,,,,,,,,,,,,,,,,,,,,,,,,,,,,,,,,,,,,,,,,,,,,,,,,,,,,,,,,,,,,,,,,,,,,,,398.9183089899998,403.4963880279997,,,,,,,,,,,,,,,,,,,,,,,,,,,,,,,,,,,,,,,,,,,,,,,,,,,,,102921,0,2,1,2,1,1,1,0,20,2021_Oct_29_1449,listening_fmri,3.2.4,60.27956783469474,
,2,parcelated_audio/11/11_20.ogg,,,,,,,,,0,0,0,0,0,2,2,2,0,0,0,0,,,,,,,,,0,0,0,0,0,19,19,19,,,,,,,,,,,,,,,,,,,,,,,,,,,,,,,,,,,,,,,,,,,,,,,,,,,,,,,,,,,,,,,,,,,,,,,,,,,,,,,,,,,,,,,,,,,,,,,,,,,,,,,,,,,,,,,,,,403.49684100299964,408.41112598499967,,,,,,,,,,,,,,,,,,,,,,,,,,,,,,,,,,,,,,,,,,,,,,,,,,,,,102921,0,2,1,2,1,1,1,0,20,2021_Oct_29_1449,listening_fmri,3.2.4,60.27956783469474,
,2,parcelated_audio/11/11_21.ogg,,,,,,,,,0,0,0,0,0,2,2,2,0,0,0,0,,,,,,,,,0,0,0,0,0,20,20,20,,,,,,,,,,,,,,,,,,,,,,,,,,,,,,,,,,,,,,,,,,,,,,,,,,,,,,,,,,,,,,,,,,,,,,,,,,,,,,,,,,,,,,,,,,,,,,,,,,,,,,,,,,,,,,,,,,408.41147669699967,417.17617358300004,,,,,,,,,,,,,,,,,,,,,,,,,,,,,,,,,,,,,,,,,,,,,,,,,,,,,102921,0,2,1,2,1,1,1,0,20,2021_Oct_29_1449,listening_fmri,3.2.4,60.27956783469474,
,2,parcelated_audio/11/11_22.ogg,,,,,,,,,0,0,0,0,0,2,2,2,0,0,0,0,,,,,,,,,0,0,0,0,0,21,21,21,,,,,,,,,,,,,,,,,,,,,,,,,,,,,,,,,,,,,,,,,,,,,,,,,,,,,,,,,,,,,,,,,,,,,,,,,,,,,,,,,,,,,,,,,,,,,,,,,,,,,,,,,,,,,,,,,,417.17666625799984,420.46519352199994,,,,,,,,,,,,,,,,,,,,,,,,,,,,,,,,,,,,,,,,,,,,,,,,,,,,,102921,0,2,1,2,1,1,1,0,20,2021_Oct_29_1449,listening_fmri,3.2.4,60.27956783469474,
,2,parcelated_audio/11/11_23.ogg,,,,,,,,,0,0,0,0,0,2,2,2,0,0,0,0,,,,,,,,,0,0,0,0,0,22,22,22,,,,,,,,,,,,,,,,,,,,,,,,,,,,,,,,,,,,,,,,,,,,,,,,,,,,,,,,,,,,,,,,,,,,,,,,,,,,,,,,,,,,,,,,,,,,,,,,,,,,,,,,,,,,,,,,,,420.4656865369998,425.3389413679997,,,,,,,,,,,,,,,,,,,,,,,,,,,,,,,,,,,,,,,,,,,,,,,,,,,,,102921,0,2,1,2,1,1,1,0,20,2021_Oct_29_1449,listening_fmri,3.2.4,60.27956783469474,
,2,parcelated_audio/11/11_24.ogg,,,,,,,,,0,0,0,0,0,2,2,2,0,0,0,0,,,,,,,,,0,0,0,0,0,23,23,23,,,,,,,,,,,,,,,,,,,,,,,,,,,,,,,,,,,,,,,,,,,,,,,,,,,,,,,,,,,,,,,,,,,,,,,,,,,,,,,,,,,,,,,,,,,,,,,,,,,,,,,,,,,,,,,,,,425.33929660600006,428.960361894,,,,,,,,,,,,,,,,,,,,,,,,,,,,,,,,,,,,,,,,,,,,,,,,,,,,,102921,0,2,1,2,1,1,1,0,20,2021_Oct_29_1449,listening_fmri,3.2.4,60.27956783469474,
,2,parcelated_audio/11/11_25.ogg,,,,,,,,,0,0,0,0,0,2,2,2,0,0,0,0,,,,,,,,,0,0,0,0,0,24,24,24,,,,,,,,,,,,,,,,,,,,,,,,,,,,,,,,,,,,,,,,,,,,,,,,,,,,,,,,,,,,,,,,,,,,,,,,,,,,,,,,,,,,,,,,,,,,,,,,,,,,,,,,,,,,,,,,,,428.96069492599963,433.70530824599973,,,,,,,,,,,,,,,,,,,,,,,,,,,,,,,,,,,,,,,,,,,,,,,,,,,,,102921,0,2,1,2,1,1,1,0,20,2021_Oct_29_1449,listening_fmri,3.2.4,60.27956783469474,
,2,parcelated_audio/11/11_26.ogg,,,,,,,,,0,0,0,0,0,2,2,2,0,0,0,0,,,,,,,,,0,0,0,0,0,25,25,25,,,,,,,,,,,,,,,,,,,,,,,,,,,,,,,,,,,,,,,,,,,,,,,,,,,,,,,,,,,,,,,,,,,,,,,,,,,,,,,,,,,,,,,,,,,,,,,,,,,,,,,,,,,,,,,,,,433.7056316799999,438.6916638759999,,,,,,,,,,,,,,,,,,,,,,,,,,,,,,,,,,,,,,,,,,,,,,,,,,,,,102921,0,2,1,2,1,1,1,0,20,2021_Oct_29_1449,listening_fmri,3.2.4,60.27956783469474,
,2,parcelated_audio/11/11_27.ogg,,,,,,,,,0,0,0,0,0,2,2,2,0,0,0,0,,,,,,,,,0,0,0,0,0,26,26,26,,,,,,,,,,,,,,,,,,,,,,,,,,,,,,,,,,,,,,,,,,,,,,,,,,,,,,,,,,,,,,,,,,,,,,,,,,,,,,,,,,,,,,,,,,,,,,,,,,,,,,,,,,,,,,,,,,438.6926715219997,442.664116076,,,,,,,,,,,,,,,,,,,,,,,,,,,,,,,,,,,,,,,,,,,,,,,,,,,,,102921,0,2,1,2,1,1,1,0,20,2021_Oct_29_1449,listening_fmri,3.2.4,60.27956783469474,
,2,parcelated_audio/11/11_28.ogg,,,,,,,,,0,0,0,0,0,2,2,2,0,0,0,0,,,,,,,,,0,0,0,0,0,27,27,27,,,,,,,,,,,,,,,,,,,,,,,,,,,,,,,,,,,,,,,,,,,,,,,,,,,,,,,,,,,,,,,,,,,,,,,,,,,,,,,,,,,,,,,,,,,,,,,,,,,,,,,,,,,,,,,,,,442.6663246879998,446.082129031,,,,,,,,,,,,,,,,,,,,,,,,,,,,,,,,,,,,,,,,,,,,,,,,,,,,,102921,0,2,1,2,1,1,1,0,20,2021_Oct_29_1449,listening_fmri,3.2.4,60.27956783469474,
,2,parcelated_audio/11/11_29.ogg,,,,,,,,,0,0,0,0,0,2,2,2,0,0,0,0,,,,,,,,,0,0,0,0,0,28,28,28,,,,,,,,,,,,,,,,,,,,,,,,,,,,,,,,,,,,,,,,,,,,,,,,,,,,,,,,,,,,,,,,,,,,,,,,,,,,,,,,,,,,,,,,,,,,,,,,,,,,,,,,,,,,,,,,,,446.08269427999994,450.3057338079998,,,,,,,,,,,,,,,,,,,,,,,,,,,,,,,,,,,,,,,,,,,,,,,,,,,,,102921,0,2,1,2,1,1,1,0,20,2021_Oct_29_1449,listening_fmri,3.2.4,60.27956783469474,
,2,parcelated_audio/11/11_30.ogg,,,,,,,,,0,0,0,0,0,2,2,2,0,0,0,0,,,,,,,,,0,0,0,0,0,29,29,29,,,,,,,,,,,,,,,,,,,,,,,,,,,,,,,,,,,,,,,,,,,,,,,,,,,,,,,,,,,,,,,,,,,,,,,,,,,,,,,,,,,,,,,,,,,,,,,,,,,,,,,,,,,,,,,,,,450.308086085,454.832205232,,,,,,,,,,,,,,,,,,,,,,,,,,,,,,,,,,,,,,,,,,,,,,,,,,,,,102921,0,2,1,2,1,1,1,0,20,2021_Oct_29_1449,listening_fmri,3.2.4,60.27956783469474,
,2,parcelated_audio/11/11_31.ogg,,,,,,,,,0,0,0,0,0,2,2,2,0,0,0,0,,,,,,,,,0,0,0,0,0,30,30,30,,,,,,,,,,,,,,,,,,,,,,,,,,,,,,,,,,,,,,,,,,,,,,,,,,,,,,,,,,,,,,,,,,,,,,,,,,,,,,,,,,,,,,,,,,,,,,,,,,,,,,,,,,,,,,,,,,454.8325630049999,459.6901013419997,,,,,,,,,,,,,,,,,,,,,,,,,,,,,,,,,,,,,,,,,,,,,,,,,,,,,102921,0,2,1,2,1,1,1,0,20,2021_Oct_29_1449,listening_fmri,3.2.4,60.27956783469474,
,2,parcelated_audio/11/11_32.ogg,,,,,,,,,0,0,0,0,0,2,2,2,0,0,0,0,,,,,,,,,0,0,0,0,0,31,31,31,,,,,,,,,,,,,,,,,,,,,,,,,,,,,,,,,,,,,,,,,,,,,,,,,,,,,,,,,,,,,,,,,,,,,,,,,,,,,,,,,,,,,,,,,,,,,,,,,,,,,,,,,,,,,,,,,,459.6904548829998,463.7521511599998,,,,,,,,,,,,,,,,,,,,,,,,,,,,,,,,,,,,,,,,,,,,,,,,,,,,,102921,0,2,1,2,1,1,1,0,20,2021_Oct_29_1449,listening_fmri,3.2.4,60.27956783469474,
,2,parcelated_audio/11/11_33.ogg,,,,,,,,,0,0,0,0,0,2,2,2,0,0,0,0,,,,,,,,,0,0,0,0,0,32,32,32,,,,,,,,,,,,,,,,,,,,,,,,,,,,,,,,,,,,,,,,,,,,,,,,,,,,,,,,,,,,,,,,,,,,,,,,,,,,,,,,,,,,,,,,,,,,,,,,,,,,,,,,,,,,,,,,,,463.7526043859998,466.2851171899997,,,,,,,,,,,,,,,,,,,,,,,,,,,,,,,,,,,,,,,,,,,,,,,,,,,,,102921,0,2,1,2,1,1,1,0,20,2021_Oct_29_1449,listening_fmri,3.2.4,60.27956783469474,
,2,parcelated_audio/11/11_34.ogg,,,,,,,,,0,0,0,0,0,2,2,2,0,0,0,0,,,,,,,,,0,0,0,0,0,33,33,33,,,,,,,,,,,,,,,,,,,,,,,,,,,,,,,,,,,,,,,,,,,,,,,,,,,,,,,,,,,,,,,,,,,,,,,,,,,,,,,,,,,,,,,,,,,,,,,,,,,,,,,,,,,,,,,,,,466.2854659939999,469.600306887,,,,,,,,,,,,,,,,,,,,,,,,,,,,,,,,,,,,,,,,,,,,,,,,,,,,,102921,0,2,1,2,1,1,1,0,20,2021_Oct_29_1449,listening_fmri,3.2.4,60.27956783469474,
,2,parcelated_audio/11/11_35.ogg,,,,,,,,,0,0,0,0,0,2,2,2,0,0,0,0,,,,,,,,,0,0,0,0,0,34,34,34,,,,,,,,,,,,,,,,,,,,,,,,,,,,,,,,,,,,,,,,,,,,,,,,,,,,,,,,,,,,,,,,,,,,,,,,,,,,,,,,,,,,,,,,,,,,,,,,,,,,,,,,,,,,,,,,,,469.6008850819999,473.9590787009997,,,,,,,,,,,,,,,,,,,,,,,,,,,,,,,,,,,,,,,,,,,,,,,,,,,,,102921,0,2,1,2,1,1,1,0,20,2021_Oct_29_1449,listening_fmri,3.2.4,60.27956783469474,
,2,parcelated_audio/11/11_36.ogg,,,,,,,,,0,0,0,0,0,2,2,2,0,0,0,0,,,,,,,,,0,0,0,0,0,35,35,35,,,,,,,,,,,,,,,,,,,,,,,,,,,,,,,,,,,,,,,,,,,,,,,,,,,,,,,,,,,,,,,,,,,,,,,,,,,,,,,,,,,,,,,,,,,,,,,,,,,,,,,,,,,,,,,,,,473.959426676,482.9785873599999,,,,,,,,,,,,,,,,,,,,,,,,,,,,,,,,,,,,,,,,,,,,,,,,,,,,,102921,0,2,1,2,1,1,1,0,20,2021_Oct_29_1449,listening_fmri,3.2.4,60.27956783469474,
,2,parcelated_audio/11/11_37.ogg,,,,,,,,,0,0,0,0,0,2,2,2,0,0,0,0,,,,,,,,,0,0,0,0,0,36,36,36,,,,,,,,,,,,,,,,,,,,,,,,,,,,,,,,,,,,,,,,,,,,,,,,,,,,,,,,,,,,,,,,,,,,,,,,,,,,,,,,,,,,,,,,,,,,,,,,,,,,,,,,,,,,,,,,,,482.97893633500007,487.2567741019998,,,,,,,,,,,,,,,,,,,,,,,,,,,,,,,,,,,,,,,,,,,,,,,,,,,,,102921,0,2,1,2,1,1,1,0,20,2021_Oct_29_1449,listening_fmri,3.2.4,60.27956783469474,
,2,parcelated_audio/11/11_38.ogg,,,,,,,,,0,0,0,0,0,2,2,2,0,0,0,0,,,,,,,,,0,0,0,0,0,37,37,37,,,,,,,,,,,,,,,,,,,,,,,,,,,,,,,,,,,,,,,,,,,,,,,,,,,,,,,,,,,,,,,,,,,,,,,,,,,,,,,,,,,,,,,,,,,,,,,,,,,,,,,,,,,,,,,,,,487.257071561,493.41198730299993,,,,,,,,,,,,,,,,,,,,,,,,,,,,,,,,,,,,,,,,,,,,,,,,,,,,,102921,0,2,1,2,1,1,1,0,20,2021_Oct_29_1449,listening_fmri,3.2.4,60.27956783469474,
,2,parcelated_audio/11/11_39.ogg,,,,,,,,,0,0,0,0,0,2,2,2,0,0,0,0,,,,,,,,,0,0,0,0,0,38,38,38,,,,,,,,,,,,,,,,,,,,,,,,,,,,,,,,,,,,,,,,,,,,,,,,,,,,,,,,,,,,,,,,,,,,,,,,,,,,,,,,,,,,,,,,,,,,,,,,,,,,,,,,,,,,,,,,,,493.4123597959997,498.60592247999966,,,,,,,,,,,,,,,,,,,,,,,,,,,,,,,,,,,,,,,,,,,,,,,,,,,,,102921,0,2,1,2,1,1,1,0,20,2021_Oct_29_1449,listening_fmri,3.2.4,60.27956783469474,
,2,parcelated_audio/11/11_40.ogg,,,,,,,,,0,0,0,0,0,2,2,2,0,0,0,0,,,,,,,,,0,0,0,0,0,39,39,39,,,,,,,,,,,,,,,,,,,,,,,,,,,,,,,,,,,,,,,,,,,,,,,,,,,,,,,,,,,,,,,,,,,,,,,,,,,,,,,,,,,,,,,,,,,,,,,,,,,,,,,,,,,,,,,,,,498.606359679,504.37086519199966,,,,,,,,,,,,,,,,,,,,,,,,,,,,,,,,,,,,,,,,,,,,,,,,,,,,,102921,0,2,1,2,1,1,1,0,20,2021_Oct_29_1449,listening_fmri,3.2.4,60.27956783469474,
,2,parcelated_audio/11/11_41.ogg,,,,,,,,,0,0,0,0,0,2,2,2,0,0,0,0,,,,,,,,,0,0,0,0,0,40,40,40,,,,,,,,,,,,,,,,,,,,,,,,,,,,,,,,,,,,,,,,,,,,,,,,,,,,,,,,,,,,,,,,,,,,,,,,,,,,,,,,,,,,,,,,,,,,,,,,,,,,,,,,,,,,,,,,,,504.3711680409997,510.5253651429998,,,,,,,,,,,,,,,,,,,,,,,,,,,,,,,,,,,,,,,,,,,,,,,,,,,,,102921,0,2,1,2,1,1,1,0,20,2021_Oct_29_1449,listening_fmri,3.2.4,60.27956783469474,
,2,,,,,,,,,,0,0,0,0,0,2,2,2,0,0,0,0,,,,,,,,,0,0,0,0,,,,,,,,,,,,,,,,,,,,,,,,,,,,,,,,,,,,,,,,,,,,,,,,,,,,,,,,,,,,,,,,,,,,,,,,,,,,,,,,,,,,,,,,,,,,,,,,,,,,,,,,,,,,,,,,,,,,,,,,,,,,,,,,,,,,,,,,,,,,,,,,,,,,,,,,,,,,,,,,,,,,,,,,,,,,102921,0,2,1,2,1,1,1,0,20,2021_Oct_29_1449,listening_fmri,3.2.4,60.27956783469474,
,,,,,,,,,,,,,,,,,,,,,,,,,,,,,,,,,,,,,,,,,,,,,,,,,,,,,,,,,,,,,,,,,,,,,,,,,,,,,,,,,,,,,,,,,,,,,,,,,,,,,,,,,,,,,,,,,,,,,,,,,,,,,,,,,,510.5257592779999,516.5259147719999,699.6672048400001,None,,,,,,,,,,,,,,,,,,,,,705.6682635739999,None,705.6682635739999,None,,,,,,,,,,,,,,,,,,,,,,,,,,,,,,,,,,,,,,,,,,,,,,,,,,,,,,,,,,,,,,,
﻿instructions,count,audio,trials_14.thisRepN,trials_14.thisTrialN,trials_14.thisN,trials_14.thisIndex,trials_13.thisRepN,trials_13.thisTrialN,trials_13.thisN,trials_13.thisIndex,trials_3.thisRepN,trials_3.thisTrialN,trials_3.thisN,trials_3.thisIndex,Block1.thisRepN,Block1.thisTrialN,Block1.thisN,Block1.thisIndex,trials_5.thisRepN,trials_5.thisTrialN,trials_5.thisN,trials_5.thisIndex,trials.thisRepN,trials.thisTrialN,trials.thisN,trials.thisIndex,trials_2.thisRepN,trials_2.thisTrialN,trials_2.thisN,trials_2.thisIndex,trials_22.thisRepN,trials_22.thisTrialN,trials_22.thisN,trials_22.thisIndex,trials_16.thisRepN,trials_16.thisTrialN,trials_16.thisN,trials_16.thisIndex,trials_23.thisRepN,trials_23.thisTrialN,trials_23.thisN,trials_23.thisIndex,trials_7.thisRepN,trials_7.thisTrialN,trials_7.thisN,trials_7.thisIndex,story_list_block1,action_list_block1,key_resp_5.keys,key_resp_5.rt,key_resp_5.started,key_resp_5.stopped,text_87.started,text_87.stopped,text_88.started,text_88.stopped,key_resp_31.keys,key_resp_31.rt,key_resp_31.started,key_resp_31.stopped,text_89.started,text_89.stopped,image_27.started,image_27.stopped,text_97.started,text_97.stopped,image_24.started,image_24.stopped,key_resp_21.keys,key_resp_21.rt,key_resp_21.started,key_resp_21.stopped,text_78.started,text_78.stopped,text_96.started,text_96.stopped,image_28.started,image_28.stopped,key_resp_36.keys,key_resp_36.rt,key_resp_36.started,key_resp_36.stopped,text_94.started,text_94.stopped,text_95.started,text_95.stopped,text_90.started,text_90.stopped,key_resp_32.keys,key_resp_32.rt,key_resp_32.started,key_resp_32.stopped,text_91.started,text_91.stopped,key_resp_33.keys,key_resp_33.rt,key_resp_33.started,key_resp_33.stopped,text_92.started,text_92.stopped,key_resp_34.keys,key_resp_34.rt,key_resp_34.started,key_resp_34.stopped,text_93.started,text_93.stopped,key_resp_35.keys,key_resp_35.rt,key_resp_35.started,key_resp_35.stopped,text_98.started,text_98.stopped,text_99.started,text_99.stopped,key_resp_37.keys,key_resp_37.rt,key_resp_37.started,key_resp_37.stopped,textTrigger.started,textTrigger.stopped,getTrigger.keys,getTrigger.rt,getTrigger.started,getTrigger.stopped,triggerTime,text_76.started,text_76.stopped,text_77.started,text_77.stopped,startWait,endWait,image_23.started,image_23.stopped,text_38.started,text_38.stopped,key_resp_8.keys,key_resp_8.rt,key_resp_8.started,key_resp_8.stopped,text_39.started,text_39.stopped,text.started,text.stopped,text_50.started,text_50.stopped,key_resp_14.keys,key_resp_14.rt,key_resp_14.started,key_resp_14.stopped,storyImage_StartTime,storyImage_EndTime,clip_StartTime,clip_EndTime,text_6.started,text_6.stopped,text_52.started,text_52.stopped,text_33.started,text_33.stopped,key_resp_30.keys,key_resp_30.rt,key_resp_30.started,key_resp_30.stopped,text_79.started,text_79.stopped,text_4.started,text_4.stopped,image.started,image.stopped,text_5.started,text_5.stopped,key_resp_22.keys,key_resp_22.rt,key_resp_22.started,key_resp_22.stopped,text_37.started,text_37.stopped,key_resp_7.keys,key_resp_7.rt,key_resp_7.started,key_resp_7.stopped,text_80.started,text_80.stopped,question1_3.started,question1_3.stopped,question2_3.started,question2_3.stopped,question3_3.started,question3_3.stopped,question4_3.started,question4_3.stopped,question5_3.started,question5_3.stopped,question6_3.started,question6_3.stopped,image_16.started,image_16.stopped,text_49.started,text_49.stopped,key_resp_15.keys,key_resp_15.rt,key_resp_15.started,key_resp_15.stopped,text_81.started,text_81.stopped,participant,sA,sB,lA,lB,block_struct,play_stories,block,behavioral,random_seed,date,expName,psychopyVersion,frameRate,
Welcome to the story listening part of the experiment. ,,,0,0,0,0,0,0,0,0,,,,,,,,,,,,,,,,,,,,,,,,,,,,,,,,,,,,,[33 44 11 13 42 31 22 24],[3 4 1 3 2 1 2 4],2,8.597587931000362,16.69582701299987,None,16.69582701299987,None,16.69582701299987,None,,,,,,,,,,,,,,,,,,,,,,,,,,,,,,,,,,,,,,,,,,,,,,,,,,,,,,,,,,,,,,,,,,,,,,,,,,,,,,,,,,,,,,,,,,,,,,,,,,,,,,,,,,,,,,,,,,,,,,,,,,,,,,,,,,,,,,,,,,,,,,,,,,,,,,102921,0,2,1,2,1,1,1,0,20,2021_Oct_29_1449,listening_fmri,3.2.4,60.27956783469474,
"As a reminder, you will listen to 12 short stories.",,,0,0,0,0,0,1,1,1,,,,,,,,,,,,,,,,,,,,,,,,,,,,,,,,,,,,,,,2,4.093454116999965,25.329950651999752,None,25.329950651999752,None,25.329950651999752,None,,,,,,,,,,,,,,,,,,,,,,,,,,,,,,,,,,,,,,,,,,,,,,,,,,,,,,,,,,,,,,,,,,,,,,,,,,,,,,,,,,,,,,,,,,,,,,,,,,,,,,,,,,,,,,,,,,,,,,,,,,,,,,,,,,,,,,,,,,,,,,,,,,,,,,102921,0,2,1,2,1,1,1,0,20,2021_Oct_29_1449,listening_fmri,3.2.4,60.27956783469474,
These stories will be divided into 2 blocks of 6 stories.,,,0,0,0,0,0,2,2,2,,,,,,,,,,,,,,,,,,,,,,,,,,,,,,,,,,,,,,,2,4.480346167999869,29.449119526999766,None,29.449119526999766,None,29.449119526999766,None,,,,,,,,,,,,,,,,,,,,,,,,,,,,,,,,,,,,,,,,,,,,,,,,,,,,,,,,,,,,,,,,,,,,,,,,,,,,,,,,,,,,,,,,,,,,,,,,,,,,,,,,,,,,,,,,,,,,,,,,,,,,,,,,,,,,,,,,,,,,,,,,,,,,,,102921,0,2,1,2,1,1,1,0,20,2021_Oct_29_1449,listening_fmri,3.2.4,60.27956783469474,
"Before some of the stories, we will ask you to take on the perspective of a job. ",,,0,0,0,0,0,3,3,3,,,,,,,,,,,,,,,,,,,,,,,,,,,,,,,,,,,,,,,2,4.339946537000287,33.94952344700005,None,33.94952344700005,None,33.94952344700005,None,,,,,,,,,,,,,,,,,,,,,,,,,,,,,,,,,,,,,,,,,,,,,,,,,,,,,,,,,,,,,,,,,,,,,,,,,,,,,,,,,,,,,,,,,,,,,,,,,,,,,,,,,,,,,,,,,,,,,,,,,,,,,,,,,,,,,,,,,,,,,,,,,,,,,,102921,0,2,1,2,1,1,1,0,20,2021_Oct_29_1449,listening_fmri,3.2.4,60.27956783469474,
Please “simulate” this job while you listen to the story that follows.,,,0,0,0,0,0,4,4,4,,,,,,,,,,,,,,,,,,,,,,,,,,,,,,,,,,,,,,,2,4.912433656000303,38.329029897000055,None,38.329029897000055,None,38.329029897000055,None,,,,,,,,,,,,,,,,,,,,,,,,,,,,,,,,,,,,,,,,,,,,,,,,,,,,,,,,,,,,,,,,,,,,,,,,,,,,,,,,,,,,,,,,,,,,,,,,,,,,,,,,,,,,,,,,,,,,,,,,,,,,,,,,,,,,,,,,,,,,,,,,,,,,,,102921,0,2,1,2,1,1,1,0,20,2021_Oct_29_1449,listening_fmri,3.2.4,60.27956783469474,
"Before you begin, we will go over how to use the button box:",,,0,0,0,0,0,5,5,5,,,,,,,,,,,,,,,,,,,,,,,,,,,,,,,,,,,,,,,2,3.3333273920002284,43.26713706400005,None,43.26713706400005,None,43.26713706400005,None,,,,,,,,,,,,,,,,,,,,,,,,,,,,,,,,,,,,,,,,,,,,,,,,,,,,,,,,,,,,,,,,,,,,,,,,,,,,,,,,,,,,,,,,,,,,,,,,,,,,,,,,,,,,,,,,,,,,,,,,,,,,,,,,,,,,,,,,,,,,,,,,,,,,,,102921,0,2,1,2,1,1,1,0,20,2021_Oct_29_1449,listening_fmri,3.2.4,60.27956783469474,
"In this experiment, you'll use the first three fingers on each hand to do the quizzes and advance through the experiment. ",,,0,0,0,0,0,6,6,6,,,,,,,,,,,,,,,,,,,,,,,,,,,,,,,,,,,,,,,2,5.445480655999745,46.646100768999986,None,46.646100768999986,None,46.646100768999986,None,,,,,,,,,,,,,,,,,,,,,,,,,,,,,,,,,,,,,,,,,,,,,,,,,,,,,,,,,,,,,,,,,,,,,,,,,,,,,,,,,,,,,,,,,,,,,,,,,,,,,,,,,,,,,,,,,,,,,,,,,,,,,,,,,,,,,,,,,,,,,,,,,,,,,,102921,0,2,1,2,1,1,1,0,20,2021_Oct_29_1449,listening_fmri,3.2.4,60.27956783469474,
,,,0,0,0,0,,,,,,,,,,,,,,,,,,,,,,,,,,,,,,,,,,,,,,,,,,,,,,,,,,,2,11.053435067999999,52.11612882999998,None,52.11612882999998,None,52.11612882999998,None,52.11612882999998,None,63.20022877099973,None,2,7.501348503999907,63.20022877099973,None,63.20022877099973,None,63.20022877099973,None,63.20022877099973,None,2,5.304614720000245,70.72886368799982,None,70.72886368799982,None,70.72886368799982,None,76.06272116799983,None,1,2.8708630469996024,76.06272116799983,None,78.94973859799984,None,8,52.31884667900022,78.94973859799984,None,131.31125890699968,None,6,3.833160026999849,131.31125890699968,None,135.17820747099995,None,2,5.2163928219997615,135.17820747099995,None,140.4175709189999,None,140.4175709189999,None,space,26.499163348000366,140.4175709189999,None,,,,,,,,,,,,,,,,,,,,,,,,,,,,,,,,,,,,,,,,,,,,,,,,,,,,,,,,,,,,,,,,,,,,,,,,,,,,,,,,,,,,,,,,102921,0,2,1,2,1,1,1,0,20,2021_Oct_29_1449,listening_fmri,3.2.4,60.27956783469474,
,0,,,,,,,,,,0,0,0,0,0,0,0,0,,,,,,,,,,,,,,,,,,,,,,,,,,,,,,,,,,,,,,,,,,,,,,,,,,,,,,,,,,,,,,,,,,,,,,,,,,,,,,,,,,,,,,,,,,,,,,,,,,,,,166.94432041799973,None,equal,22.180198560000008,166.94432041799973,None,172.47392685000023,166.94432041799973,None,166.94432041799973,None,0.0004900509998151392,5.99892907200001,189.1442246669999,None,,,,,,,,,,,,,,,,,,,,,,,,,,,,,,,,,,,,,,,,,,,,,,,,,,,,,,,,,,,,,,,,,,,,,,,,,102921,0,2,1,2,1,1,1,0,20,2021_Oct_29_1449,listening_fmri,3.2.4,60.27956783469474,
,1,parcelated_audio/44/44_1.ogg,,,,,,,,,0,0,0,0,0,1,1,1,0,0,0,0,,,,,,,,,0,0,0,0,0,0,0,0,,,,,,,,,,,,,,,,,,,,,,,,,,,,,,,,,,,,,,,,,,,,,,,,,,,,,,,,,,,,,,,,,,,,,,,,,,,,,,,,,,,,,,,,,,,,,,,,195.15010874499967,None,2,1.620474639999884,195.15010874499967,None,195.15010874499967,None,195.15010874499967,None,196.80027579099988,None,2,2.6151830990002054,196.80027579099988,None,10.295107878999715,13.29836218399987,13.303879310999946,21.229411984999842,,,,,,,,,,,,,,,,,,,,,,,,,,,,,,,,,,,,,,,,,,,,,,,,,,,,,102921,0,2,1,2,1,1,1,0,20,2021_Oct_29_1449,listening_fmri,3.2.4,60.27956783469474,
,1,parcelated_audio/44/44_2.ogg,,,,,,,,,0,0,0,0,0,1,1,1,0,0,0,0,,,,,,,,,0,0,0,0,0,1,1,1,,,,,,,,,,,,,,,,,,,,,,,,,,,,,,,,,,,,,,,,,,,,,,,,,,,,,,,,,,,,,,,,,,,,,,,,,,,,,,,,,,,,,,,,,,,,,,,,,,,,,,,,,,,,,,,,,,21.229872255999908,30.35438343299984,,,,,,,,,,,,,,,,,,,,,,,,,,,,,,,,,,,,,,,,,,,,,,,,,,,,,102921,0,2,1,2,1,1,1,0,20,2021_Oct_29_1449,listening_fmri,3.2.4,60.27956783469474,
,1,parcelated_audio/44/44_3.ogg,,,,,,,,,0,0,0,0,0,1,1,1,0,0,0,0,,,,,,,,,0,0,0,0,0,2,2,2,,,,,,,,,,,,,,,,,,,,,,,,,,,,,,,,,,,,,,,,,,,,,,,,,,,,,,,,,,,,,,,,,,,,,,,,,,,,,,,,,,,,,,,,,,,,,,,,,,,,,,,,,,,,,,,,,,30.354677635999906,35.806815791999725,,,,,,,,,,,,,,,,,,,,,,,,,,,,,,,,,,,,,,,,,,,,,,,,,,,,,102921,0,2,1,2,1,1,1,0,20,2021_Oct_29_1449,listening_fmri,3.2.4,60.27956783469474,
,1,parcelated_audio/44/44_4.ogg,,,,,,,,,0,0,0,0,0,1,1,1,0,0,0,0,,,,,,,,,0,0,0,0,0,3,3,3,,,,,,,,,,,,,,,,,,,,,,,,,,,,,,,,,,,,,,,,,,,,,,,,,,,,,,,,,,,,,,,,,,,,,,,,,,,,,,,,,,,,,,,,,,,,,,,,,,,,,,,,,,,,,,,,,,35.80760728699988,40.8973078099998,,,,,,,,,,,,,,,,,,,,,,,,,,,,,,,,,,,,,,,,,,,,,,,,,,,,,102921,0,2,1,2,1,1,1,0,20,2021_Oct_29_1449,listening_fmri,3.2.4,60.27956783469474,
,1,parcelated_audio/44/44_5.ogg,,,,,,,,,0,0,0,0,0,1,1,1,0,0,0,0,,,,,,,,,0,0,0,0,0,4,4,4,,,,,,,,,,,,,,,,,,,,,,,,,,,,,,,,,,,,,,,,,,,,,,,,,,,,,,,,,,,,,,,,,,,,,,,,,,,,,,,,,,,,,,,,,,,,,,,,,,,,,,,,,,,,,,,,,,40.8975822389998,47.125919065999824,,,,,,,,,,,,,,,,,,,,,,,,,,,,,,,,,,,,,,,,,,,,,,,,,,,,,102921,0,2,1,2,1,1,1,0,20,2021_Oct_29_1449,listening_fmri,3.2.4,60.27956783469474,
,1,parcelated_audio/44/44_6.ogg,,,,,,,,,0,0,0,0,0,1,1,1,0,0,0,0,,,,,,,,,0,0,0,0,0,5,5,5,,,,,,,,,,,,,,,,,,,,,,,,,,,,,,,,,,,,,,,,,,,,,,,,,,,,,,,,,,,,,,,,,,,,,,,,,,,,,,,,,,,,,,,,,,,,,,,,,,,,,,,,,,,,,,,,,,47.12636507199977,54.07483349499989,,,,,,,,,,,,,,,,,,,,,,,,,,,,,,,,,,,,,,,,,,,,,,,,,,,,,102921,0,2,1,2,1,1,1,0,20,2021_Oct_29_1449,listening_fmri,3.2.4,60.27956783469474,
,1,parcelated_audio/44/44_7.ogg,,,,,,,,,0,0,0,0,0,1,1,1,0,0,0,0,,,,,,,,,0,0,0,0,0,6,6,6,,,,,,,,,,,,,,,,,,,,,,,,,,,,,,,,,,,,,,,,,,,,,,,,,,,,,,,,,,,,,,,,,,,,,,,,,,,,,,,,,,,,,,,,,,,,,,,,,,,,,,,,,,,,,,,,,,54.075229895999655,60.114864208999734,,,,,,,,,,,,,,,,,,,,,,,,,,,,,,,,,,,,,,,,,,,,,,,,,,,,,102921,0,2,1,2,1,1,1,0,20,2021_Oct_29_1449,listening_fmri,3.2.4,60.27956783469474,
,1,parcelated_audio/44/44_8.ogg,,,,,,,,,0,0,0,0,0,1,1,1,0,0,0,0,,,,,,,,,0,0,0,0,0,7,7,7,,,,,,,,,,,,,,,,,,,,,,,,,,,,,,,,,,,,,,,,,,,,,,,,,,,,,,,,,,,,,,,,,,,,,,,,,,,,,,,,,,,,,,,,,,,,,,,,,,,,,,,,,,,,,,,,,,60.11531237700001,64.38761126700001,,,,,,,,,,,,,,,,,,,,,,,,,,,,,,,,,,,,,,,,,,,,,,,,,,,,,102921,0,2,1,2,1,1,1,0,20,2021_Oct_29_1449,listening_fmri,3.2.4,60.27956783469474,
,1,parcelated_audio/44/44_9.ogg,,,,,,,,,0,0,0,0,0,1,1,1,0,0,0,0,,,,,,,,,0,0,0,0,0,8,8,8,,,,,,,,,,,,,,,,,,,,,,,,,,,,,,,,,,,,,,,,,,,,,,,,,,,,,,,,,,,,,,,,,,,,,,,,,,,,,,,,,,,,,,,,,,,,,,,,,,,,,,,,,,,,,,,,,,64.38800255999968,68.0879187659998,,,,,,,,,,,,,,,,,,,,,,,,,,,,,,,,,,,,,,,,,,,,,,,,,,,,,102921,0,2,1,2,1,1,1,0,20,2021_Oct_29_1449,listening_fmri,3.2.4,60.27956783469474,
,1,parcelated_audio/44/44_10.ogg,,,,,,,,,0,0,0,0,0,1,1,1,0,0,0,0,,,,,,,,,0,0,0,0,0,9,9,9,,,,,,,,,,,,,,,,,,,,,,,,,,,,,,,,,,,,,,,,,,,,,,,,,,,,,,,,,,,,,,,,,,,,,,,,,,,,,,,,,,,,,,,,,,,,,,,,,,,,,,,,,,,,,,,,,,68.08819546199993,78.21118563399978,,,,,,,,,,,,,,,,,,,,,,,,,,,,,,,,,,,,,,,,,,,,,,,,,,,,,102921,0,2,1,2,1,1,1,0,20,2021_Oct_29_1449,listening_fmri,3.2.4,60.27956783469474,
,1,parcelated_audio/44/44_11.ogg,,,,,,,,,0,0,0,0,0,1,1,1,0,0,0,0,,,,,,,,,0,0,0,0,0,10,10,10,,,,,,,,,,,,,,,,,,,,,,,,,,,,,,,,,,,,,,,,,,,,,,,,,,,,,,,,,,,,,,,,,,,,,,,,,,,,,,,,,,,,,,,,,,,,,,,,,,,,,,,,,,,,,,,,,,78.21146116599994,81.76270776399997,,,,,,,,,,,,,,,,,,,,,,,,,,,,,,,,,,,,,,,,,,,,,,,,,,,,,102921,0,2,1,2,1,1,1,0,20,2021_Oct_29_1449,listening_fmri,3.2.4,60.27956783469474,
,1,parcelated_audio/44/44_12.ogg,,,,,,,,,0,0,0,0,0,1,1,1,0,0,0,0,,,,,,,,,0,0,0,0,0,11,11,11,,,,,,,,,,,,,,,,,,,,,,,,,,,,,,,,,,,,,,,,,,,,,,,,,,,,,,,,,,,,,,,,,,,,,,,,,,,,,,,,,,,,,,,,,,,,,,,,,,,,,,,,,,,,,,,,,,81.76297865599963,92.34855453499995,,,,,,,,,,,,,,,,,,,,,,,,,,,,,,,,,,,,,,,,,,,,,,,,,,,,,102921,0,2,1,2,1,1,1,0,20,2021_Oct_29_1449,listening_fmri,3.2.4,60.27956783469474,
,1,parcelated_audio/44/44_13.ogg,,,,,,,,,0,0,0,0,0,1,1,1,0,0,0,0,,,,,,,,,0,0,0,0,0,12,12,12,,,,,,,,,,,,,,,,,,,,,,,,,,,,,,,,,,,,,,,,,,,,,,,,,,,,,,,,,,,,,,,,,,,,,,,,,,,,,,,,,,,,,,,,,,,,,,,,,,,,,,,,,,,,,,,,,,92.34890615599988,99.51726703099985,,,,,,,,,,,,,,,,,,,,,,,,,,,,,,,,,,,,,,,,,,,,,,,,,,,,,102921,0,2,1,2,1,1,1,0,20,2021_Oct_29_1449,listening_fmri,3.2.4,60.27956783469474,
,1,parcelated_audio/44/44_14.ogg,,,,,,,,,0,0,0,0,0,1,1,1,0,0,0,0,,,,,,,,,0,0,0,0,0,13,13,13,,,,,,,,,,,,,,,,,,,,,,,,,,,,,,,,,,,,,,,,,,,,,,,,,,,,,,,,,,,,,,,,,,,,,,,,,,,,,,,,,,,,,,,,,,,,,,,,,,,,,,,,,,,,,,,,,,99.51761668699965,105.8319684359999,,,,,,,,,,,,,,,,,,,,,,,,,,,,,,,,,,,,,,,,,,,,,,,,,,,,,102921,0,2,1,2,1,1,1,0,20,2021_Oct_29_1449,listening_fmri,3.2.4,60.27956783469474,
,1,parcelated_audio/44/44_15.ogg,,,,,,,,,0,0,0,0,0,1,1,1,0,0,0,0,,,,,,,,,0,0,0,0,0,14,14,14,,,,,,,,,,,,,,,,,,,,,,,,,,,,,,,,,,,,,,,,,,,,,,,,,,,,,,,,,,,,,,,,,,,,,,,,,,,,,,,,,,,,,,,,,,,,,,,,,,,,,,,,,,,,,,,,,,105.83226827099998,109.91381978499976,,,,,,,,,,,,,,,,,,,,,,,,,,,,,,,,,,,,,,,,,,,,,,,,,,,,,102921,0,2,1,2,1,1,1,0,20,2021_Oct_29_1449,listening_fmri,3.2.4,60.27956783469474,
,1,parcelated_audio/44/44_16.ogg,,,,,,,,,0,0,0,0,0,1,1,1,0,0,0,0,,,,,,,,,0,0,0,0,0,15,15,15,,,,,,,,,,,,,,,,,,,,,,,,,,,,,,,,,,,,,,,,,,,,,,,,,,,,,,,,,,,,,,,,,,,,,,,,,,,,,,,,,,,,,,,,,,,,,,,,,,,,,,,,,,,,,,,,,,109.91418843499969,114.0375082239998,,,,,,,,,,,,,,,,,,,,,,,,,,,,,,,,,,,,,,,,,,,,,,,,,,,,,102921,0,2,1,2,1,1,1,0,20,2021_Oct_29_1449,listening_fmri,3.2.4,60.27956783469474,
,1,parcelated_audio/44/44_17.ogg,,,,,,,,,0,0,0,0,0,1,1,1,0,0,0,0,,,,,,,,,0,0,0,0,0,16,16,16,,,,,,,,,,,,,,,,,,,,,,,,,,,,,,,,,,,,,,,,,,,,,,,,,,,,,,,,,,,,,,,,,,,,,,,,,,,,,,,,,,,,,,,,,,,,,,,,,,,,,,,,,,,,,,,,,,114.03801608499998,122.51740765899967,,,,,,,,,,,,,,,,,,,,,,,,,,,,,,,,,,,,,,,,,,,,,,,,,,,,,102921,0,2,1,2,1,1,1,0,20,2021_Oct_29_1449,listening_fmri,3.2.4,60.27956783469474,
,1,parcelated_audio/44/44_18.ogg,,,,,,,,,0,0,0,0,0,1,1,1,0,0,0,0,,,,,,,,,0,0,0,0,0,17,17,17,,,,,,,,,,,,,,,,,,,,,,,,,,,,,,,,,,,,,,,,,,,,,,,,,,,,,,,,,,,,,,,,,,,,,,,,,,,,,,,,,,,,,,,,,,,,,,,,,,,,,,,,,,,,,,,,,,122.51775994799982,132.35155619499983,,,,,,,,,,,,,,,,,,,,,,,,,,,,,,,,,,,,,,,,,,,,,,,,,,,,,102921,0,2,1,2,1,1,1,0,20,2021_Oct_29_1449,listening_fmri,3.2.4,60.27956783469474,
,1,parcelated_audio/44/44_19.ogg,,,,,,,,,0,0,0,0,0,1,1,1,0,0,0,0,,,,,,,,,0,0,0,0,0,18,18,18,,,,,,,,,,,,,,,,,,,,,,,,,,,,,,,,,,,,,,,,,,,,,,,,,,,,,,,,,,,,,,,,,,,,,,,,,,,,,,,,,,,,,,,,,,,,,,,,,,,,,,,,,,,,,,,,,,132.352011512,143.3335084739997,,,,,,,,,,,,,,,,,,,,,,,,,,,,,,,,,,,,,,,,,,,,,,,,,,,,,102921,0,2,1,2,1,1,1,0,20,2021_Oct_29_1449,listening_fmri,3.2.4,60.27956783469474,
,1,parcelated_audio/44/44_20.ogg,,,,,,,,,0,0,0,0,0,1,1,1,0,0,0,0,,,,,,,,,0,0,0,0,0,19,19,19,,,,,,,,,,,,,,,,,,,,,,,,,,,,,,,,,,,,,,,,,,,,,,,,,,,,,,,,,,,,,,,,,,,,,,,,,,,,,,,,,,,,,,,,,,,,,,,,,,,,,,,,,,,,,,,,,,143.33386428899985,151.56780783899967,,,,,,,,,,,,,,,,,,,,,,,,,,,,,,,,,,,,,,,,,,,,,,,,,,,,,102921,0,2,1,2,1,1,1,0,20,2021_Oct_29_1449,listening_fmri,3.2.4,60.27956783469474,
,1,parcelated_audio/44/44_21.ogg,,,,,,,,,0,0,0,0,0,1,1,1,0,0,0,0,,,,,,,,,0,0,0,0,0,20,20,20,,,,,,,,,,,,,,,,,,,,,,,,,,,,,,,,,,,,,,,,,,,,,,,,,,,,,,,,,,,,,,,,,,,,,,,,,,,,,,,,,,,,,,,,,,,,,,,,,,,,,,,,,,,,,,,,,,151.56869186199992,160.4748144109999,,,,,,,,,,,,,,,,,,,,,,,,,,,,,,,,,,,,,,,,,,,,,,,,,,,,,102921,0,2,1,2,1,1,1,0,20,2021_Oct_29_1449,listening_fmri,3.2.4,60.27956783469474,
,1,parcelated_audio/44/44_22.ogg,,,,,,,,,0,0,0,0,0,1,1,1,0,0,0,0,,,,,,,,,0,0,0,0,0,21,21,21,,,,,,,,,,,,,,,,,,,,,,,,,,,,,,,,,,,,,,,,,,,,,,,,,,,,,,,,,,,,,,,,,,,,,,,,,,,,,,,,,,,,,,,,,,,,,,,,,,,,,,,,,,,,,,,,,,160.4752884669997,165.401480214,,,,,,,,,,,,,,,,,,,,,,,,,,,,,,,,,,,,,,,,,,,,,,,,,,,,,102921,0,2,1,2,1,1,1,0,20,2021_Oct_29_1449,listening_fmri,3.2.4,60.27956783469474,
,1,parcelated_audio/44/44_23.ogg,,,,,,,,,0,0,0,0,0,1,1,1,0,0,0,0,,,,,,,,,0,0,0,0,0,22,22,22,,,,,,,,,,,,,,,,,,,,,,,,,,,,,,,,,,,,,,,,,,,,,,,,,,,,,,,,,,,,,,,,,,,,,,,,,,,,,,,,,,,,,,,,,,,,,,,,,,,,,,,,,,,,,,,,,,165.40266755699986,172.04791033499987,,,,,,,,,,,,,,,,,,,,,,,,,,,,,,,,,,,,,,,,,,,,,,,,,,,,,102921,0,2,1,2,1,1,1,0,20,2021_Oct_29_1449,listening_fmri,3.2.4,60.27956783469474,
,1,parcelated_audio/44/44_24.ogg,,,,,,,,,0,0,0,0,0,1,1,1,0,0,0,0,,,,,,,,,0,0,0,0,0,23,23,23,,,,,,,,,,,,,,,,,,,,,,,,,,,,,,,,,,,,,,,,,,,,,,,,,,,,,,,,,,,,,,,,,,,,,,,,,,,,,,,,,,,,,,,,,,,,,,,,,,,,,,,,,,,,,,,,,,172.0483160859999,180.80005671499976,,,,,,,,,,,,,,,,,,,,,,,,,,,,,,,,,,,,,,,,,,,,,,,,,,,,,102921,0,2,1,2,1,1,1,0,20,2021_Oct_29_1449,listening_fmri,3.2.4,60.27956783469474,
,1,parcelated_audio/44/44_25.ogg,,,,,,,,,0,0,0,0,0,1,1,1,0,0,0,0,,,,,,,,,0,0,0,0,0,24,24,24,,,,,,,,,,,,,,,,,,,,,,,,,,,,,,,,,,,,,,,,,,,,,,,,,,,,,,,,,,,,,,,,,,,,,,,,,,,,,,,,,,,,,,,,,,,,,,,,,,,,,,,,,,,,,,,,,,180.80042447000005,187.106801766,,,,,,,,,,,,,,,,,,,,,,,,,,,,,,,,,,,,,,,,,,,,,,,,,,,,,102921,0,2,1,2,1,1,1,0,20,2021_Oct_29_1449,listening_fmri,3.2.4,60.27956783469474,
,1,parcelated_audio/44/44_26.ogg,,,,,,,,,0,0,0,0,0,1,1,1,0,0,0,0,,,,,,,,,0,0,0,0,0,25,25,25,,,,,,,,,,,,,,,,,,,,,,,,,,,,,,,,,,,,,,,,,,,,,,,,,,,,,,,,,,,,,,,,,,,,,,,,,,,,,,,,,,,,,,,,,,,,,,,,,,,,,,,,,,,,,,,,,,187.107074991,191.96540124900002,,,,,,,,,,,,,,,,,,,,,,,,,,,,,,,,,,,,,,,,,,,,,,,,,,,,,102921,0,2,1,2,1,1,1,0,20,2021_Oct_29_1449,listening_fmri,3.2.4,60.27956783469474,
,1,parcelated_audio/44/44_27.ogg,,,,,,,,,0,0,0,0,0,1,1,1,0,0,0,0,,,,,,,,,0,0,0,0,0,26,26,26,,,,,,,,,,,,,,,,,,,,,,,,,,,,,,,,,,,,,,,,,,,,,,,,,,,,,,,,,,,,,,,,,,,,,,,,,,,,,,,,,,,,,,,,,,,,,,,,,,,,,,,,,,,,,,,,,,191.9656752699998,198.95470388399963,,,,,,,,,,,,,,,,,,,,,,,,,,,,,,,,,,,,,,,,,,,,,,,,,,,,,102921,0,2,1,2,1,1,1,0,20,2021_Oct_29_1449,listening_fmri,3.2.4,60.27956783469474,
,1,parcelated_audio/44/44_28.ogg,,,,,,,,,0,0,0,0,0,1,1,1,0,0,0,0,,,,,,,,,0,0,0,0,0,27,27,27,,,,,,,,,,,,,,,,,,,,,,,,,,,,,,,,,,,,,,,,,,,,,,,,,,,,,,,,,,,,,,,,,,,,,,,,,,,,,,,,,,,,,,,,,,,,,,,,,,,,,,,,,,,,,,,,,,198.955140174,210.23472042599997,,,,,,,,,,,,,,,,,,,,,,,,,,,,,,,,,,,,,,,,,,,,,,,,,,,,,102921,0,2,1,2,1,1,1,0,20,2021_Oct_29_1449,listening_fmri,3.2.4,60.27956783469474,
,1,,,,,,,,,,0,0,0,0,0,1,1,1,0,0,0,0,,,,,,,,,0,0,0,0,,,,,,,,,,,,,,,,,,,,,,,,,,,,,,,,,,,,,,,,,,,,,,,,,,,,,,,,,,,,,,,,,,,,,,,,,,,,,,,,,,,,,,,,,,,,,,,,,,,,,,,,,,,,,,,,,,,,,,,,,,,,,,,,,,,,,,,,,,,,,,,,,,,,,,,,,,,,,,,,,,,,,,,,,,,,102921,0,2,1,2,1,1,1,0,20,2021_Oct_29_1449,listening_fmri,3.2.4,60.27956783469474,
,1,,,,,,,,,,0,0,0,0,0,1,1,1,0,0,0,0,,,,,,,,,,,,,,,,,,,,,,,,,,,,,,,,,,,,,,,,,,,,,,,,,,,,,,,,,,,,,,,,,,,,,,,,,,,,,,,,,,,,,,,,,,,,,,,,,,,,,,,,,,,,210.23510809399977,216.22226308899963,399.3671315759998,None,,,,,,,,,,,,,,,,,,,,,405.3674893729999,None,405.3674893729999,None,,,,,,,,,,,,,,,,,,,,,,,,,,,,,,,,,,,,,,,,,,,,,,,,,102921,0,2,1,2,1,1,1,0,20,2021_Oct_29_1449,listening_fmri,3.2.4,60.27956783469474,
,1,,,,,,,,,,0,0,0,0,0,1,1,1,,,,,,,,,,,,,,,,,,,,,,,,,,,,,,,,,,,,,,,,,,,,,,,,,,,,,,,,,,,,,,,,,,,,,,,,,,,,,,,,,,,,,,,,,,,,,,,,,,,,,,,,,,,,,,,,,,,,,,,,,,,,,,,,,,,,,,,,,,,,,,,,,,,,,,,,,,,,,,,,,,,,,,,,,,,,,,,,,,,,,,,,,,,,102921,0,2,1,2,1,1,1,0,20,2021_Oct_29_1449,listening_fmri,3.2.4,60.27956783469474,
,2,,,,,,,,,,0,0,0,0,0,2,2,2,0,0,0,0,0,0,0,0,,,,,,,,,,,,,,,,,0,0,0,0,,,,,,,,,,,,,,,,,,,,,,,,,,,,,,,,,,,,,,,,,,,,,,,,,,,,,,,,,,,,,,,,,,,,,,,,,,,,,,,,,,,,,,,,406.3832516949997,None,2,2.092330056999799,406.3832516949997,None,406.3832516949997,None,406.3832516949997,None,,,,,,,,,,,,,,,408.50093350099996,None,2,2.202628736999941,408.50093350099996,None,408.50093350099996,None,410.75063168099996,None,410.75063168099996,None,410.75063168099996,None,2,2.638961544000267,410.75063168099996,None,413.43374318099995,None,2,4.674725915000181,413.43374318099995,None,413.43374318099995,None,418.2410634869998,None,418.2410634869998,None,418.2410634869998,None,418.2410634869998,None,418.2410634869998,None,418.2410634869998,None,418.2410634869998,None,,,,,,,,,102921,0,2,1,2,1,1,1,0,20,2021_Oct_29_1449,listening_fmri,3.2.4,60.27956783469474,
,2,,,,,,,,,,0,0,0,0,0,2,2,2,0,0,0,0,0,0,0,0,,,,,,,,,,,,,,,,,,,,,,,,,,,,,,,,,,,,,,,,,,,,,,,,,,,,,,,,,,,,,,,,,,,,,,,,,,,,,,,,,,,,,,,,,,,,,,,,,,,,,,,,,,,,,,,,,,,,,,,,,,,,,,,,,,,,,,,,,,,,478.1505191440001,None,478.1505191440001,None,478.1505191440001,None,2,1.5920836979998967,478.1505191440001,None,,,,,,,,,,,,,,,,,,,,,,,475.1845911999999,None,2,2.916869176000091,475.1845911999999,None,475.1845911999999,None,102921,0,2,1,2,1,1,1,0,20,2021_Oct_29_1449,listening_fmri,3.2.4,60.27956783469474,
,2,parcelated_audio/11/11_1.ogg,,,,,,,,,0,0,0,0,0,2,2,2,0,0,0,0,,,,,,,,,0,0,0,0,0,0,0,0,,,,,,,,,,,,,,,,,,,,,,,,,,,,,,,,,,,,,,,,,,,,,,,,,,,,,,,,,,,,,,,,,,,,,,,,,,,,,,,,,,,,,,,,,,,,,,,,,,,,,,,,,,479.7669352839998,None,2,2.4025270299998738,479.7669352839998,None,293.0651699739997,296.07276126099987,296.0885621369998,308.162830538,,,,,,,,,,,,,,,,,,,,,,,,,,,,,,,,,,,,,,,,,,,,,,,,,,,,,102921,0,2,1,2,1,1,1,0,20,2021_Oct_29_1449,listening_fmri,3.2.4,60.27956783469474,
,2,parcelated_audio/11/11_2.ogg,,,,,,,,,0,0,0,0,0,2,2,2,0,0,0,0,,,,,,,,,0,0,0,0,0,1,1,1,,,,,,,,,,,,,,,,,,,,,,,,,,,,,,,,,,,,,,,,,,,,,,,,,,,,,,,,,,,,,,,,,,,,,,,,,,,,,,,,,,,,,,,,,,,,,,,,,,,,,,,,,,,,,,,,,,308.16327670500004,312.64291081700003,,,,,,,,,,,,,,,,,,,,,,,,,,,,,,,,,,,,,,,,,,,,,,,,,,,,,102921,0,2,1,2,1,1,1,0,20,2021_Oct_29_1449,listening_fmri,3.2.4,60.27956783469474,
,2,parcelated_audio/11/11_3.ogg,,,,,,,,,0,0,0,0,0,2,2,2,0,0,0,0,,,,,,,,,0,0,0,0,0,2,2,2,,,,,,,,,,,,,,,,,,,,,,,,,,,,,,,,,,,,,,,,,,,,,,,,,,,,,,,,,,,,,,,,,,,,,,,,,,,,,,,,,,,,,,,,,,,,,,,,,,,,,,,,,,,,,,,,,,312.643337513,317.62980121600003,,,,,,,,,,,,,,,,,,,,,,,,,,,,,,,,,,,,,,,,,,,,,,,,,,,,,102921,0,2,1,2,1,1,1,0,20,2021_Oct_29_1449,listening_fmri,3.2.4,60.27956783469474,
,2,parcelated_audio/11/11_4.ogg,,,,,,,,,0,0,0,0,0,2,2,2,0,0,0,0,,,,,,,,,0,0,0,0,0,3,3,3,,,,,,,,,,,,,,,,,,,,,,,,,,,,,,,,,,,,,,,,,,,,,,,,,,,,,,,,,,,,,,,,,,,,,,,,,,,,,,,,,,,,,,,,,,,,,,,,,,,,,,,,,,,,,,,,,,317.63005470100006,326.7218268679999,,,,,,,,,,,,,,,,,,,,,,,,,,,,,,,,,,,,,,,,,,,,,,,,,,,,,102921,0,2,1,2,1,1,1,0,20,2021_Oct_29_1449,listening_fmri,3.2.4,60.27956783469474,
,2,parcelated_audio/11/11_5.ogg,,,,,,,,,0,0,0,0,0,2,2,2,0,0,0,0,,,,,,,,,0,0,0,0,0,4,4,4,,,,,,,,,,,,,,,,,,,,,,,,,,,,,,,,,,,,,,,,,,,,,,,,,,,,,,,,,,,,,,,,,,,,,,,,,,,,,,,,,,,,,,,,,,,,,,,,,,,,,,,,,,,,,,,,,,326.72210295099967,332.4724210549998,,,,,,,,,,,,,,,,,,,,,,,,,,,,,,,,,,,,,,,,,,,,,,,,,,,,,102921,0,2,1,2,1,1,1,0,20,2021_Oct_29_1449,listening_fmri,3.2.4,60.27956783469474,
,2,parcelated_audio/11/11_6.ogg,,,,,,,,,0,0,0,0,0,2,2,2,0,0,0,0,,,,,,,,,0,0,0,0,0,5,5,5,,,,,,,,,,,,,,,,,,,,,,,,,,,,,,,,,,,,,,,,,,,,,,,,,,,,,,,,,,,,,,,,,,,,,,,,,,,,,,,,,,,,,,,,,,,,,,,,,,,,,,,,,,,,,,,,,,332.473294076,337.04971713099985,,,,,,,,,,,,,,,,,,,,,,,,,,,,,,,,,,,,,,,,,,,,,,,,,,,,,102921,0,2,1,2,1,1,1,0,20,2021_Oct_29_1449,listening_fmri,3.2.4,60.27956783469474,
,2,parcelated_audio/11/11_7.ogg,,,,,,,,,0,0,0,0,0,2,2,2,0,0,0,0,,,,,,,,,0,0,0,0,0,6,6,6,,,,,,,,,,,,,,,,,,,,,,,,,,,,,,,,,,,,,,,,,,,,,,,,,,,,,,,,,,,,,,,,,,,,,,,,,,,,,,,,,,,,,,,,,,,,,,,,,,,,,,,,,,,,,,,,,,337.050597854,343.58487982099996,,,,,,,,,,,,,,,,,,,,,,,,,,,,,,,,,,,,,,,,,,,,,,,,,,,,,102921,0,2,1,2,1,1,1,0,20,2021_Oct_29_1449,listening_fmri,3.2.4,60.27956783469474,
,2,parcelated_audio/11/11_8.ogg,,,,,,,,,0,0,0,0,0,2,2,2,0,0,0,0,,,,,,,,,0,0,0,0,0,7,7,7,,,,,,,,,,,,,,,,,,,,,,,,,,,,,,,,,,,,,,,,,,,,,,,,,,,,,,,,,,,,,,,,,,,,,,,,,,,,,,,,,,,,,,,,,,,,,,,,,,,,,,,,,,,,,,,,,,343.58570255999985,349.36400390799963,,,,,,,,,,,,,,,,,,,,,,,,,,,,,,,,,,,,,,,,,,,,,,,,,,,,,102921,0,2,1,2,1,1,1,0,20,2021_Oct_29_1449,listening_fmri,3.2.4,60.27956783469474,
,2,parcelated_audio/11/11_9.ogg,,,,,,,,,0,0,0,0,0,2,2,2,0,0,0,0,,,,,,,,,0,0,0,0,0,8,8,8,,,,,,,,,,,,,,,,,,,,,,,,,,,,,,,,,,,,,,,,,,,,,,,,,,,,,,,,,,,,,,,,,,,,,,,,,,,,,,,,,,,,,,,,,,,,,,,,,,,,,,,,,,,,,,,,,,349.3645594229997,353.6772712530001,,,,,,,,,,,,,,,,,,,,,,,,,,,,,,,,,,,,,,,,,,,,,,,,,,,,,102921,0,2,1,2,1,1,1,0,20,2021_Oct_29_1449,listening_fmri,3.2.4,60.27956783469474,
,2,parcelated_audio/11/11_10.ogg,,,,,,,,,0,0,0,0,0,2,2,2,0,0,0,0,,,,,,,,,0,0,0,0,0,9,9,9,,,,,,,,,,,,,,,,,,,,,,,,,,,,,,,,,,,,,,,,,,,,,,,,,,,,,,,,,,,,,,,,,,,,,,,,,,,,,,,,,,,,,,,,,,,,,,,,,,,,,,,,,,,,,,,,,,353.6775481159998,358.26254581199964,,,,,,,,,,,,,,,,,,,,,,,,,,,,,,,,,,,,,,,,,,,,,,,,,,,,,102921,0,2,1,2,1,1,1,0,20,2021_Oct_29_1449,listening_fmri,3.2.4,60.27956783469474,
,2,parcelated_audio/11/11_11.ogg,,,,,,,,,0,0,0,0,0,2,2,2,0,0,0,0,,,,,,,,,0,0,0,0,0,10,10,10,,,,,,,,,,,,,,,,,,,,,,,,,,,,,,,,,,,,,,,,,,,,,,,,,,,,,,,,,,,,,,,,,,,,,,,,,,,,,,,,,,,,,,,,,,,,,,,,,,,,,,,,,,,,,,,,,,358.2628227099999,361.43467806599983,,,,,,,,,,,,,,,,,,,,,,,,,,,,,,,,,,,,,,,,,,,,,,,,,,,,,102921,0,2,1,2,1,1,1,0,20,2021_Oct_29_1449,listening_fmri,3.2.4,60.27956783469474,
,2,parcelated_audio/11/11_12.ogg,,,,,,,,,0,0,0,0,0,2,2,2,0,0,0,0,,,,,,,,,0,0,0,0,0,11,11,11,,,,,,,,,,,,,,,,,,,,,,,,,,,,,,,,,,,,,,,,,,,,,,,,,,,,,,,,,,,,,,,,,,,,,,,,,,,,,,,,,,,,,,,,,,,,,,,,,,,,,,,,,,,,,,,,,,361.43506529199976,364.2825711539999,,,,,,,,,,,,,,,,,,,,,,,,,,,,,,,,,,,,,,,,,,,,,,,,,,,,,102921,0,2,1,2,1,1,1,0,20,2021_Oct_29_1449,listening_fmri,3.2.4,60.27956783469474,
,2,parcelated_audio/11/11_13.ogg,,,,,,,,,0,0,0,0,0,2,2,2,0,0,0,0,,,,,,,,,0,0,0,0,0,12,12,12,,,,,,,,,,,,,,,,,,,,,,,,,,,,,,,,,,,,,,,,,,,,,,,,,,,,,,,,,,,,,,,,,,,,,,,,,,,,,,,,,,,,,,,,,,,,,,,,,,,,,,,,,,,,,,,,,,364.28287920899993,367.5998180829997,,,,,,,,,,,,,,,,,,,,,,,,,,,,,,,,,,,,,,,,,,,,,,,,,,,,,102921,0,2,1,2,1,1,1,0,20,2021_Oct_29_1449,listening_fmri,3.2.4,60.27956783469474,
,2,parcelated_audio/11/11_14.ogg,,,,,,,,,0,0,0,0,0,2,2,2,0,0,0,0,,,,,,,,,0,0,0,0,0,13,13,13,,,,,,,,,,,,,,,,,,,,,,,,,,,,,,,,,,,,,,,,,,,,,,,,,,,,,,,,,,,,,,,,,,,,,,,,,,,,,,,,,,,,,,,,,,,,,,,,,,,,,,,,,,,,,,,,,,367.60009299500007,370.2916431139997,,,,,,,,,,,,,,,,,,,,,,,,,,,,,,,,,,,,,,,,,,,,,,,,,,,,,102921,0,2,1,2,1,1,1,0,20,2021_Oct_29_1449,listening_fmri,3.2.4,60.27956783469474,
,2,parcelated_audio/11/11_15.ogg,,,,,,,,,0,0,0,0,0,2,2,2,0,0,0,0,,,,,,,,,0,0,0,0,0,14,14,14,,,,,,,,,,,,,,,,,,,,,,,,,,,,,,,,,,,,,,,,,,,,,,,,,,,,,,,,,,,,,,,,,,,,,,,,,,,,,,,,,,,,,,,,,,,,,,,,,,,,,,,,,,,,,,,,,,370.29193329400005,381.4559112879997,,,,,,,,,,,,,,,,,,,,,,,,,,,,,,,,,,,,,,,,,,,,,,,,,,,,,102921,0,2,1,2,1,1,1,0,20,2021_Oct_29_1449,listening_fmri,3.2.4,60.27956783469474,
,2,parcelated_audio/11/11_16.ogg,,,,,,,,,0,0,0,0,0,2,2,2,0,0,0,0,,,,,,,,,0,0,0,0,0,15,15,15,,,,,,,,,,,,,,,,,,,,,,,,,,,,,,,,,,,,,,,,,,,,,,,,,,,,,,,,,,,,,,,,,,,,,,,,,,,,,,,,,,,,,,,,,,,,,,,,,,,,,,,,,,,,,,,,,,381.456389683,384.45567424699993,,,,,,,,,,,,,,,,,,,,,,,,,,,,,,,,,,,,,,,,,,,,,,,,,,,,,102921,0,2,1,2,1,1,1,0,20,2021_Oct_29_1449,listening_fmri,3.2.4,60.27956783469474,
,2,parcelated_audio/11/11_17.ogg,,,,,,,,,0,0,0,0,0,2,2,2,0,0,0,0,,,,,,,,,0,0,0,0,0,16,16,16,,,,,,,,,,,,,,,,,,,,,,,,,,,,,,,,,,,,,,,,,,,,,,,,,,,,,,,,,,,,,,,,,,,,,,,,,,,,,,,,,,,,,,,,,,,,,,,,,,,,,,,,,,,,,,,,,,384.45602411599975,391.4611215519999,,,,,,,,,,,,,,,,,,,,,,,,,,,,,,,,,,,,,,,,,,,,,,,,,,,,,102921,0,2,1,2,1,1,1,0,20,2021_Oct_29_1449,listening_fmri,3.2.4,60.27956783469474,
,2,parcelated_audio/11/11_18.ogg,,,,,,,,,0,0,0,0,0,2,2,2,0,0,0,0,,,,,,,,,0,0,0,0,0,17,17,17,,,,,,,,,,,,,,,,,,,,,,,,,,,,,,,,,,,,,,,,,,,,,,,,,,,,,,,,,,,,,,,,,,,,,,,,,,,,,,,,,,,,,,,,,,,,,,,,,,,,,,,,,,,,,,,,,,391.46150452899974,398.91793767499985,,,,,,,,,,,,,,,,,,,,,,,,,,,,,,,,,,,,,,,,,,,,,,,,,,,,,102921,0,2,1,2,1,1,1,0,20,2021_Oct_29_1449,listening_fmri,3.2.4,60.27956783469474,
,2,parcelated_audio/11/11_19.ogg,,,,,,,,,0,0,0,0,0,2,2,2,0,0,0,0,,,,,,,,,0,0,0,0,0,18,18,18,,,,,,,,,,,,,,,,,,,,,,,,,,,,,,,,,,,,,,,,,,,,,,,,,,,,,,,,,,,,,,,,,,,,,,,,,,,,,,,,,,,,,,,,,,,,,,,,,,,,,,,,,,,,,,,,,,398.9183089899998,403.4963880279997,,,,,,,,,,,,,,,,,,,,,,,,,,,,,,,,,,,,,,,,,,,,,,,,,,,,,102921,0,2,1,2,1,1,1,0,20,2021_Oct_29_1449,listening_fmri,3.2.4,60.27956783469474,
,2,parcelated_audio/11/11_20.ogg,,,,,,,,,0,0,0,0,0,2,2,2,0,0,0,0,,,,,,,,,0,0,0,0,0,19,19,19,,,,,,,,,,,,,,,,,,,,,,,,,,,,,,,,,,,,,,,,,,,,,,,,,,,,,,,,,,,,,,,,,,,,,,,,,,,,,,,,,,,,,,,,,,,,,,,,,,,,,,,,,,,,,,,,,,403.49684100299964,408.41112598499967,,,,,,,,,,,,,,,,,,,,,,,,,,,,,,,,,,,,,,,,,,,,,,,,,,,,,102921,0,2,1,2,1,1,1,0,20,2021_Oct_29_1449,listening_fmri,3.2.4,60.27956783469474,
,2,parcelated_audio/11/11_21.ogg,,,,,,,,,0,0,0,0,0,2,2,2,0,0,0,0,,,,,,,,,0,0,0,0,0,20,20,20,,,,,,,,,,,,,,,,,,,,,,,,,,,,,,,,,,,,,,,,,,,,,,,,,,,,,,,,,,,,,,,,,,,,,,,,,,,,,,,,,,,,,,,,,,,,,,,,,,,,,,,,,,,,,,,,,,408.41147669699967,417.17617358300004,,,,,,,,,,,,,,,,,,,,,,,,,,,,,,,,,,,,,,,,,,,,,,,,,,,,,102921,0,2,1,2,1,1,1,0,20,2021_Oct_29_1449,listening_fmri,3.2.4,60.27956783469474,
,2,parcelated_audio/11/11_22.ogg,,,,,,,,,0,0,0,0,0,2,2,2,0,0,0,0,,,,,,,,,0,0,0,0,0,21,21,21,,,,,,,,,,,,,,,,,,,,,,,,,,,,,,,,,,,,,,,,,,,,,,,,,,,,,,,,,,,,,,,,,,,,,,,,,,,,,,,,,,,,,,,,,,,,,,,,,,,,,,,,,,,,,,,,,,417.17666625799984,420.46519352199994,,,,,,,,,,,,,,,,,,,,,,,,,,,,,,,,,,,,,,,,,,,,,,,,,,,,,102921,0,2,1,2,1,1,1,0,20,2021_Oct_29_1449,listening_fmri,3.2.4,60.27956783469474,
,2,parcelated_audio/11/11_23.ogg,,,,,,,,,0,0,0,0,0,2,2,2,0,0,0,0,,,,,,,,,0,0,0,0,0,22,22,22,,,,,,,,,,,,,,,,,,,,,,,,,,,,,,,,,,,,,,,,,,,,,,,,,,,,,,,,,,,,,,,,,,,,,,,,,,,,,,,,,,,,,,,,,,,,,,,,,,,,,,,,,,,,,,,,,,420.4656865369998,425.3389413679997,,,,,,,,,,,,,,,,,,,,,,,,,,,,,,,,,,,,,,,,,,,,,,,,,,,,,102921,0,2,1,2,1,1,1,0,20,2021_Oct_29_1449,listening_fmri,3.2.4,60.27956783469474,
,2,parcelated_audio/11/11_24.ogg,,,,,,,,,0,0,0,0,0,2,2,2,0,0,0,0,,,,,,,,,0,0,0,0,0,23,23,23,,,,,,,,,,,,,,,,,,,,,,,,,,,,,,,,,,,,,,,,,,,,,,,,,,,,,,,,,,,,,,,,,,,,,,,,,,,,,,,,,,,,,,,,,,,,,,,,,,,,,,,,,,,,,,,,,,425.33929660600006,428.960361894,,,,,,,,,,,,,,,,,,,,,,,,,,,,,,,,,,,,,,,,,,,,,,,,,,,,,102921,0,2,1,2,1,1,1,0,20,2021_Oct_29_1449,listening_fmri,3.2.4,60.27956783469474,
,2,parcelated_audio/11/11_25.ogg,,,,,,,,,0,0,0,0,0,2,2,2,0,0,0,0,,,,,,,,,0,0,0,0,0,24,24,24,,,,,,,,,,,,,,,,,,,,,,,,,,,,,,,,,,,,,,,,,,,,,,,,,,,,,,,,,,,,,,,,,,,,,,,,,,,,,,,,,,,,,,,,,,,,,,,,,,,,,,,,,,,,,,,,,,428.96069492599963,433.70530824599973,,,,,,,,,,,,,,,,,,,,,,,,,,,,,,,,,,,,,,,,,,,,,,,,,,,,,102921,0,2,1,2,1,1,1,0,20,2021_Oct_29_1449,listening_fmri,3.2.4,60.27956783469474,
,2,parcelated_audio/11/11_26.ogg,,,,,,,,,0,0,0,0,0,2,2,2,0,0,0,0,,,,,,,,,0,0,0,0,0,25,25,25,,,,,,,,,,,,,,,,,,,,,,,,,,,,,,,,,,,,,,,,,,,,,,,,,,,,,,,,,,,,,,,,,,,,,,,,,,,,,,,,,,,,,,,,,,,,,,,,,,,,,,,,,,,,,,,,,,433.7056316799999,438.6916638759999,,,,,,,,,,,,,,,,,,,,,,,,,,,,,,,,,,,,,,,,,,,,,,,,,,,,,102921,0,2,1,2,1,1,1,0,20,2021_Oct_29_1449,listening_fmri,3.2.4,60.27956783469474,
,2,parcelated_audio/11/11_27.ogg,,,,,,,,,0,0,0,0,0,2,2,2,0,0,0,0,,,,,,,,,0,0,0,0,0,26,26,26,,,,,,,,,,,,,,,,,,,,,,,,,,,,,,,,,,,,,,,,,,,,,,,,,,,,,,,,,,,,,,,,,,,,,,,,,,,,,,,,,,,,,,,,,,,,,,,,,,,,,,,,,,,,,,,,,,438.6926715219997,442.664116076,,,,,,,,,,,,,,,,,,,,,,,,,,,,,,,,,,,,,,,,,,,,,,,,,,,,,102921,0,2,1,2,1,1,1,0,20,2021_Oct_29_1449,listening_fmri,3.2.4,60.27956783469474,
,2,parcelated_audio/11/11_28.ogg,,,,,,,,,0,0,0,0,0,2,2,2,0,0,0,0,,,,,,,,,0,0,0,0,0,27,27,27,,,,,,,,,,,,,,,,,,,,,,,,,,,,,,,,,,,,,,,,,,,,,,,,,,,,,,,,,,,,,,,,,,,,,,,,,,,,,,,,,,,,,,,,,,,,,,,,,,,,,,,,,,,,,,,,,,442.6663246879998,446.082129031,,,,,,,,,,,,,,,,,,,,,,,,,,,,,,,,,,,,,,,,,,,,,,,,,,,,,102921,0,2,1,2,1,1,1,0,20,2021_Oct_29_1449,listening_fmri,3.2.4,60.27956783469474,
,2,parcelated_audio/11/11_29.ogg,,,,,,,,,0,0,0,0,0,2,2,2,0,0,0,0,,,,,,,,,0,0,0,0,0,28,28,28,,,,,,,,,,,,,,,,,,,,,,,,,,,,,,,,,,,,,,,,,,,,,,,,,,,,,,,,,,,,,,,,,,,,,,,,,,,,,,,,,,,,,,,,,,,,,,,,,,,,,,,,,,,,,,,,,,446.08269427999994,450.3057338079998,,,,,,,,,,,,,,,,,,,,,,,,,,,,,,,,,,,,,,,,,,,,,,,,,,,,,102921,0,2,1,2,1,1,1,0,20,2021_Oct_29_1449,listening_fmri,3.2.4,60.27956783469474,
,2,parcelated_audio/11/11_30.ogg,,,,,,,,,0,0,0,0,0,2,2,2,0,0,0,0,,,,,,,,,0,0,0,0,0,29,29,29,,,,,,,,,,,,,,,,,,,,,,,,,,,,,,,,,,,,,,,,,,,,,,,,,,,,,,,,,,,,,,,,,,,,,,,,,,,,,,,,,,,,,,,,,,,,,,,,,,,,,,,,,,,,,,,,,,450.308086085,454.832205232,,,,,,,,,,,,,,,,,,,,,,,,,,,,,,,,,,,,,,,,,,,,,,,,,,,,,102921,0,2,1,2,1,1,1,0,20,2021_Oct_29_1449,listening_fmri,3.2.4,60.27956783469474,
,2,parcelated_audio/11/11_31.ogg,,,,,,,,,0,0,0,0,0,2,2,2,0,0,0,0,,,,,,,,,0,0,0,0,0,30,30,30,,,,,,,,,,,,,,,,,,,,,,,,,,,,,,,,,,,,,,,,,,,,,,,,,,,,,,,,,,,,,,,,,,,,,,,,,,,,,,,,,,,,,,,,,,,,,,,,,,,,,,,,,,,,,,,,,,454.8325630049999,459.6901013419997,,,,,,,,,,,,,,,,,,,,,,,,,,,,,,,,,,,,,,,,,,,,,,,,,,,,,102921,0,2,1,2,1,1,1,0,20,2021_Oct_29_1449,listening_fmri,3.2.4,60.27956783469474,
,2,parcelated_audio/11/11_32.ogg,,,,,,,,,0,0,0,0,0,2,2,2,0,0,0,0,,,,,,,,,0,0,0,0,0,31,31,31,,,,,,,,,,,,,,,,,,,,,,,,,,,,,,,,,,,,,,,,,,,,,,,,,,,,,,,,,,,,,,,,,,,,,,,,,,,,,,,,,,,,,,,,,,,,,,,,,,,,,,,,,,,,,,,,,,459.6904548829998,463.7521511599998,,,,,,,,,,,,,,,,,,,,,,,,,,,,,,,,,,,,,,,,,,,,,,,,,,,,,102921,0,2,1,2,1,1,1,0,20,2021_Oct_29_1449,listening_fmri,3.2.4,60.27956783469474,
,2,parcelated_audio/11/11_33.ogg,,,,,,,,,0,0,0,0,0,2,2,2,0,0,0,0,,,,,,,,,0,0,0,0,0,32,32,32,,,,,,,,,,,,,,,,,,,,,,,,,,,,,,,,,,,,,,,,,,,,,,,,,,,,,,,,,,,,,,,,,,,,,,,,,,,,,,,,,,,,,,,,,,,,,,,,,,,,,,,,,,,,,,,,,,463.7526043859998,466.2851171899997,,,,,,,,,,,,,,,,,,,,,,,,,,,,,,,,,,,,,,,,,,,,,,,,,,,,,102921,0,2,1,2,1,1,1,0,20,2021_Oct_29_1449,listening_fmri,3.2.4,60.27956783469474,
,2,parcelated_audio/11/11_34.ogg,,,,,,,,,0,0,0,0,0,2,2,2,0,0,0,0,,,,,,,,,0,0,0,0,0,33,33,33,,,,,,,,,,,,,,,,,,,,,,,,,,,,,,,,,,,,,,,,,,,,,,,,,,,,,,,,,,,,,,,,,,,,,,,,,,,,,,,,,,,,,,,,,,,,,,,,,,,,,,,,,,,,,,,,,,466.2854659939999,469.600306887,,,,,,,,,,,,,,,,,,,,,,,,,,,,,,,,,,,,,,,,,,,,,,,,,,,,,102921,0,2,1,2,1,1,1,0,20,2021_Oct_29_1449,listening_fmri,3.2.4,60.27956783469474,
,2,parcelated_audio/11/11_35.ogg,,,,,,,,,0,0,0,0,0,2,2,2,0,0,0,0,,,,,,,,,0,0,0,0,0,34,34,34,,,,,,,,,,,,,,,,,,,,,,,,,,,,,,,,,,,,,,,,,,,,,,,,,,,,,,,,,,,,,,,,,,,,,,,,,,,,,,,,,,,,,,,,,,,,,,,,,,,,,,,,,,,,,,,,,,469.6008850819999,473.9590787009997,,,,,,,,,,,,,,,,,,,,,,,,,,,,,,,,,,,,,,,,,,,,,,,,,,,,,102921,0,2,1,2,1,1,1,0,20,2021_Oct_29_1449,listening_fmri,3.2.4,60.27956783469474,
,2,parcelated_audio/11/11_36.ogg,,,,,,,,,0,0,0,0,0,2,2,2,0,0,0,0,,,,,,,,,0,0,0,0,0,35,35,35,,,,,,,,,,,,,,,,,,,,,,,,,,,,,,,,,,,,,,,,,,,,,,,,,,,,,,,,,,,,,,,,,,,,,,,,,,,,,,,,,,,,,,,,,,,,,,,,,,,,,,,,,,,,,,,,,,473.959426676,482.9785873599999,,,,,,,,,,,,,,,,,,,,,,,,,,,,,,,,,,,,,,,,,,,,,,,,,,,,,102921,0,2,1,2,1,1,1,0,20,2021_Oct_29_1449,listening_fmri,3.2.4,60.27956783469474,
,2,parcelated_audio/11/11_37.ogg,,,,,,,,,0,0,0,0,0,2,2,2,0,0,0,0,,,,,,,,,0,0,0,0,0,36,36,36,,,,,,,,,,,,,,,,,,,,,,,,,,,,,,,,,,,,,,,,,,,,,,,,,,,,,,,,,,,,,,,,,,,,,,,,,,,,,,,,,,,,,,,,,,,,,,,,,,,,,,,,,,,,,,,,,,482.97893633500007,487.2567741019998,,,,,,,,,,,,,,,,,,,,,,,,,,,,,,,,,,,,,,,,,,,,,,,,,,,,,102921,0,2,1,2,1,1,1,0,20,2021_Oct_29_1449,listening_fmri,3.2.4,60.27956783469474,
,2,parcelated_audio/11/11_38.ogg,,,,,,,,,0,0,0,0,0,2,2,2,0,0,0,0,,,,,,,,,0,0,0,0,0,37,37,37,,,,,,,,,,,,,,,,,,,,,,,,,,,,,,,,,,,,,,,,,,,,,,,,,,,,,,,,,,,,,,,,,,,,,,,,,,,,,,,,,,,,,,,,,,,,,,,,,,,,,,,,,,,,,,,,,,487.257071561,493.41198730299993,,,,,,,,,,,,,,,,,,,,,,,,,,,,,,,,,,,,,,,,,,,,,,,,,,,,,102921,0,2,1,2,1,1,1,0,20,2021_Oct_29_1449,listening_fmri,3.2.4,60.27956783469474,
,2,parcelated_audio/11/11_39.ogg,,,,,,,,,0,0,0,0,0,2,2,2,0,0,0,0,,,,,,,,,0,0,0,0,0,38,38,38,,,,,,,,,,,,,,,,,,,,,,,,,,,,,,,,,,,,,,,,,,,,,,,,,,,,,,,,,,,,,,,,,,,,,,,,,,,,,,,,,,,,,,,,,,,,,,,,,,,,,,,,,,,,,,,,,,493.4123597959997,498.60592247999966,,,,,,,,,,,,,,,,,,,,,,,,,,,,,,,,,,,,,,,,,,,,,,,,,,,,,102921,0,2,1,2,1,1,1,0,20,2021_Oct_29_1449,listening_fmri,3.2.4,60.27956783469474,
,2,parcelated_audio/11/11_40.ogg,,,,,,,,,0,0,0,0,0,2,2,2,0,0,0,0,,,,,,,,,0,0,0,0,0,39,39,39,,,,,,,,,,,,,,,,,,,,,,,,,,,,,,,,,,,,,,,,,,,,,,,,,,,,,,,,,,,,,,,,,,,,,,,,,,,,,,,,,,,,,,,,,,,,,,,,,,,,,,,,,,,,,,,,,,498.606359679,504.37086519199966,,,,,,,,,,,,,,,,,,,,,,,,,,,,,,,,,,,,,,,,,,,,,,,,,,,,,102921,0,2,1,2,1,1,1,0,20,2021_Oct_29_1449,listening_fmri,3.2.4,60.27956783469474,
,2,parcelated_audio/11/11_41.ogg,,,,,,,,,0,0,0,0,0,2,2,2,0,0,0,0,,,,,,,,,0,0,0,0,0,40,40,40,,,,,,,,,,,,,,,,,,,,,,,,,,,,,,,,,,,,,,,,,,,,,,,,,,,,,,,,,,,,,,,,,,,,,,,,,,,,,,,,,,,,,,,,,,,,,,,,,,,,,,,,,,,,,,,,,,504.3711680409997,510.5253651429998,,,,,,,,,,,,,,,,,,,,,,,,,,,,,,,,,,,,,,,,,,,,,,,,,,,,,102921,0,2,1,2,1,1,1,0,20,2021_Oct_29_1449,listening_fmri,3.2.4,60.27956783469474,
,2,,,,,,,,,,0,0,0,0,0,2,2,2,0,0,0,0,,,,,,,,,0,0,0,0,,,,,,,,,,,,,,,,,,,,,,,,,,,,,,,,,,,,,,,,,,,,,,,,,,,,,,,,,,,,,,,,,,,,,,,,,,,,,,,,,,,,,,,,,,,,,,,,,,,,,,,,,,,,,,,,,,,,,,,,,,,,,,,,,,,,,,,,,,,,,,,,,,,,,,,,,,,,,,,,,,,,,,,,,,,,102921,0,2,1,2,1,1,1,0,20,2021_Oct_29_1449,listening_fmri,3.2.4,60.27956783469474,
,2,,,,,,,,,,0,0,0,0,0,2,2,2,0,0,0,0,,,,,,,,,,,,,,,,,,,,,,,,,,,,,,,,,,,,,,,,,,,,,,,,,,,,,,,,,,,,,,,,,,,,,,,,,,,,,,,,,,,,,,,,,,,,,,,,,,,,,,,,,,,,510.5257592779999,516.5259147719999,699.6672048400001,None,,,,,,,,,,,,,,,,,,,,,705.6682635739999,None,705.6682635739999,None,,,,,,,,,,,,,,,,,,,,,,,,,,,,,,,,,,,,,,,,,,,,,,,,,102921,0,2,1,2,1,1,1,0,20,2021_Oct_29_1449,listening_fmri,3.2.4,60.27956783469474,
,2,,,,,,,,,,0,0,0,0,0,2,2,2,,,,,,,,,,,,,,,,,,,,,,,,,,,,,,,,,,,,,,,,,,,,,,,,,,,,,,,,,,,,,,,,,,,,,,,,,,,,,,,,,,,,,,,,,,,,,,,,,,,,,,,,,,,,,,,,,,,,,,,,,,,,,,,,,,,,,,,,,,,,,,,,,,,,,,,,,,,,,,,,,,,,,,,,,,,,,,,,,,,,,,,,,,,,102921,0,2,1,2,1,1,1,0,20,2021_Oct_29_1449,listening_fmri,3.2.4,60.27956783469474,
,3,,,,,,,,,,0,0,0,0,0,3,3,3,,,,,,,,,,,,,,,,,,,,,,,,,,,,,,,,,,,,,,,,,,,,,,,,,,,,,,,,,,,,,,,,,,,,,,,,,,,,,,,,,,,,,,,,,,,,,,,,,,,,,,,,,,,,,,,,,,,,,,,,,,,,,,,,,,,,,,,,,,,,,,,,,,,,,,,,,,,,,,,,,,,,,,,,,,,,,,,,,,,,,,,,,,,,102921,0,2,1,2,1,1,1,0,20,2021_Oct_29_1449,listening_fmri,3.2.4,60.27956783469474,
,4,,,,,,,,,,0,0,0,0,0,4,4,4,0,0,0,0,0,0,0,0,,,,,,,,,,,,,,,,,0,0,0,0,,,,,,,,,,,,,,,,,,,,,,,,,,,,,,,,,,,,,,,,,,,,,,,,,,,,,,,,,,,,,,,,,,,,,,,,,,,,,,,,,,,,,,,,706.6840565309999,None,2,1.1215253919999668,706.6840565309999,None,706.6840565309999,None,706.6840565309999,None,,,,,,,,,,,,,,,707.834344242,None,2,1.2851343510001243,707.834344242,None,707.834344242,None,709.1677018959999,None,709.1677018959999,None,709.1677018959999,None,2,4.102927009000268,709.1677018959999,None,713.3010344889999,None,2,1.5235658130000047,713.3010344889999,None,713.3010344889999,None,714.9339718719998,None,714.9339718719998,None,714.9339718719998,None,714.9339718719998,None,714.9339718719998,None,714.9339718719998,None,714.9339718719998,None,,,,,,,,,102921,0,2,1,2,1,1,1,0,20,2021_Oct_29_1449,listening_fmri,3.2.4,60.27956783469474,
,4,,,,,,,,,,0,0,0,0,0,4,4,4,0,0,0,0,0,0,0,0,,,,,,,,,,,,,,,,,1,0,1,0,,,,,,,,,,,,,,,,,,,,,,,,,,,,,,,,,,,,,,,,,,,,,,,,,,,,,,,,,,,,,,,,,,,,,,,,,,,,,,,,,,,,,,,,,,,,,,,,,,,,,,,,,,,,,,,,,,,,,,,,748.0013655899998,None,748.0013655899998,None,748.0013655899998,None,1,1.8132499119997192,748.0013655899998,None,749.834750084,None,1,0.7118372019999697,749.834750084,None,749.834750084,None,750.6368289259999,None,750.6368289259999,None,750.6368289259999,None,750.6368289259999,None,750.6368289259999,None,750.6368289259999,None,750.6368289259999,None,,,,,,,,,102921,0,2,1,2,1,1,1,0,20,2021_Oct_29_1449,listening_fmri,3.2.4,60.27956783469474,
,4,,,,,,,,,,0,0,0,0,0,4,4,4,0,0,0,0,0,0,0,0,,,,,,,,,,,,,,,,,,,,,,,,,,,,,,,,,,,,,,,,,,,,,,,,,,,,,,,,,,,,,,,,,,,,,,,,,,,,,,,,,,,,,,,,,,,,,,,,,,,,,,,,,,,,,,,,,,,,,,,,,,,,,,,,,,,,,,,,,,,,811.600792399,None,811.600792399,None,811.600792399,None,2,3.1106852059997436,811.600792399,None,,,,,,,,,,,,,,,,,,,,,,,808.251481713,None,2,3.3080459699999665,808.251481713,None,808.251481713,None,102921,0,2,1,2,1,1,1,0,20,2021_Oct_29_1449,listening_fmri,3.2.4,60.27956783469474,
,4,parcelated_audio/42/42_1.ogg,,,,,,,,,0,0,0,0,0,4,4,4,0,0,0,0,,,,,,,,,0,0,0,0,0,0,0,0,,,,,,,,,,,,,,,,,,,,,,,,,,,,,,,,,,,,,,,,,,,,,,,,,,,,,,,,,,,,,,,,,,,,,,,,,,,,,,,,,,,,,,,,,,,,,,,,,,,,,,,,,,814.734035514,None,2,3.5725678710000466,814.734035514,None,629.1976856349997,632.2056754539999,632.214360637,640.5946965849998,,,,,,,,,,,,,,,,,,,,,,,,,,,,,,,,,,,,,,,,,,,,,,,,,,,,,102921,0,2,1,2,1,1,1,0,20,2021_Oct_29_1449,listening_fmri,3.2.4,60.27956783469474,
,4,parcelated_audio/42/42_2.ogg,,,,,,,,,0,0,0,0,0,4,4,4,0,0,0,0,,,,,,,,,0,0,0,0,0,1,1,1,,,,,,,,,,,,,,,,,,,,,,,,,,,,,,,,,,,,,,,,,,,,,,,,,,,,,,,,,,,,,,,,,,,,,,,,,,,,,,,,,,,,,,,,,,,,,,,,,,,,,,,,,,,,,,,,,,640.5951407059997,653.3168800409999,,,,,,,,,,,,,,,,,,,,,,,,,,,,,,,,,,,,,,,,,,,,,,,,,,,,,102921,0,2,1,2,1,1,1,0,20,2021_Oct_29_1449,listening_fmri,3.2.4,60.27956783469474,
,4,parcelated_audio/42/42_3.ogg,,,,,,,,,0,0,0,0,0,4,4,4,0,0,0,0,,,,,,,,,0,0,0,0,0,2,2,2,,,,,,,,,,,,,,,,,,,,,,,,,,,,,,,,,,,,,,,,,,,,,,,,,,,,,,,,,,,,,,,,,,,,,,,,,,,,,,,,,,,,,,,,,,,,,,,,,,,,,,,,,,,,,,,,,,653.317742879,663.719061239,,,,,,,,,,,,,,,,,,,,,,,,,,,,,,,,,,,,,,,,,,,,,,,,,,,,,102921,0,2,1,2,1,1,1,0,20,2021_Oct_29_1449,listening_fmri,3.2.4,60.27956783469474,
,4,parcelated_audio/42/42_4.ogg,,,,,,,,,0,0,0,0,0,4,4,4,0,0,0,0,,,,,,,,,0,0,0,0,0,3,3,3,,,,,,,,,,,,,,,,,,,,,,,,,,,,,,,,,,,,,,,,,,,,,,,,,,,,,,,,,,,,,,,,,,,,,,,,,,,,,,,,,,,,,,,,,,,,,,,,,,,,,,,,,,,,,,,,,,663.719335241,677.419985604,,,,,,,,,,,,,,,,,,,,,,,,,,,,,,,,,,,,,,,,,,,,,,,,,,,,,102921,0,2,1,2,1,1,1,0,20,2021_Oct_29_1449,listening_fmri,3.2.4,60.27956783469474,
,4,parcelated_audio/42/42_5.ogg,,,,,,,,,0,0,0,0,0,4,4,4,0,0,0,0,,,,,,,,,0,0,0,0,0,4,4,4,,,,,,,,,,,,,,,,,,,,,,,,,,,,,,,,,,,,,,,,,,,,,,,,,,,,,,,,,,,,,,,,,,,,,,,,,,,,,,,,,,,,,,,,,,,,,,,,,,,,,,,,,,,,,,,,,,677.4203714699997,688.8603353199996,,,,,,,,,,,,,,,,,,,,,,,,,,,,,,,,,,,,,,,,,,,,,,,,,,,,,102921,0,2,1,2,1,1,1,0,20,2021_Oct_29_1449,listening_fmri,3.2.4,60.27956783469474,
,4,parcelated_audio/42/42_6.ogg,,,,,,,,,0,0,0,0,0,4,4,4,0,0,0,0,,,,,,,,,0,0,0,0,0,5,5,5,,,,,,,,,,,,,,,,,,,,,,,,,,,,,,,,,,,,,,,,,,,,,,,,,,,,,,,,,,,,,,,,,,,,,,,,,,,,,,,,,,,,,,,,,,,,,,,,,,,,,,,,,,,,,,,,,,688.8606182229996,695.3448172999997,,,,,,,,,,,,,,,,,,,,,,,,,,,,,,,,,,,,,,,,,,,,,,,,,,,,,102921,0,2,1,2,1,1,1,0,20,2021_Oct_29_1449,listening_fmri,3.2.4,60.27956783469474,
,4,parcelated_audio/42/42_7.ogg,,,,,,,,,0,0,0,0,0,4,4,4,0,0,0,0,,,,,,,,,0,0,0,0,0,6,6,6,,,,,,,,,,,,,,,,,,,,,,,,,,,,,,,,,,,,,,,,,,,,,,,,,,,,,,,,,,,,,,,,,,,,,,,,,,,,,,,,,,,,,,,,,,,,,,,,,,,,,,,,,,,,,,,,,,695.3451690809998,700.5396980629998,,,,,,,,,,,,,,,,,,,,,,,,,,,,,,,,,,,,,,,,,,,,,,,,,,,,,102921,0,2,1,2,1,1,1,0,20,2021_Oct_29_1449,listening_fmri,3.2.4,60.27956783469474,
,4,parcelated_audio/42/42_8.ogg,,,,,,,,,0,0,0,0,0,4,4,4,0,0,0,0,,,,,,,,,0,0,0,0,0,7,7,7,,,,,,,,,,,,,,,,,,,,,,,,,,,,,,,,,,,,,,,,,,,,,,,,,,,,,,,,,,,,,,,,,,,,,,,,,,,,,,,,,,,,,,,,,,,,,,,,,,,,,,,,,,,,,,,,,,700.539973892,703.7079305419998,,,,,,,,,,,,,,,,,,,,,,,,,,,,,,,,,,,,,,,,,,,,,,,,,,,,,102921,0,2,1,2,1,1,1,0,20,2021_Oct_29_1449,listening_fmri,3.2.4,60.27956783469474,
,4,parcelated_audio/42/42_9.ogg,,,,,,,,,0,0,0,0,0,4,4,4,0,0,0,0,,,,,,,,,0,0,0,0,0,8,8,8,,,,,,,,,,,,,,,,,,,,,,,,,,,,,,,,,,,,,,,,,,,,,,,,,,,,,,,,,,,,,,,,,,,,,,,,,,,,,,,,,,,,,,,,,,,,,,,,,,,,,,,,,,,,,,,,,,703.7082312279999,712.2556325229998,,,,,,,,,,,,,,,,,,,,,,,,,,,,,,,,,,,,,,,,,,,,,,,,,,,,,102921,0,2,1,2,1,1,1,0,20,2021_Oct_29_1449,listening_fmri,3.2.4,60.27956783469474,
,4,parcelated_audio/42/42_10.ogg,,,,,,,,,0,0,0,0,0,4,4,4,0,0,0,0,,,,,,,,,0,0,0,0,0,9,9,9,,,,,,,,,,,,,,,,,,,,,,,,,,,,,,,,,,,,,,,,,,,,,,,,,,,,,,,,,,,,,,,,,,,,,,,,,,,,,,,,,,,,,,,,,,,,,,,,,,,,,,,,,,,,,,,,,,712.2560438619998,716.5919491919999,,,,,,,,,,,,,,,,,,,,,,,,,,,,,,,,,,,,,,,,,,,,,,,,,,,,,102921,0,2,1,2,1,1,1,0,20,2021_Oct_29_1449,listening_fmri,3.2.4,60.27956783469474,
,4,parcelated_audio/42/42_11.ogg,,,,,,,,,0,0,0,0,0,4,4,4,0,0,0,0,,,,,,,,,0,0,0,0,0,10,10,10,,,,,,,,,,,,,,,,,,,,,,,,,,,,,,,,,,,,,,,,,,,,,,,,,,,,,,,,,,,,,,,,,,,,,,,,,,,,,,,,,,,,,,,,,,,,,,,,,,,,,,,,,,,,,,,,,,716.592237978,721.5759426089999,,,,,,,,,,,,,,,,,,,,,,,,,,,,,,,,,,,,,,,,,,,,,,,,,,,,,102921,0,2,1,2,1,1,1,0,20,2021_Oct_29_1449,listening_fmri,3.2.4,60.27956783469474,
,4,parcelated_audio/42/42_12.ogg,,,,,,,,,0,0,0,0,0,4,4,4,0,0,0,0,,,,,,,,,0,0,0,0,0,11,11,11,,,,,,,,,,,,,,,,,,,,,,,,,,,,,,,,,,,,,,,,,,,,,,,,,,,,,,,,,,,,,,,,,,,,,,,,,,,,,,,,,,,,,,,,,,,,,,,,,,,,,,,,,,,,,,,,,,721.5762219359999,727.5358072649997,,,,,,,,,,,,,,,,,,,,,,,,,,,,,,,,,,,,,,,,,,,,,,,,,,,,,102921,0,2,1,2,1,1,1,0,20,2021_Oct_29_1449,listening_fmri,3.2.4,60.27956783469474,
,4,parcelated_audio/42/42_13.ogg,,,,,,,,,0,0,0,0,0,4,4,4,0,0,0,0,,,,,,,,,0,0,0,0,0,12,12,12,,,,,,,,,,,,,,,,,,,,,,,,,,,,,,,,,,,,,,,,,,,,,,,,,,,,,,,,,,,,,,,,,,,,,,,,,,,,,,,,,,,,,,,,,,,,,,,,,,,,,,,,,,,,,,,,,,727.5362786169999,734.6827957339997,,,,,,,,,,,,,,,,,,,,,,,,,,,,,,,,,,,,,,,,,,,,,,,,,,,,,102921,0,2,1,2,1,1,1,0,20,2021_Oct_29_1449,listening_fmri,3.2.4,60.27956783469474,
,4,parcelated_audio/42/42_14.ogg,,,,,,,,,0,0,0,0,0,4,4,4,0,0,0,0,,,,,,,,,0,0,0,0,0,13,13,13,,,,,,,,,,,,,,,,,,,,,,,,,,,,,,,,,,,,,,,,,,,,,,,,,,,,,,,,,,,,,,,,,,,,,,,,,,,,,,,,,,,,,,,,,,,,,,,,,,,,,,,,,,,,,,,,,,734.6830758859996,739.3978161659998,,,,,,,,,,,,,,,,,,,,,,,,,,,,,,,,,,,,,,,,,,,,,,,,,,,,,102921,0,2,1,2,1,1,1,0,20,2021_Oct_29_1449,listening_fmri,3.2.4,60.27956783469474,
,4,parcelated_audio/42/42_15.ogg,,,,,,,,,0,0,0,0,0,4,4,4,0,0,0,0,,,,,,,,,0,0,0,0,0,14,14,14,,,,,,,,,,,,,,,,,,,,,,,,,,,,,,,,,,,,,,,,,,,,,,,,,,,,,,,,,,,,,,,,,,,,,,,,,,,,,,,,,,,,,,,,,,,,,,,,,,,,,,,,,,,,,,,,,,739.3986584549998,745.2458123209999,,,,,,,,,,,,,,,,,,,,,,,,,,,,,,,,,,,,,,,,,,,,,,,,,,,,,102921,0,2,1,2,1,1,1,0,20,2021_Oct_29_1449,listening_fmri,3.2.4,60.27956783469474,
,4,parcelated_audio/42/42_16.ogg,,,,,,,,,0,0,0,0,0,4,4,4,0,0,0,0,,,,,,,,,0,0,0,0,0,15,15,15,,,,,,,,,,,,,,,,,,,,,,,,,,,,,,,,,,,,,,,,,,,,,,,,,,,,,,,,,,,,,,,,,,,,,,,,,,,,,,,,,,,,,,,,,,,,,,,,,,,,,,,,,,,,,,,,,,745.246184959,750.8071617989999,,,,,,,,,,,,,,,,,,,,,,,,,,,,,,,,,,,,,,,,,,,,,,,,,,,,,102921,0,2,1,2,1,1,1,0,20,2021_Oct_29_1449,listening_fmri,3.2.4,60.27956783469474,
