instructText,count,trials_5.thisRepN,trials_5.thisTrialN,trials_5.thisN,trials_5.thisIndex,trials_6.thisRepN,trials_6.thisTrialN,trials_6.thisN,trials_6.thisIndex,trials.thisRepN,trials.thisTrialN,trials.thisN,trials.thisIndex,trials_8.thisRepN,trials_8.thisTrialN,trials_8.thisN,trials_8.thisIndex,story_list_block1,action_list_block1,story_list_block2,action_list_block2,key_resp_3.keys,key_resp_3.rt,key_resp_3.started,key_resp_3.stopped,text_13.started,text_13.stopped,text_23.started,text_23.stopped,text_43.started,text_43.stopped,key_resp_11.keys,key_resp_11.rt,key_resp_11.started,key_resp_11.stopped,text_44.started,text_44.stopped,text_53.started,text_53.stopped,image_10.started,image_10.stopped,text_22.started,text_22.stopped,recall,question1_answer,order of question,text_14.started,text_14.stopped,text_15.started,text_15.stopped,image_6.started,image_6.stopped,polygon_3.started,polygon_3.stopped,bottom_line_3.started,bottom_line_3.stopped,right_line_3.started,right_line_3.stopped,left_line_3.started,left_line_3.stopped,question2_answer,text_16.started,text_16.stopped,text_17.started,text_17.stopped,image_7.started,image_7.stopped,polygon_4.started,polygon_4.stopped,bottom_line_4.started,bottom_line_4.stopped,right_line_4.started,right_line_4.stopped,left_line_4.started,left_line_4.stopped,question3_answer,text_18.started,text_18.stopped,text_19.started,text_19.stopped,image_8.started,image_8.stopped,polygon_5.started,polygon_5.stopped,bottom_line_5.started,bottom_line_5.stopped,right_line_5.started,right_line_5.stopped,left_line_5.started,left_line_5.stopped,question4_answer,text_20.started,text_20.stopped,text_21.started,text_21.stopped,image_9.started,image_9.stopped,polygon_6.started,polygon_6.stopped,bottom_line_6.started,bottom_line_6.stopped,right_line_6.started,right_line_6.stopped,left_line_6.started,left_line_6.stopped,question5_answer,text_25.started,text_25.stopped,text_26.started,text_26.stopped,image_11.started,image_11.stopped,polygon_7.started,polygon_7.stopped,bottom_line_7.started,bottom_line_7.stopped,right_line_7.started,right_line_7.stopped,left_line_7.started,left_line_7.stopped,question6_answer,text_27.started,text_27.stopped,text_28.started,text_28.stopped,image_12.started,image_12.stopped,polygon_8.started,polygon_8.stopped,bottom_line_8.started,bottom_line_8.stopped,right_line_8.started,right_line_8.stopped,left_line_8.started,left_line_8.stopped,question7_answer,text_29.started,text_29.stopped,text_30.started,text_30.stopped,image_13.started,image_13.stopped,polygon_9.started,polygon_9.stopped,bottom_line_9.started,bottom_line_9.stopped,right_line_9.started,right_line_9.stopped,left_line_9.started,left_line_9.stopped,question8_answer,text_31.started,text_31.stopped,text_32.started,text_32.stopped,image_14.started,image_14.stopped,polygon_10.started,polygon_10.stopped,bottom_line_10.started,bottom_line_10.stopped,right_line_10.started,right_line_10.stopped,left_line_10.started,left_line_10.stopped,text_36.started,text_36.stopped,participant,sA,sB,lA,lB,block_struct,random_seed,date,expName,psychopyVersion,frameRate,
"In the final part of the experiment, please answer 8 questions about each story.",,0,0,0,0,,,,,,,,,,,,,[33 44 11 13 42 31 22 24],[3 4 1 3 2 1 2 4],[21 43 23 34 41 32 12 14],[4 2 2 1 4 3 3 1],space,10.434524366000915,6.8590727360005985,None,6.8590727360005985,None,6.8590727360005985,None,,,,,,,,,,,,,,,,,,,,,,,,,,,,,,,,,,,,,,,,,,,,,,,,,,,,,,,,,,,,,,,,,,,,,,,,,,,,,,,,,,,,,,,,,,,,,,,,,,,,,,,,,,,,,,,,,,,,,,,,,,,,,,,,,,,,,,,,,,,102921,0,2,1,2,1,20,2021_Oct_29_1631,short_answer,3.2.4,60.06830006026949,
"We did not tell you to think of all or some of these questions during the story, but please do your best to answer them.",,0,1,1,1,,,,,,,,,,,,,,,,,space,4.9120680800006085,17.341696383000453,None,17.341696383000453,None,17.341696383000453,None,,,,,,,,,,,,,,,,,,,,,,,,,,,,,,,,,,,,,,,,,,,,,,,,,,,,,,,,,,,,,,,,,,,,,,,,,,,,,,,,,,,,,,,,,,,,,,,,,,,,,,,,,,,,,,,,,,,,,,,,,,,,,,,,,,,,,,,,,,,102921,0,2,1,2,1,20,2021_Oct_29_1631,short_answer,3.2.4,60.06830006026949,
"Answer as much as you remember, and be specific and concrete in your answers. It is best to try to be as faithful as possible to what the story actually said.
",,0,2,2,2,,,,,,,,,,,,,,,,,space,7.527514224999322,22.292529595000815,None,22.292529595000815,None,22.292529595000815,None,,,,,,,,,,,,,,,,,,,,,,,,,,,,,,,,,,,,,,,,,,,,,,,,,,,,,,,,,,,,,,,,,,,,,,,,,,,,,,,,,,,,,,,,,,,,,,,,,,,,,,,,,,,,,,,,,,,,,,,,,,,,,,,,,,,,,,,,,,,102921,0,2,1,2,1,20,2021_Oct_29_1631,short_answer,3.2.4,60.06830006026949,
"When you have finished typing your answer, hit ‘return’ to submit your answer and move onto the next question. ",,0,3,3,3,,,,,,,,,,,,,,,,,space,6.155933402000301,29.859926901999643,None,29.859926901999643,None,29.859926901999643,None,,,,,,,,,,,,,,,,,,,,,,,,,,,,,,,,,,,,,,,,,,,,,,,,,,,,,,,,,,,,,,,,,,,,,,,,,,,,,,,,,,,,,,,,,,,,,,,,,,,,,,,,,,,,,,,,,,,,,,,,,,,,,,,,,,,,,,,,,,,102921,0,2,1,2,1,20,2021_Oct_29_1631,short_answer,3.2.4,60.06830006026949,
,0,,,,,0,0,0,0,,,,,,,,,,,,,,,,,,,,,,,,,,,,,,,,,,,,,,,,,,,,,,,,,,,,,,,,,,,,,,,,,,,,,,,,,,,,,,,,,,,,,,,,,,,,,,,,,,,,,,,,,,,,,,,,,,,,,,,,,,,,,,,,,,,,,,,,,,,,,,,,,,,,,,,,,,,,,,,102921,0,2,1,2,1,20,2021_Oct_29_1631,short_answer,3.2.4,60.06830006026949,
,1,,,,,0,1,1,1,0,0,0,0,,,,,,,,,,,,,,,,,36.05877950200011,None,space,29.837058149001678,36.05877950200011,None,36.05877950200011,None,36.05877950200011,None,65.99332646000039,None,65.99332646000039,None,Paper on mummifcation ,Book,"[1, 2]",69.95927626400044,None,69.95927626400044,None,69.95927626400044,None,69.95927626400044,None,69.95927626400044,None,69.95927626400044,None,69.95927626400044,None,Are you from la,103.209416134001,None,103.209416134001,None,103.209416134001,None,103.209416134001,None,103.209416134001,None,103.209416134001,None,103.209416134001,None,For a walk at 8pm,147.3588519820005,None,147.3588519820005,None,147.3588519820005,None,147.3588519820005,None,147.3588519820005,None,147.3588519820005,None,147.3588519820005,None,Noon,155.95847469399996,None,155.95847469399996,None,155.95847469399996,None,155.95847469399996,None,155.95847469399996,None,155.95847469399996,None,155.95847469399996,None,,161.40817095700004,None,161.40817095700004,None,161.40817095700004,None,161.40817095700004,None,161.40817095700004,None,161.40817095700004,None,161.40817095700004,None,History of egypt - mummifcation,173.57428856300066,None,173.57428856300066,None,173.57428856300066,None,173.57428856300066,None,173.57428856300066,None,173.57428856300066,None,173.57428856300066,None,Funerals in egypt/mummies,182.55782046400054,None,182.55782046400054,None,182.55782046400054,None,182.55782046400054,None,182.55782046400054,None,182.55782046400054,None,182.55782046400054,None,Paper on mummifcation ,203.5572845280003,None,203.5572845280003,None,203.5572845280003,None,203.5572845280003,None,203.5572845280003,None,203.5572845280003,None,203.5572845280003,None,,,102921,0,2,1,2,1,20,2021_Oct_29_1631,short_answer,3.2.4,60.06830006026949,
,1,,,,,0,1,1,1,,,,,,,,,,,,,,,,,,,,,,,,,,,,,,,,,,,,,,,,,,,,,,,,,,,,,,,,,,,,,,,,,,,,,,,,,,,,,,,,,,,,,,,,,,,,,,,,,,,,,,,,,,,,,,,,,,,,,,,,,,,,,,,,,,,,,,,,,,,,,,,,,,,,,,,,,,,,,,,102921,0,2,1,2,1,20,2021_Oct_29_1631,short_answer,3.2.4,60.06830006026949,
,2,,,,,0,2,2,2,0,0,0,0,,,,,,,,,,,,,,,,,218.37336863400014,None,space,2.2381195460002345,218.37336863400014,None,218.37336863400014,None,218.37336863400014,None,220.6735824949992,None,220.6735824949992,None,It's subpar,A few weeks,"[1, 2]",222.07517232300052,None,222.07517232300052,None,222.07517232300052,None,222.07517232300052,None,222.07517232300052,None,222.07517232300052,None,222.07517232300052,None,Work and career change,228.35722272299972,None,228.35722272299972,None,228.35722272299972,None,228.35722272299972,None,228.35722272299972,None,228.35722272299972,None,228.35722272299972,None,"No, they want to work it out because she thinks they are good together",236.4078776690003,None,236.4078776690003,None,236.4078776690003,None,236.4078776690003,None,236.4078776690003,None,236.4078776690003,None,236.4078776690003,None,Sadie,253.70685091800078,None,253.70685091800078,None,253.70685091800078,None,253.70685091800078,None,253.70685091800078,None,253.70685091800078,None,253.70685091800078,None,,256.1235059640003,None,256.1235059640003,None,256.1235059640003,None,256.1235059640003,None,256.1235059640003,None,256.1235059640003,None,256.1235059640003,None,They have a lot of food items on it,267.62257144999967,None,267.62257144999967,None,267.62257144999967,None,267.62257144999967,None,267.62257144999967,None,267.62257144999967,None,267.62257144999967,None,Thomas orders a hamburger ,282.6564095550002,None,282.6564095550002,None,282.6564095550002,None,282.6564095550002,None,282.6564095550002,None,282.6564095550002,None,282.6564095550002,None,It's subpar,294.0399936199992,None,294.0399936199992,None,294.0399936199992,None,294.0399936199992,None,294.0399936199992,None,294.0399936199992,None,294.0399936199992,None,,,102921,0,2,1,2,1,20,2021_Oct_29_1631,short_answer,3.2.4,60.06830006026949,
,2,,,,,0,2,2,2,,,,,,,,,,,,,,,,,,,,,,,,,,,,,,,,,,,,,,,,,,,,,,,,,,,,,,,,,,,,,,,,,,,,,,,,,,,,,,,,,,,,,,,,,,,,,,,,,,,,,,,,,,,,,,,,,,,,,,,,,,,,,,,,,,,,,,,,,,,,,,,,,,,,,,,,,,,,,,,102921,0,2,1,2,1,20,2021_Oct_29_1631,short_answer,3.2.4,60.06830006026949,
,3,,,,,0,3,3,3,,,,,,,,,,,,,,,,,,,,,,,,,,,,,,,,,,,,,,,,,,,,,,,,,,,,,,,,,,,,,,,,,,,,,,,,,,,,,,,,,,,,,,,,,,,,,,,,,,,,,,,,,,,,,,,,,,,,,,,,,,,,,,,,,,,,,,,,,,,,,,,,,,,,,,,,,,,,,,,102921,0,2,1,2,1,20,2021_Oct_29_1631,short_answer,3.2.4,60.06830006026949,
,4,,,,,0,4,4,4,0,0,0,0,,,,,,,,,,,,,,,,,302.8392175330009,None,space,0.9235170039992227,302.8392175330009,None,302.8392175330009,None,302.8392175330009,None,303.80618316800064,None,303.80618316800064,None,,,"[2, 1]",304.7557196630005,None,304.7557196630005,None,304.7557196630005,None,304.7557196630005,None,304.7557196630005,None,304.7557196630005,None,304.7557196630005,None,The metal detector went off ,315.6406915490006,None,315.6406915490006,None,315.6406915490006,None,315.6406915490006,None,315.6406915490006,None,315.6406915490006,None,315.6406915490006,None,Gate 2 ,329.40577493899946,None,329.40577493899946,None,329.40577493899946,None,329.40577493899946,None,329.40577493899946,None,329.40577493899946,None,329.40577493899946,None,Anna sits in 7b by the window in business class,337.5736049419993,None,337.5736049419993,None,337.5736049419993,None,337.5736049419993,None,337.5736049419993,None,337.5736049419993,None,337.5736049419993,None,,365.10592962900046,None,365.10592962900046,None,365.10592962900046,None,365.10592962900046,None,365.10592962900046,None,365.10592962900046,None,365.10592962900046,None,,372.70627136499934,None,372.70627136499934,None,372.70627136499934,None,372.70627136499934,None,372.70627136499934,None,372.70627136499934,None,372.70627136499934,None,Tuesday for dinner after they get back from their trips,384.7232582630004,None,384.7232582630004,None,384.7232582630004,None,384.7232582630004,None,384.7232582630004,None,384.7232582630004,None,384.7232582630004,None,,398.28806735000035,None,398.28806735000035,None,398.28806735000035,None,398.28806735000035,None,398.28806735000035,None,398.28806735000035,None,398.28806735000035,None,,,102921,0,2,1,2,1,20,2021_Oct_29_1631,short_answer,3.2.4,60.06830006026949,
,4,,,,,0,4,4,4,,,,,,,,,,,,,,,,,,,,,,,,,,,,,,,,,,,,,,,,,,,,,,,,,,,,,,,,,,,,,,,,,,,,,,,,,,,,,,,,,,,,,,,,,,,,,,,,,,,,,,,,,,,,,,,,,,,,,,,,,,,,,,,,,,,,,,,,,,,,,,,,,,,,,,,,,,,,,,,102921,0,2,1,2,1,20,2021_Oct_29_1631,short_answer,3.2.4,60.06830006026949,
,5,,,,,0,5,5,5,0,0,0,0,,,,,,,,,,,,,,,,,401.70469046700055,None,space,0.8296914889997424,401.70469046700055,None,401.70469046700055,None,401.70469046700055,None,402.57217802800005,None,402.57217802800005,None,Not great,,"[1, 2]",403.539032441,None,403.539032441,None,403.539032441,None,403.539032441,None,403.539032441,None,403.539032441,None,403.539032441,None,600 million,422.1209669910004,None,422.1209669910004,None,422.1209669910004,None,422.1209669910004,None,422.1209669910004,None,422.1209669910004,None,422.1209669910004,None,,429.7054635349996,None,429.7054635349996,None,429.7054635349996,None,429.7054635349996,None,429.7054635349996,None,429.7054635349996,None,429.7054635349996,None,They will merge companies,433.27173715000026,None,433.27173715000026,None,433.27173715000026,None,433.27173715000026,None,433.27173715000026,None,433.27173715000026,None,433.27173715000026,None,Orantely ,441.187231291,None,441.187231291,None,441.187231291,None,441.187231291,None,441.187231291,None,441.187231291,None,441.187231291,None,,446.5039933429998,None,446.5039933429998,None,446.5039933429998,None,446.5039933429998,None,446.5039933429998,None,446.5039933429998,None,446.5039933429998,None,Martinis,452.6872653400005,None,452.6872653400005,None,452.6872653400005,None,452.6872653400005,None,452.6872653400005,None,452.6872653400005,None,452.6872653400005,None,Not great,482.237590404,None,482.237590404,None,482.237590404,None,482.237590404,None,482.237590404,None,482.237590404,None,482.237590404,None,,,102921,0,2,1,2,1,20,2021_Oct_29_1631,short_answer,3.2.4,60.06830006026949,
,5,,,,,0,5,5,5,,,,,,,,,,,,,,,,,,,,,,,,,,,,,,,,,,,,,,,,,,,,,,,,,,,,,,,,,,,,,,,,,,,,,,,,,,,,,,,,,,,,,,,,,,,,,,,,,,,,,,,,,,,,,,,,,,,,,,,,,,,,,,,,,,,,,,,,,,,,,,,,,,,,,,,,,,,,,,,102921,0,2,1,2,1,20,2021_Oct_29_1631,short_answer,3.2.4,60.06830006026949,
,6,,,,,0,6,6,6,0,0,0,0,,,,,,,,,,,,,,,,,486.9369930499997,None,space,0.8675627470001928,486.9369930499997,None,486.9369930499997,None,486.9369930499997,None,487.85414705900075,None,487.85414705900075,None,,5 years ,"[1, 2]",488.82054069600053,None,488.82054069600053,None,488.82054069600053,None,488.82054069600053,None,488.82054069600053,None,488.82054069600053,None,488.82054069600053,None,3,492.68748359500023,None,492.68748359500023,None,492.68748359500023,None,492.68748359500023,None,492.68748359500023,None,492.68748359500023,None,492.68748359500023,None,Cash register,496.90374788900044,None,496.90374788900044,None,496.90374788900044,None,496.90374788900044,None,496.90374788900044,None,496.90374788900044,None,496.90374788900044,None,Her dad,510.7875831960009,None,510.7875831960009,None,510.7875831960009,None,510.7875831960009,None,510.7875831960009,None,510.7875831960009,None,510.7875831960009,None,,516.9383488710009,None,516.9383488710009,None,516.9383488710009,None,516.9383488710009,None,516.9383488710009,None,516.9383488710009,None,516.9383488710009,None,,521.0715536520001,None,521.0715536520001,None,521.0715536520001,None,521.0715536520001,None,521.0715536520001,None,521.0715536520001,None,521.0715536520001,None,,540.5365077980005,None,540.5365077980005,None,540.5365077980005,None,540.5365077980005,None,540.5365077980005,None,540.5365077980005,None,540.5365077980005,None,,542.1030529500003,None,542.1030529500003,None,542.1030529500003,None,542.1030529500003,None,542.1030529500003,None,542.1030529500003,None,542.1030529500003,None,,,102921,0,2,1,2,1,20,2021_Oct_29_1631,short_answer,3.2.4,60.06830006026949,
,6,,,,,0,6,6,6,,,,,,,,,,,,,,,,,,,,,,,,,,,,,,,,,,,,,,,,,,,,,,,,,,,,,,,,,,,,,,,,,,,,,,,,,,,,,,,,,,,,,,,,,,,,,,,,,,,,,,,,,,,,,,,,,,,,,,,,,,,,,,,,,,,,,,,,,,,,,,,,,,,,,,,,,,,,,,,102921,0,2,1,2,1,20,2021_Oct_29_1631,short_answer,3.2.4,60.06830006026949,
,7,,,,,0,7,7,7,0,0,0,0,,,,,,,,,,,,,,,,,544.7871222199992,None,space,0.7266457080004329,544.7871222199992,None,544.7871222199992,None,544.7871222199992,None,545.5536535629999,None,545.5536535629999,None,There's a midterm next tuesday,A few years ,"[1, 2]",546.8530638480006,None,546.8530638480006,None,546.8530638480006,None,546.8530638480006,None,546.8530638480006,None,546.8530638480006,None,546.8530638480006,None,,554.7030013799995,None,554.7030013799995,None,554.7030013799995,None,554.7030013799995,None,554.7030013799995,None,554.7030013799995,None,554.7030013799995,None,,557.0199409809993,None,557.0199409809993,None,557.0199409809993,None,557.0199409809993,None,557.0199409809993,None,557.0199409809993,None,557.0199409809993,None,Family,562.2369243659996,None,562.2369243659996,None,562.2369243659996,None,562.2369243659996,None,562.2369243659996,None,562.2369243659996,None,562.2369243659996,None,,567.6530614589992,None,567.6530614589992,None,567.6530614589992,None,567.6530614589992,None,567.6530614589992,None,567.6530614589992,None,567.6530614589992,None,Organic chemistry ,569.1534043339998,None,569.1534043339998,None,569.1534043339998,None,569.1534043339998,None,569.1534043339998,None,569.1534043339998,None,569.1534043339998,None,,579.3702285420004,None,579.3702285420004,None,579.3702285420004,None,579.3702285420004,None,579.3702285420004,None,579.3702285420004,None,579.3702285420004,None,There's a midterm next tuesday,587.3701651049996,None,587.3701651049996,None,587.3701651049996,None,587.3701651049996,None,587.3701651049996,None,587.3701651049996,None,587.3701651049996,None,,,102921,0,2,1,2,1,20,2021_Oct_29_1631,short_answer,3.2.4,60.06830006026949,
,7,,,,,0,7,7,7,,,,,,,,,,,,,,,,,,,,,,,,,,,,,,,,,,,,,,,,,,,,,,,,,,,,,,,,,,,,,,,,,,,,,,,,,,,,,,,,,,,,,,,,,,,,,,,,,,,,,,,,,,,,,,,,,,,,,,,,,,,,,,,,,,,,,,,,,,,,,,,,,,,,,,,,,,,,,,,102921,0,2,1,2,1,20,2021_Oct_29_1631,short_answer,3.2.4,60.06830006026949,
,8,,,,,0,8,8,8,0,0,0,0,,,,,,,,,,,,,,,,,597.6855876499994,None,space,0.7826235840002482,597.6855876499994,None,597.6855876499994,None,597.6855876499994,None,598.5029798100004,None,598.5029798100004,None,, ,"[1, 2]",600.3531237320003,None,600.3531237320003,None,600.3531237320003,None,600.3531237320003,None,600.3531237320003,None,600.3531237320003,None,600.3531237320003,None,,606.0361208110007,None,606.0361208110007,None,606.0361208110007,None,606.0361208110007,None,606.0361208110007,None,606.0361208110007,None,606.0361208110007,None,,608.6523730339995,None,608.6523730339995,None,608.6523730339995,None,608.6523730339995,None,608.6523730339995,None,608.6523730339995,None,608.6523730339995,None,Her brother ,622.002798765001,None,622.002798765001,None,622.002798765001,None,622.002798765001,None,622.002798765001,None,622.002798765001,None,622.002798765001,None,Ornately ,625.8693294650002,None,625.8693294650002,None,625.8693294650002,None,625.8693294650002,None,625.8693294650002,None,625.8693294650002,None,625.8693294650002,None,,628.2031049929992,None,628.2031049929992,None,628.2031049929992,None,628.2031049929992,None,628.2031049929992,None,628.2031049929992,None,628.2031049929992,None,,629.8516651919999,None,629.8516651919999,None,629.8516651919999,None,629.8516651919999,None,629.8516651919999,None,629.8516651919999,None,629.8516651919999,None,,632.3525356810005,None,632.3525356810005,None,632.3525356810005,None,632.3525356810005,None,632.3525356810005,None,632.3525356810005,None,632.3525356810005,None,,,102921,0,2,1,2,1,20,2021_Oct_29_1631,short_answer,3.2.4,60.06830006026949,
,8,,,,,0,8,8,8,,,,,,,,,,,,,,,,,,,,,,,,,,,,,,,,,,,,,,,,,,,,,,,,,,,,,,,,,,,,,,,,,,,,,,,,,,,,,,,,,,,,,,,,,,,,,,,,,,,,,,,,,,,,,,,,,,,,,,,,,,,,,,,,,,,,,,,,,,,,,,,,,,,,,,,,,,,,,,,102921,0,2,1,2,1,20,2021_Oct_29_1631,short_answer,3.2.4,60.06830006026949,
,9,,,,,0,9,9,9,0,0,0,0,,,,,,,,,,,,,,,,,639.7013955029997,None,space,0.8402766830004111,639.7013955029997,None,639.7013955029997,None,639.7013955029997,None,640.5853652719998,None,640.5853652719998,None,4 pm,,"[2, 1]",642.0865089979998,None,642.0865089979998,None,642.0865089979998,None,642.0865089979998,None,642.0865089979998,None,642.0865089979998,None,642.0865089979998,None,,685.384390270001,None,685.384390270001,None,685.384390270001,None,685.384390270001,None,685.384390270001,None,685.384390270001,None,685.384390270001,None,,687.3185203659996,None,687.3185203659996,None,687.3185203659996,None,687.3185203659996,None,687.3185203659996,None,687.3185203659996,None,687.3185203659996,None,60 bucks and simon pays with a credit card,690.6519199239992,None,690.6519199239992,None,690.6519199239992,None,690.6519199239992,None,690.6519199239992,None,690.6519199239992,None,690.6519199239992,None,,703.0020415460003,None,703.0020415460003,None,703.0020415460003,None,703.0020415460003,None,703.0020415460003,None,703.0020415460003,None,703.0020415460003,None,,705.2854783340008,None,705.2854783340008,None,705.2854783340008,None,705.2854783340008,None,705.2854783340008,None,705.2854783340008,None,705.2854783340008,None,Dinner next week on a date ,712.9017106869996,None,712.9017106869996,None,712.9017106869996,None,712.9017106869996,None,712.9017106869996,None,712.9017106869996,None,712.9017106869996,None,4 pm,722.1350679269999,None,722.1350679269999,None,722.1350679269999,None,722.1350679269999,None,722.1350679269999,None,722.1350679269999,None,722.1350679269999,None,,,102921,0,2,1,2,1,20,2021_Oct_29_1631,short_answer,3.2.4,60.06830006026949,
,9,,,,,0,9,9,9,,,,,,,,,,,,,,,,,,,,,,,,,,,,,,,,,,,,,,,,,,,,,,,,,,,,,,,,,,,,,,,,,,,,,,,,,,,,,,,,,,,,,,,,,,,,,,,,,,,,,,,,,,,,,,,,,,,,,,,,,,,,,,,,,,,,,,,,,,,,,,,,,,,,,,,,,,,,,,,102921,0,2,1,2,1,20,2021_Oct_29_1631,short_answer,3.2.4,60.06830006026949,
,10,,,,,0,10,10,10,0,0,0,0,,,,,,,,,,,,,,,,,730.1674374649992,None,space,0.981684956999743,730.1674374649992,None,730.1674374649992,None,730.1674374649992,None,731.1848749569999,None,731.1848749569999,None,Her brother,,"[2, 1]",732.0680879419997,None,732.0680879419997,None,732.0680879419997,None,732.0680879419997,None,732.0680879419997,None,732.0680879419997,None,732.0680879419997,None,,736.401267575,None,736.401267575,None,736.401267575,None,736.401267575,None,736.401267575,None,736.401267575,None,736.401267575,None,,746.4006773399997,None,746.4006773399997,None,746.4006773399997,None,746.4006773399997,None,746.4006773399997,None,746.4006773399997,None,746.4006773399997,None,Alex pays with cash ,751.2008685729998,None,751.2008685729998,None,751.2008685729998,None,751.2008685729998,None,751.2008685729998,None,751.2008685729998,None,751.2008685729998,None,,776.5507586650001,None,776.5507586650001,None,776.5507586650001,None,776.5507586650001,None,776.5507586650001,None,776.5507586650001,None,776.5507586650001,None,,777.9178951800004,None,777.9178951800004,None,777.9178951800004,None,777.9178951800004,None,777.9178951800004,None,777.9178951800004,None,777.9178951800004,None,,778.9677790299993,None,778.9677790299993,None,778.9677790299993,None,778.9677790299993,None,778.9677790299993,None,778.9677790299993,None,778.9677790299993,None,Her brother,782.7340412829999,None,782.7340412829999,None,782.7340412829999,None,782.7340412829999,None,782.7340412829999,None,782.7340412829999,None,782.7340412829999,None,,,102921,0,2,1,2,1,20,2021_Oct_29_1631,short_answer,3.2.4,60.06830006026949,
,10,,,,,0,10,10,10,,,,,,,,,,,,,,,,,,,,,,,,,,,,,,,,,,,,,,,,,,,,,,,,,,,,,,,,,,,,,,,,,,,,,,,,,,,,,,,,,,,,,,,,,,,,,,,,,,,,,,,,,,,,,,,,,,,,,,,,,,,,,,,,,,,,,,,,,,,,,,,,,,,,,,,,,,,,,,,102921,0,2,1,2,1,20,2021_Oct_29_1631,short_answer,3.2.4,60.06830006026949,
,11,,,,,0,11,11,11,0,0,0,0,,,,,,,,,,,,,,,,,785.6338846649996,None,space,0.7335138380003627,785.6338846649996,None,785.6338846649996,None,785.6338846649996,None,786.3995274970002,None,786.3995274970002,None,,Charlie is at a start up ,"[1, 2]",787.3668655149995,None,787.3668655149995,None,787.3668655149995,None,787.3668655149995,None,787.3668655149995,None,787.3668655149995,None,787.3668655149995,None,"56,000",793.2172850459992,None,793.2172850459992,None,793.2172850459992,None,793.2172850459992,None,793.2172850459992,None,793.2172850459992,None,793.2172850459992,None,,796.6171588159996,None,796.6171588159996,None,796.6171588159996,None,796.6171588159996,None,796.6171588159996,None,796.6171588159996,None,796.6171588159996,None,Negotiate ,797.917373495,None,797.917373495,None,797.917373495,None,797.917373495,None,797.917373495,None,797.917373495,None,797.917373495,None,,806.3328046719998,None,806.3328046719998,None,806.3328046719998,None,806.3328046719998,None,806.3328046719998,None,806.3328046719998,None,806.3328046719998,None,,807.5175585649995,None,807.5175585649995,None,807.5175585649995,None,807.5175585649995,None,807.5175585649995,None,807.5175585649995,None,807.5175585649995,None,,816.300250663,None,816.300250663,None,816.300250663,None,816.300250663,None,816.300250663,None,816.300250663,None,816.300250663,None,,817.5999331790008,None,817.5999331790008,None,817.5999331790008,None,817.5999331790008,None,817.5999331790008,None,817.5999331790008,None,817.5999331790008,None,,,102921,0,2,1,2,1,20,2021_Oct_29_1631,short_answer,3.2.4,60.06830006026949,
,11,,,,,0,11,11,11,,,,,,,,,,,,,,,,,,,,,,,,,,,,,,,,,,,,,,,,,,,,,,,,,,,,,,,,,,,,,,,,,,,,,,,,,,,,,,,,,,,,,,,,,,,,,,,,,,,,,,,,,,,,,,,,,,,,,,,,,,,,,,,,,,,,,,,,,,,,,,,,,,,,,,,,,,,,,,,102921,0,2,1,2,1,20,2021_Oct_29_1631,short_answer,3.2.4,60.06830006026949,
,12,,,,,0,12,12,12,0,0,0,0,,,,,,,,,,,,,,,,,821.4161847060004,None,space,0.7510282460007147,821.4161847060004,None,821.4161847060004,None,821.4161847060004,None,822.2170771820001,None,822.2170771820001,None,,,"[2, 1]",823.8166023880003,None,823.8166023880003,None,823.8166023880003,None,823.8166023880003,None,823.8166023880003,None,823.8166023880003,None,823.8166023880003,None,,830.7494805850001,None,830.7494805850001,None,830.7494805850001,None,830.7494805850001,None,830.7494805850001,None,830.7494805850001,None,830.7494805850001,None,,831.8504493300006,None,831.8504493300006,None,831.8504493300006,None,831.8504493300006,None,831.8504493300006,None,831.8504493300006,None,831.8504493300006,None,,833.1001957110002,None,833.1001957110002,None,833.1001957110002,None,833.1001957110002,None,833.1001957110002,None,833.1001957110002,None,833.1001957110002,None,,834.9843260540001,None,834.9843260540001,None,834.9843260540001,None,834.9843260540001,None,834.9843260540001,None,834.9843260540001,None,834.9843260540001,None,,837.1172266899994,None,837.1172266899994,None,837.1172266899994,None,837.1172266899994,None,837.1172266899994,None,837.1172266899994,None,837.1172266899994,None,James asks teresa out on a date,840.9334326099997,None,840.9334326099997,None,840.9334326099997,None,840.9334326099997,None,840.9334326099997,None,840.9334326099997,None,840.9334326099997,None,,852.5498526699994,None,852.5498526699994,None,852.5498526699994,None,852.5498526699994,None,852.5498526699994,None,852.5498526699994,None,852.5498526699994,None,,,102921,0,2,1,2,1,20,2021_Oct_29_1631,short_answer,3.2.4,60.06830006026949,
,12,,,,,0,12,12,12,,,,,,,,,,,,,,,,,,,,,,,,,,,,,,,,,,,,,,,,,,,,,,,,,,,,,,,,,,,,,,,,,,,,,,,,,,,,,,,,,,,,,,,,,,,,,,,,,,,,,,,,,,,,,,,,,,,,,,,,,,,,,,,,,,,,,,,,,,,,,,,,,,,,,,,,,,,,,,,102921,0,2,1,2,1,20,2021_Oct_29_1631,short_answer,3.2.4,60.06830006026949,
,13,,,,,0,13,13,13,,,,,,,,,,,,,,,,,,,,,,,,,,,,,,,,,,,,,,,,,,,,,,,,,,,,,,,,,,,,,,,,,,,,,,,,,,,,,,,,,,,,,,,,,,,,,,,,,,,,,,,,,,,,,,,,,,,,,,,,,,,,,,,,,,,,,,,,,,,,,,,,,,,,,,,,,,,,,,,102921,0,2,1,2,1,20,2021_Oct_29_1631,short_answer,3.2.4,60.06830006026949,
,14,,,,,0,14,14,14,,,,,,,,,,,,,,,,,,,,,,,,,,,,,,,,,,,,,,,,,,,,,,,,,,,,,,,,,,,,,,,,,,,,,,,,,,,,,,,,,,,,,,,,,,,,,,,,,,,,,,,,,,,,,,,,,,,,,,,,,,,,,,,,,,,,,,,,,,,,,,,,,,,,,,,,,,,,,,,102921,0,2,1,2,1,20,2021_Oct_29_1631,short_answer,3.2.4,60.06830006026949,
,15,,,,,0,15,15,15,0,0,0,0,,,,,,,,,,,,,,,,,854.6822501610004,None,space,1.3658838379997178,854.6822501610004,None,854.6822501610004,None,854.6822501610004,None,856.0819921090006,None,856.0819921090006,None,,,"[2, 1]",856.799562825001,None,856.799562825001,None,856.799562825001,None,856.799562825001,None,856.799562825001,None,856.799562825001,None,856.799562825001,None, ,858.0501391039998,None,858.0501391039998,None,858.0501391039998,None,858.0501391039998,None,858.0501391039998,None,858.0501391039998,None,858.0501391039998,None,,882.0661735779995,None,882.0661735779995,None,882.0661735779995,None,882.0661735779995,None,882.0661735779995,None,882.0661735779995,None,882.0661735779995,None,,882.9497768340007,None,882.9497768340007,None,882.9497768340007,None,882.9497768340007,None,882.9497768340007,None,882.9497768340007,None,882.9497768340007,None,,895.749424312,None,895.749424312,None,895.749424312,None,895.749424312,None,895.749424312,None,895.749424312,None,895.749424312,None,,902.9819697700004,None,902.9819697700004,None,902.9819697700004,None,902.9819697700004,None,902.9819697700004,None,902.9819697700004,None,902.9819697700004,None,,904.1654950089996,None,904.1654950089996,None,904.1654950089996,None,904.1654950089996,None,904.1654950089996,None,904.1654950089996,None,904.1654950089996,None,,907.8985312059995,None,907.8985312059995,None,907.8985312059995,None,907.8985312059995,None,907.8985312059995,None,907.8985312059995,None,907.8985312059995,None,,,102921,0,2,1,2,1,20,2021_Oct_29_1631,short_answer,3.2.4,60.06830006026949,
,15,,,,,0,15,15,15,,,,,,,,,,,,,,,,,,,,,,,,,,,,,,,,,,,,,,,,,,,,,,,,,,,,,,,,,,,,,,,,,,,,,,,,,,,,,,,,,,,,,,,,,,,,,,,,,,,,,,,,,,,,,,,,,,,,,,,,,,,,,,,,,,,,,,,,,,,,,,,,,,,,,,,,,,,,,,,102921,0,2,1,2,1,20,2021_Oct_29_1631,short_answer,3.2.4,60.06830006026949,
,,,,,,,,,,,,,,0,0,0,0,,,,,,,,,,,,,,,,,,,,,,,,,,,,,,,,,,,,,,,,,,,,,,,,,,,,,,,,,,,,,,,,,,,,,,,,,,,,,,,,,,,,,,,,,,,,,,,,,,,,,,,,,,,,,,,,,,,,,,,,,,,,,,,,,,,,,,,,,,,,,,,,,,,,,908.448594421001,None,102921,0,2,1,2,1,20,2021_Oct_29_1631,short_answer,3.2.4,60.06830006026949,
