instructText,count,trials_5.thisRepN,trials_5.thisTrialN,trials_5.thisN,trials_5.thisIndex,trials_6.thisRepN,trials_6.thisTrialN,trials_6.thisN,trials_6.thisIndex,trials.thisRepN,trials.thisTrialN,trials.thisN,trials.thisIndex,trials_8.thisRepN,trials_8.thisTrialN,trials_8.thisN,trials_8.thisIndex,story_list_block1,action_list_block1,story_list_block2,action_list_block2,key_resp_3.keys,key_resp_3.rt,key_resp_3.started,key_resp_3.stopped,text_13.started,text_13.stopped,text_23.started,text_23.stopped,text_43.started,text_43.stopped,key_resp_11.keys,key_resp_11.rt,key_resp_11.started,key_resp_11.stopped,text_44.started,text_44.stopped,text_53.started,text_53.stopped,image_10.started,image_10.stopped,text_22.started,text_22.stopped,recall,question1_answer,order of question,text_14.started,text_14.stopped,text_15.started,text_15.stopped,image_6.started,image_6.stopped,polygon_3.started,polygon_3.stopped,bottom_line_3.started,bottom_line_3.stopped,right_line_3.started,right_line_3.stopped,left_line_3.started,left_line_3.stopped,question2_answer,text_16.started,text_16.stopped,text_17.started,text_17.stopped,image_7.started,image_7.stopped,polygon_4.started,polygon_4.stopped,bottom_line_4.started,bottom_line_4.stopped,right_line_4.started,right_line_4.stopped,left_line_4.started,left_line_4.stopped,question3_answer,text_18.started,text_18.stopped,text_19.started,text_19.stopped,image_8.started,image_8.stopped,polygon_5.started,polygon_5.stopped,bottom_line_5.started,bottom_line_5.stopped,right_line_5.started,right_line_5.stopped,left_line_5.started,left_line_5.stopped,question4_answer,text_20.started,text_20.stopped,text_21.started,text_21.stopped,image_9.started,image_9.stopped,polygon_6.started,polygon_6.stopped,bottom_line_6.started,bottom_line_6.stopped,right_line_6.started,right_line_6.stopped,left_line_6.started,left_line_6.stopped,question5_answer,text_25.started,text_25.stopped,text_26.started,text_26.stopped,image_11.started,image_11.stopped,polygon_7.started,polygon_7.stopped,bottom_line_7.started,bottom_line_7.stopped,right_line_7.started,right_line_7.stopped,left_line_7.started,left_line_7.stopped,question6_answer,text_27.started,text_27.stopped,text_28.started,text_28.stopped,image_12.started,image_12.stopped,polygon_8.started,polygon_8.stopped,bottom_line_8.started,bottom_line_8.stopped,right_line_8.started,right_line_8.stopped,left_line_8.started,left_line_8.stopped,question7_answer,text_29.started,text_29.stopped,text_30.started,text_30.stopped,image_13.started,image_13.stopped,polygon_9.started,polygon_9.stopped,bottom_line_9.started,bottom_line_9.stopped,right_line_9.started,right_line_9.stopped,left_line_9.started,left_line_9.stopped,question8_answer,text_31.started,text_31.stopped,text_32.started,text_32.stopped,image_14.started,image_14.stopped,polygon_10.started,polygon_10.stopped,bottom_line_10.started,bottom_line_10.stopped,right_line_10.started,right_line_10.stopped,left_line_10.started,left_line_10.stopped,text_36.started,text_36.stopped,participant,sA,sB,lA,lB,block_struct,random_seed,date,expName,psychopyVersion,frameRate,
"In the final part of the experiment, please answer 8 questions about each story.",,0,0,0,0,,,,,,,,,,,,,[22 11 33 24 44 13 42 31],[4 2 3 4 1 2 1 3],[23 32 21 14 43 12 34 41],[2 1 2 4 3 4 1 3],space,3.2512808349997613,16.407374162999986,None,16.407374162999986,None,16.407374162999986,None,,,,,,,,,,,,,,,,,,,,,,,,,,,,,,,,,,,,,,,,,,,,,,,,,,,,,,,,,,,,,,,,,,,,,,,,,,,,,,,,,,,,,,,,,,,,,,,,,,,,,,,,,,,,,,,,,,,,,,,,,,,,,,,,,,,,,,,,,,,041421,3,2,0,2,1,64,2021_Apr_16_1335,short_answer,3.2.4,60.17995370842687,
"We did not tell you to think of all or some of these questions during the story, but please do your best to answer them.",,0,1,1,1,,,,,,,,,,,,,,,,,space,1.379019330999654,19.691657266999755,None,19.691657266999755,None,19.691657266999755,None,,,,,,,,,,,,,,,,,,,,,,,,,,,,,,,,,,,,,,,,,,,,,,,,,,,,,,,,,,,,,,,,,,,,,,,,,,,,,,,,,,,,,,,,,,,,,,,,,,,,,,,,,,,,,,,,,,,,,,,,,,,,,,,,,,,,,,,,,,,041421,3,2,0,2,1,64,2021_Apr_16_1335,short_answer,3.2.4,60.17995370842687,
"Answer as much as you remember, and be specific and concrete in your answers. It is best to try to be as faithful as possible to what the story actually said.
",,0,2,2,2,,,,,,,,,,,,,,,,,space,2.392932195999947,21.108565645999988,None,21.108565645999988,None,21.108565645999988,None,,,,,,,,,,,,,,,,,,,,,,,,,,,,,,,,,,,,,,,,,,,,,,,,,,,,,,,,,,,,,,,,,,,,,,,,,,,,,,,,,,,,,,,,,,,,,,,,,,,,,,,,,,,,,,,,,,,,,,,,,,,,,,,,,,,,,,,,,,,041421,3,2,0,2,1,64,2021_Apr_16_1335,short_answer,3.2.4,60.17995370842687,
"When you have finished typing your answer, hit ‘return’ to submit your answer and move onto the next question. ",,0,3,3,3,,,,,,,,,,,,,,,,,space,0.4942234639997878,23.54122805299994,None,23.54122805299994,None,23.54122805299994,None,,,,,,,,,,,,,,,,,,,,,,,,,,,,,,,,,,,,,,,,,,,,,,,,,,,,,,,,,,,,,,,,,,,,,,,,,,,,,,,,,,,,,,,,,,,,,,,,,,,,,,,,,,,,,,,,,,,,,,,,,,,,,,,,,,,,,,,,,,,041421,3,2,0,2,1,64,2021_Apr_16_1335,short_answer,3.2.4,60.17995370842687,
,0,,,,,0,0,0,0,0,0,0,0,,,,,,,,,,,,,,,,,24.058008612999856,None,space,1.0163145609999447,24.058008612999856,None,24.058008612999856,None,24.058008612999856,None,25.142549593999775,None,25.142549593999775,None,Her best friend maybe but i might be confusing that with another couple,I dont remember,"[2, 1]",26.57534485999986,None,26.57534485999986,None,26.57534485999986,None,26.57534485999986,None,26.57534485999986,None,26.57534485999986,None,26.57534485999986,None,Sven proposes to isabel when going through security because he forgot to stow the ring,41.408660902000065,None,41.408660902000065,None,41.408660902000065,None,41.408660902000065,None,41.408660902000065,None,41.408660902000065,None,41.408660902000065,None,I dont remember,76.52413595600001,None,76.52413595600001,None,76.52413595600001,None,76.52413595600001,None,76.52413595600001,None,76.52413595600001,None,76.52413595600001,None,I don't remember this being described,82.60728441499987,None,82.60728441499987,None,82.60728441499987,None,82.60728441499987,None,82.60728441499987,None,82.60728441499987,None,82.60728441499987,None,11 months,96.37387497400005,None,96.37387497400005,None,96.37387497400005,None,96.37387497400005,None,96.37387497400005,None,96.37387497400005,None,96.37387497400005,None,2 pink diamonds,100.54162034799992,None,100.54162034799992,None,100.54162034799992,None,100.54162034799992,None,100.54162034799992,None,100.54162034799992,None,100.54162034799992,None,A velvet case,107.07395013699988,None,107.07395013699988,None,107.07395013699988,None,107.07395013699988,None,107.07395013699988,None,107.07395013699988,None,107.07395013699988,None,Her best friend maybe but i might be confusing that with another couple,111.77408717199978,None,111.77408717199978,None,111.77408717199978,None,111.77408717199978,None,111.77408717199978,None,111.77408717199978,None,111.77408717199978,None,,,041421,3,2,0,2,1,64,2021_Apr_16_1335,short_answer,3.2.4,60.17995370842687,
,0,,,,,0,0,0,0,,,,,,,,,,,,,,,,,,,,,,,,,,,,,,,,,,,,,,,,,,,,,,,,,,,,,,,,,,,,,,,,,,,,,,,,,,,,,,,,,,,,,,,,,,,,,,,,,,,,,,,,,,,,,,,,,,,,,,,,,,,,,,,,,,,,,,,,,,,,,,,,,,,,,,,,,,,,,,,041421,3,2,0,2,1,64,2021_Apr_16_1335,short_answer,3.2.4,60.17995370842687,
,1,,,,,0,1,1,1,0,0,0,0,,,,,,,,,,,,,,,,,137.00778898299995,None,space,1.4878504239995891,137.00778898299995,None,137.00778898299995,None,137.00778898299995,None,138.54082290999986,None,138.54082290999986,None,"Thomas didn't like his and thinks it tastes like fish, but wasn't sure if that was just projection because he's feeling bad after the breakup; i dont think sadie even eats hers, just throws half of it or something",3 weeks maybe,"[1, 2]",140.32412035700008,None,140.32412035700008,None,140.32412035700008,None,140.32412035700008,None,140.32412035700008,None,140.32412035700008,None,140.32412035700008,None,"Thomas wants to focus on his career, maybe switching careers",146.54044943100007,None,146.54044943100007,None,146.54044943100007,None,146.54044943100007,None,146.54044943100007,None,146.54044943100007,None,146.54044943100007,None,No. sadie wants to stay together and offers to see each other less and such as a compromise.,163.1905205600001,None,163.1905205600001,None,163.1905205600001,None,163.1905205600001,None,163.1905205600001,None,163.1905205600001,None,163.1905205600001,None,"I dont think sadie asks for anything, but i might have just forgotten",212.60560715099973,None,212.60560715099973,None,212.60560715099973,None,212.60560715099973,None,212.60560715099973,None,212.60560715099973,None,212.60560715099973,None,Its a diner with black and white checkered tiles and booths which were maybe red,238.43910843100002,None,238.43910843100002,None,238.43910843100002,None,238.43910843100002,None,238.43910843100002,None,238.43910843100002,None,238.43910843100002,None,Laminated with lots of items,260.3063487999998,None,260.3063487999998,None,260.3063487999998,None,260.3063487999998,None,260.3063487999998,None,260.3063487999998,None,260.3063487999998,None,Thomas orders the burger without tomatoes; sadie order the reuben after asking the waitress if its good,265.5889952409998,None,265.5889952409998,None,265.5889952409998,None,265.5889952409998,None,265.5889952409998,None,265.5889952409998,None,265.5889952409998,None,"Thomas didn't like his and thinks it tastes like fish, but wasn't sure if that was just projection because he's feeling bad after the breakup; i dont think sadie even eats hers, just throws half of it or something",288.5719310019999,None,288.5719310019999,None,288.5719310019999,None,288.5719310019999,None,288.5719310019999,None,288.5719310019999,None,288.5719310019999,None,,,041421,3,2,0,2,1,64,2021_Apr_16_1335,short_answer,3.2.4,60.17995370842687,
,1,,,,,0,1,1,1,,,,,,,,,,,,,,,,,,,,,,,,,,,,,,,,,,,,,,,,,,,,,,,,,,,,,,,,,,,,,,,,,,,,,,,,,,,,,,,,,,,,,,,,,,,,,,,,,,,,,,,,,,,,,,,,,,,,,,,,,,,,,,,,,,,,,,,,,,,,,,,,,,,,,,,,,,,,,,,041421,3,2,0,2,1,64,2021_Apr_16_1335,short_answer,3.2.4,60.17995370842687,
,2,,,,,0,2,2,2,,,,,,,,,,,,,,,,,,,,,,,,,,,,,,,,,,,,,,,,,,,,,,,,,,,,,,,,,,,,,,,,,,,,,,,,,,,,,,,,,,,,,,,,,,,,,,,,,,,,,,,,,,,,,,,,,,,,,,,,,,,,,,,,,,,,,,,,,,,,,,,,,,,,,,,,,,,,,,,041421,3,2,0,2,1,64,2021_Apr_16_1335,short_answer,3.2.4,60.17995370842687,
,3,,,,,0,3,3,3,0,0,0,0,,,,,,,,,,,,,,,,,336.73737134700013,None,space,1.0983746609999798,336.73737134700013,None,336.73737134700013,None,336.73737134700013,None,337.87099508599977,None,337.87099508599977,None,Lana texts her dad maybe,Chemistry class with angled rows of seating,"[2, 1]",340.28824041100006,None,340.28824041100006,None,340.28824041100006,None,340.28824041100006,None,340.28824041100006,None,340.28824041100006,None,340.28824041100006,None,"Chemistry and the lecture is about the number protons determining the element, with the example of sodium... na ... given which has 11 protons and is thus the 11th element",355.6216411739997,None,355.6216411739997,None,355.6216411739997,None,355.6216411739997,None,355.6216411739997,None,355.6216411739997,None,355.6216411739997,None,"Proton number determines the element, sodium is the example which has 11",417.36994337299984,None,417.36994337299984,None,417.36994337299984,None,417.36994337299984,None,417.36994337299984,None,417.36994337299984,None,417.36994337299984,None,I do not remember,454.9693589409999,None,454.9693589409999,None,454.9693589409999,None,454.9693589409999,None,454.9693589409999,None,454.9693589409999,None,454.9693589409999,None,"Years, maybe 2 or 3",461.33664622499964,None,461.33664622499964,None,461.33664622499964,None,461.33664622499964,None,461.33664622499964,None,461.33664622499964,None,461.33664622499964,None,5 red diamonds,471.486996394,None,471.486996394,None,471.486996394,None,471.486996394,None,471.486996394,None,471.486996394,None,471.486996394,None,I do not remember other than it being in a case,477.4198646149998,None,477.4198646149998,None,477.4198646149998,None,477.4198646149998,None,477.4198646149998,None,477.4198646149998,None,477.4198646149998,None,Lana texts her dad maybe,487.78641437199985,None,487.78641437199985,None,487.78641437199985,None,487.78641437199985,None,487.78641437199985,None,487.78641437199985,None,487.78641437199985,None,,,041421,3,2,0,2,1,64,2021_Apr_16_1335,short_answer,3.2.4,60.17995370842687,
,3,,,,,0,3,3,3,,,,,,,,,,,,,,,,,,,,,,,,,,,,,,,,,,,,,,,,,,,,,,,,,,,,,,,,,,,,,,,,,,,,,,,,,,,,,,,,,,,,,,,,,,,,,,,,,,,,,,,,,,,,,,,,,,,,,,,,,,,,,,,,,,,,,,,,,,,,,,,,,,,,,,,,,,,,,,,041421,3,2,0,2,1,64,2021_Apr_16_1335,short_answer,3.2.4,60.17995370842687,
,4,,,,,0,4,4,4,0,0,0,0,,,,,,,,,,,,,,,,,508.5861284319999,None,space,1.4616212050004833,508.5861284319999,None,508.5861284319999,None,508.5861284319999,None,510.0858249339999,None,510.0858249339999,None,I do not remember,I dont remember... they were entering the class so maybe a notebook or pencil,"[1, 2]",511.37018047200036,None,511.37018047200036,None,511.37018047200036,None,511.37018047200036,None,511.37018047200036,None,511.37018047200036,None,511.37018047200036,None,"Leon asks ariana if she's from la.... well, he writes the question and passes her the ntoe",543.1524650359997,None,543.1524650359997,None,543.1524650359997,None,543.1524650359997,None,543.1524650359997,None,543.1524650359997,None,543.1524650359997,None,8pm outside arianas dorm for a walk,564.5020041460002,None,564.5020041460002,None,564.5020041460002,None,564.5020041460002,None,564.5020041460002,None,564.5020041460002,None,564.5020041460002,None,After class and ariana has to go to another class but i don't remember the exact time,578.4189490890003,None,578.4189490890003,None,578.4189490890003,None,578.4189490890003,None,578.4189490890003,None,578.4189490890003,None,578.4189490890003,None,"Its egyptian history class.... talking about mummificaiton... i dont remember the description of the hall, although i think leon was sitting just behind ariana and it must have been a large class to get away with passing notes",599.6174429410003,None,599.6174429410003,None,599.6174429410003,None,599.6174429410003,None,599.6174429410003,None,599.6174429410003,None,599.6174429410003,None,"Egyptian history, about mummification and the associated rituals, which take 70 something days to complete",652.1006472199997,None,652.1006472199997,None,652.1006472199997,None,652.1006472199997,None,652.1006472199997,None,652.1006472199997,None,652.1006472199997,None,"That mummification is poorly understood by memory and consists of large, long rituals",687.8010652430003,None,687.8010652430003,None,687.8010652430003,None,687.8010652430003,None,687.8010652430003,None,687.8010652430003,None,687.8010652430003,None,I do not remember,710.8670232639997,None,710.8670232639997,None,710.8670232639997,None,710.8670232639997,None,710.8670232639997,None,710.8670232639997,None,710.8670232639997,None,,,041421,3,2,0,2,1,64,2021_Apr_16_1335,short_answer,3.2.4,60.17995370842687,
,4,,,,,0,4,4,4,,,,,,,,,,,,,,,,,,,,,,,,,,,,,,,,,,,,,,,,,,,,,,,,,,,,,,,,,,,,,,,,,,,,,,,,,,,,,,,,,,,,,,,,,,,,,,,,,,,,,,,,,,,,,,,,,,,,,,,,,,,,,,,,,,,,,,,,,,,,,,,,,,,,,,,,,,,,,,,041421,3,2,0,2,1,64,2021_Apr_16_1335,short_answer,3.2.4,60.17995370842687,
,5,,,,,0,5,5,5,0,0,0,0,,,,,,,,,,,,,,,,,718.6327712869997,None,space,1.0784989590001715,718.6327712869997,None,718.6327712869997,None,718.6327712869997,None,719.7497216430002,None,719.7497216430002,None,30 bucks on credit card... emma pays,Maybe 6 weeks,"[1, 2]",721.4836510089999,None,721.4836510089999,None,721.4836510089999,None,721.4836510089999,None,721.4836510089999,None,721.4836510089999,None,721.4836510089999,None,They always argue about little things maybe... liam doesn't help emma cook but liam thinks that emma thinks that he just gets in the way when he tries to help,732.3671013160001,None,732.3671013160001,None,732.3671013160001,None,732.3671013160001,None,732.3671013160001,None,732.3671013160001,None,732.3671013160001,None,"Yes, liam agrees that its best because he thinks theyll be happier with other people",771.1500134010003,None,771.1500134010003,None,771.1500134010003,None,771.1500134010003,None,771.1500134010003,None,771.1500134010003,None,771.1500134010003,None,"They argue over the cat. liam is adiqment about wanting the cat, but i think emma wants it too",788.2492909149996,None,788.2492909149996,None,788.2492909149996,None,788.2492909149996,None,788.2492909149996,None,788.2492909149996,None,788.2492909149996,None,I forget ,852.3309657569998,None,852.3309657569998,None,852.3309657569998,None,852.3309657569998,None,852.3309657569998,None,852.3309657569998,None,852.3309657569998,None,"Italian stuff... bowtie pasta, vodka sauce, olives",862.2984313240004,None,862.2984313240004,None,862.2984313240004,None,862.2984313240004,None,862.2984313240004,None,862.2984313240004,None,862.2984313240004,None,"One is open, lane 2",877.5484472059998,None,877.5484472059998,None,877.5484472059998,None,877.5484472059998,None,877.5484472059998,None,877.5484472059998,None,877.5484472059998,None,30 bucks on credit card... emma pays,889.1484021679998,None,889.1484021679998,None,889.1484021679998,None,889.1484021679998,None,889.1484021679998,None,889.1484021679998,None,889.1484021679998,None,,,041421,3,2,0,2,1,64,2021_Apr_16_1335,short_answer,3.2.4,60.17995370842687,
,5,,,,,0,5,5,5,,,,,,,,,,,,,,,,,,,,,,,,,,,,,,,,,,,,,,,,,,,,,,,,,,,,,,,,,,,,,,,,,,,,,,,,,,,,,,,,,,,,,,,,,,,,,,,,,,,,,,,,,,,,,,,,,,,,,,,,,,,,,,,,,,,,,,,,,,,,,,,,,,,,,,,,,,,,,,,041421,3,2,0,2,1,64,2021_Apr_16_1335,short_answer,3.2.4,60.17995370842687,
,6,,,,,0,6,6,6,0,0,0,0,,,,,,,,,,,,,,,,,900.8144691609996,None,space,0.8324095689995374,900.8144691609996,None,900.8144691609996,None,900.8144691609996,None,901.6970324929998,None,901.6970324929998,None,Ten fifty five,Anna has 30 minutes david has 3 hours,"[2, 1]",906.0149646479995,None,906.0149646479995,None,906.0149646479995,None,906.0149646479995,None,906.0149646479995,None,906.0149646479995,None,906.0149646479995,None,I dont remember a holdup at security,915.2484605749996,None,915.2484605749996,None,915.2484605749996,None,915.2484605749996,None,915.2484605749996,None,915.2484605749996,None,915.2484605749996,None,I don't remember,930.2303231220003,None,930.2303231220003,None,930.2303231220003,None,930.2303231220003,None,930.2303231220003,None,930.2303231220003,None,930.2303231220003,None,Anna gets on but i don't think david does... i don't remember the seat,938.4307842050002,None,938.4307842050002,None,938.4307842050002,None,938.4307842050002,None,938.4307842050002,None,938.4307842050002,None,938.4307842050002,None,David is holding his laptop with an ebook on it,957.8478420439997,None,957.8478420439997,None,957.8478420439997,None,957.8478420439997,None,957.8478420439997,None,957.8478420439997,None,957.8478420439997,None,David asks if anna used to be a gymnist ,973.9141004129997,None,973.9141004129997,None,973.9141004129997,None,973.9141004129997,None,973.9141004129997,None,973.9141004129997,None,973.9141004129997,None,Tuesday for dinner,997.0127531090002,None,997.0127531090002,None,997.0127531090002,None,997.0127531090002,None,997.0127531090002,None,997.0127531090002,None,997.0127531090002,None,Ten fifty five,1002.7967505830002,None,1002.7967505830002,None,1002.7967505830002,None,1002.7967505830002,None,1002.7967505830002,None,1002.7967505830002,None,1002.7967505830002,None,,,041421,3,2,0,2,1,64,2021_Apr_16_1335,short_answer,3.2.4,60.17995370842687,
,6,,,,,0,6,6,6,,,,,,,,,,,,,,,,,,,,,,,,,,,,,,,,,,,,,,,,,,,,,,,,,,,,,,,,,,,,,,,,,,,,,,,,,,,,,,,,,,,,,,,,,,,,,,,,,,,,,,,,,,,,,,,,,,,,,,,,,,,,,,,,,,,,,,,,,,,,,,,,,,,,,,,,,,,,,,,041421,3,2,0,2,1,64,2021_Apr_16_1335,short_answer,3.2.4,60.17995370842687,
,7,,,,,0,7,7,7,,,,,,,,,,,,,,,,,,,,,,,,,,,,,,,,,,,,,,,,,,,,,,,,,,,,,,,,,,,,,,,,,,,,,,,,,,,,,,,,,,,,,,,,,,,,,,,,,,,,,,,,,,,,,,,,,,,,,,,,,,,,,,,,,,,,,,,,,,,,,,,,,,,,,,,,,,,,,,,041421,3,2,0,2,1,64,2021_Apr_16_1335,short_answer,3.2.4,60.17995370842687,
,8,,,,,0,8,8,8,0,0,0,0,,,,,,,,,,,,,,,,,1022.0118167479995,None,space,0.9509786369999347,1022.0118167479995,None,1022.0118167479995,None,1022.0118167479995,None,1023.0130810700002,None,1023.0130810700002,None,Her father maybe... or best friend... im mixing them up,Big windows streaming light in with thanksgiving decorations around,"[2, 1]",1024.5967017820003,None,1024.5967017820003,None,1024.5967017820003,None,1024.5967017820003,None,1024.5967017820003,None,1024.5967017820003,None,1024.5967017820003,None,Canned pumpkin and something else,1042.8126936620001,None,1042.8126936620001,None,1042.8126936620001,None,1042.8126936620001,None,1042.8126936620001,None,1042.8126936620001,None,1042.8126936620001,None,5 are open; they pick lane 3,1053.0959894850002,None,1053.0959894850002,None,1053.0959894850002,None,1053.0959894850002,None,1053.0959894850002,None,1053.0959894850002,None,1053.0959894850002,None,14 dollars in cash,1061.8967429909999,None,1061.8967429909999,None,1061.8967429909999,None,1061.8967429909999,None,1061.8967429909999,None,1061.8967429909999,None,1061.8967429909999,None,"I don't remember, but it was longer than a year; maybe two years",1066.362745034,None,1066.362745034,None,1066.362745034,None,1066.362745034,None,1066.362745034,None,1066.362745034,None,1066.362745034,None,One regular diamond i think,1086.6287467029997,None,1086.6287467029997,None,1086.6287467029997,None,1086.6287467029997,None,1086.6287467029997,None,1086.6287467029997,None,1086.6287467029997,None,I don't remember. probably a case,1108.744423387,None,1108.744423387,None,1108.744423387,None,1108.744423387,None,1108.744423387,None,1108.744423387,None,1108.744423387,None,Her father maybe... or best friend... im mixing them up,1118.1272939089995,None,1118.1272939089995,None,1118.1272939089995,None,1118.1272939089995,None,1118.1272939089995,None,1118.1272939089995,None,1118.1272939089995,None,,,041421,3,2,0,2,1,64,2021_Apr_16_1335,short_answer,3.2.4,60.17995370842687,
,8,,,,,0,8,8,8,,,,,,,,,,,,,,,,,,,,,,,,,,,,,,,,,,,,,,,,,,,,,,,,,,,,,,,,,,,,,,,,,,,,,,,,,,,,,,,,,,,,,,,,,,,,,,,,,,,,,,,,,,,,,,,,,,,,,,,,,,,,,,,,,,,,,,,,,,,,,,,,,,,,,,,,,,,,,,,041421,3,2,0,2,1,64,2021_Apr_16_1335,short_answer,3.2.4,60.17995370842687,
,9,,,,,0,9,9,9,0,0,0,0,,,,,,,,,,,,,,,,,1132.1116051689996,None,space,0.7536239880000721,1132.1116051689996,None,1132.1116051689996,None,1132.1116051689996,None,1132.9102482509998,None,1132.9102482509998,None,"I dont remember a gesture, perhaps just a handshake","I dont remember, but they werent rushing or anything","[2, 1]",1138.528270531,None,1138.528270531,None,1138.528270531,None,1138.528270531,None,1138.528270531,None,1138.528270531,None,1138.528270531,None,I dont remember there being a holdup,1154.1113029629996,None,1154.1113029629996,None,1154.1113029629996,None,1154.1113029629996,None,1154.1113029629996,None,1154.1113029629996,None,1154.1113029629996,None,Dont remember,1159.9442424279996,None,1159.9442424279996,None,1159.9442424279996,None,1159.9442424279996,None,1159.9442424279996,None,1159.9442424279996,None,1159.9442424279996,None,"One in f one in a, 3 aisles apart maybe... could be mixing that up with another though",1171.9940232589997,None,1171.9940232589997,None,1171.9940232589997,None,1171.9940232589997,None,1171.9940232589997,None,1171.9940232589997,None,1171.9940232589997,None,Jeff is a wine seller and william is wine buyer/distributor,1197.3441523259999,None,1197.3441523259999,None,1197.3441523259999,None,1197.3441523259999,None,1197.3441523259999,None,1197.3441523259999,None,1197.3441523259999,None,"800 bucks, but it was half off",1217.343380364,None,1217.343380364,None,1217.343380364,None,1217.343380364,None,1217.343380364,None,1217.343380364,None,1217.343380364,None,Yankee vineyards,1225.2609064810003,None,1225.2609064810003,None,1225.2609064810003,None,1225.2609064810003,None,1225.2609064810003,None,1225.2609064810003,None,1225.2609064810003,None,"I dont remember a gesture, perhaps just a handshake",1232.6598650939995,None,1232.6598650939995,None,1232.6598650939995,None,1232.6598650939995,None,1232.6598650939995,None,1232.6598650939995,None,1232.6598650939995,None,,,041421,3,2,0,2,1,64,2021_Apr_16_1335,short_answer,3.2.4,60.17995370842687,
,9,,,,,0,9,9,9,,,,,,,,,,,,,,,,,,,,,,,,,,,,,,,,,,,,,,,,,,,,,,,,,,,,,,,,,,,,,,,,,,,,,,,,,,,,,,,,,,,,,,,,,,,,,,,,,,,,,,,,,,,,,,,,,,,,,,,,,,,,,,,,,,,,,,,,,,,,,,,,,,,,,,,,,,,,,,,041421,3,2,0,2,1,64,2021_Apr_16_1335,short_answer,3.2.4,60.17995370842687,
,10,,,,,0,10,10,10,0,0,0,0,,,,,,,,,,,,,,,,,1255.4258978369999,None,space,0.9072281790004126,1255.4258978369999,None,1255.4258978369999,None,1255.4258978369999,None,1256.375985353,None,1256.375985353,None,They both like it... senna says it tastes like the sea,I dont remember maybe 3 years,"[1, 2]",1257.6106351299995,None,1257.6106351299995,None,1257.6106351299995,None,1257.6106351299995,None,1257.6106351299995,None,1257.6106351299995,None,1257.6106351299995,None,3 yellow diamonds,1273.4092524799999,None,1273.4092524799999,None,1273.4092524799999,None,1273.4092524799999,None,1273.4092524799999,None,1273.4092524799999,None,1273.4092524799999,None,Cake,1280.3764743450001,None,1280.3764743450001,None,1280.3764743450001,None,1280.3764743450001,None,1280.3764743450001,None,1280.3764743450001,None,1280.3764743450001,None,Father maybe,1283.092882688,None,1283.092882688,None,1283.092882688,None,1283.092882688,None,1283.092882688,None,1283.092882688,None,1283.092882688,None,"Fancy, with chandelier and big windows with views",1289.0930973120003,None,1289.0930973120003,None,1289.0930973120003,None,1289.0930973120003,None,1289.0930973120003,None,1289.0930973120003,None,1289.0930973120003,None,Tiny with no prices,1297.841523856,None,1297.841523856,None,1297.841523856,None,1297.841523856,None,1297.841523856,None,1297.841523856,None,1297.841523856,None,Senna order a oyster something with parmesan i think; alvira order seafood as well... scallops with carmelized apples maybe,1303.4579951590003,None,1303.4579951590003,None,1303.4579951590003,None,1303.4579951590003,None,1303.4579951590003,None,1303.4579951590003,None,1303.4579951590003,None,They both like it... senna says it tastes like the sea,1337.7587224609997,None,1337.7587224609997,None,1337.7587224609997,None,1337.7587224609997,None,1337.7587224609997,None,1337.7587224609997,None,1337.7587224609997,None,,,041421,3,2,0,2,1,64,2021_Apr_16_1335,short_answer,3.2.4,60.17995370842687,
,10,,,,,0,10,10,10,,,,,,,,,,,,,,,,,,,,,,,,,,,,,,,,,,,,,,,,,,,,,,,,,,,,,,,,,,,,,,,,,,,,,,,,,,,,,,,,,,,,,,,,,,,,,,,,,,,,,,,,,,,,,,,,,,,,,,,,,,,,,,,,,,,,,,,,,,,,,,,,,,,,,,,,,,,,,,,041421,3,2,0,2,1,64,2021_Apr_16_1335,short_answer,3.2.4,60.17995370842687,
,11,,,,,0,11,11,11,0,0,0,0,,,,,,,,,,,,,,,,,1351.3421435540004,None,space,0.6486745679994783,1351.3421435540004,None,1351.3421435540004,None,1351.3421435540004,None,1352.0251625969995,None,1352.0251625969995,None,I dont remember,Maria has been thinking about it for six weeks i think,"[1, 2]",1354.108653364,None,1354.108653364,None,1354.108653364,None,1354.108653364,None,1354.108653364,None,1354.108653364,None,1354.108653364,None,Maria is going to study abroad and wants to immersed where they are,1367.9418309880002,None,1367.9418309880002,None,1367.9418309880002,None,1367.9418309880002,None,1367.9418309880002,None,1367.9418309880002,None,1367.9418309880002,None,"No, they want to state together because henry loves her... he offers to travel to where maria is studying",1385.525434356,None,1385.525434356,None,1385.525434356,None,1385.525434356,None,1385.525434356,None,1385.525434356,None,1385.525434356,None,Maria wants her alpaca sweater back,1407.608321787,None,1407.608321787,None,1407.608321787,None,1407.608321787,None,1407.608321787,None,1407.608321787,None,1407.608321787,None,I do not remember,1419.4739406239996,None,1419.4739406239996,None,1419.4739406239996,None,1419.4739406239996,None,1419.4739406239996,None,1419.4739406239996,None,1419.4739406239996,None,Roman history.... augustus ,1423.891586156,None,1423.891586156,None,1423.891586156,None,1423.891586156,None,1423.891586156,None,1423.891586156,None,1423.891586156,None,"Something about augustus, but i dont remember what it was",1438.7409326870002,None,1438.7409326870002,None,1438.7409326870002,None,1438.7409326870002,None,1438.7409326870002,None,1438.7409326870002,None,1438.7409326870002,None,I dont remember,1460.3406910499998,None,1460.3406910499998,None,1460.3406910499998,None,1460.3406910499998,None,1460.3406910499998,None,1460.3406910499998,None,1460.3406910499998,None,,,041421,3,2,0,2,1,64,2021_Apr_16_1335,short_answer,3.2.4,60.17995370842687,
,11,,,,,0,11,11,11,,,,,,,,,,,,,,,,,,,,,,,,,,,,,,,,,,,,,,,,,,,,,,,,,,,,,,,,,,,,,,,,,,,,,,,,,,,,,,,,,,,,,,,,,,,,,,,,,,,,,,,,,,,,,,,,,,,,,,,,,,,,,,,,,,,,,,,,,,,,,,,,,,,,,,,,,,,,,,,041421,3,2,0,2,1,64,2021_Apr_16_1335,short_answer,3.2.4,60.17995370842687,
,12,,,,,0,12,12,12,,,,,,,,,,,,,,,,,,,,,,,,,,,,,,,,,,,,,,,,,,,,,,,,,,,,,,,,,,,,,,,,,,,,,,,,,,,,,,,,,,,,,,,,,,,,,,,,,,,,,,,,,,,,,,,,,,,,,,,,,,,,,,,,,,,,,,,,,,,,,,,,,,,,,,,,,,,,,,,041421,3,2,0,2,1,64,2021_Apr_16_1335,short_answer,3.2.4,60.17995370842687,
,13,,,,,0,13,13,13,0,0,0,0,,,,,,,,,,,,,,,,,1465.539917272,None,space,0.7019599179993747,1465.539917272,None,1465.539917272,None,1465.539917272,None,1466.2901104920002,None,1466.2901104920002,None,Jessie wants her philosophy books back and calvin makes some of noise or gesture to signal his annoyance at that,I dont know,"[2, 1]",1469.4240513349996,None,1469.4240513349996,None,1469.4240513349996,None,1469.4240513349996,None,1469.4240513349996,None,1469.4240513349996,None,1469.4240513349996,None,I don't remember a holdup but calvin remarks that he could have smuggled anything in with his shoes,1474.590466951,None,1474.590466951,None,1474.590466951,None,1474.590466951,None,1474.590466951,None,1474.590466951,None,1474.590466951,None,I do not remember,1508.557163159,None,1508.557163159,None,1508.557163159,None,1508.557163159,None,1508.557163159,None,1508.557163159,None,1508.557163159,None,"Ahh this is the one where they sits three seats apart, in like 31 and 34 a and f, respectively",1512.6733664989997,None,1512.6733664989997,None,1512.6733664989997,None,1512.6733664989997,None,1512.6733664989997,None,1512.6733664989997,None,1512.6733664989997,None,"6 weeks, since before the trip to jamaica",1535.5400751899997,None,1535.5400751899997,None,1535.5400751899997,None,1535.5400751899997,None,1535.5400751899997,None,1535.5400751899997,None,1535.5400751899997,None,Their personalities clash i think,1547.5072271179997,None,1547.5072271179997,None,1547.5072271179997,None,1547.5072271179997,None,1547.5072271179997,None,1547.5072271179997,None,1547.5072271179997,None,"Initially i don't know, but after calvin sort of walks off without responding he agrees that when they get back home they should split up",1559.9567704869996,None,1559.9567704869996,None,1559.9567704869996,None,1559.9567704869996,None,1559.9567704869996,None,1559.9567704869996,None,1559.9567704869996,None,Jessie wants her philosophy books back and calvin makes some of noise or gesture to signal his annoyance at that,1601.7228688220002,None,1601.7228688220002,None,1601.7228688220002,None,1601.7228688220002,None,1601.7228688220002,None,1601.7228688220002,None,1601.7228688220002,None,,,041421,3,2,0,2,1,64,2021_Apr_16_1335,short_answer,3.2.4,60.17995370842687,
,13,,,,,0,13,13,13,,,,,,,,,,,,,,,,,,,,,,,,,,,,,,,,,,,,,,,,,,,,,,,,,,,,,,,,,,,,,,,,,,,,,,,,,,,,,,,,,,,,,,,,,,,,,,,,,,,,,,,,,,,,,,,,,,,,,,,,,,,,,,,,,,,,,,,,,,,,,,,,,,,,,,,,,,,,,,,041421,3,2,0,2,1,64,2021_Apr_16_1335,short_answer,3.2.4,60.17995370842687,
,14,,,,,0,14,14,14,0,0,0,0,,,,,,,,,,,,,,,,,1628.0211792179998,None,space,0.7953918630000771,1628.0211792179998,None,1628.0211792179998,None,1628.0211792179998,None,1628.854336933,None,1628.854336933,None,Idk,"Charlie is part of investment group and alma is some sort of develop of a product, i think a tech product of some sort","[1, 2]",1630.1719351579995,None,1630.1719351579995,None,1630.1719351579995,None,1630.1719351579995,None,1630.1719351579995,None,1630.1719351579995,None,1630.1719351579995,None,"28000, but almas wants the intial, which is double that so 56k",1655.1882029480003,None,1655.1882029480003,None,1655.1882029480003,None,1655.1882029480003,None,1655.1882029480003,None,1655.1882029480003,None,1655.1882029480003,None,Churchill investment group questionmark,1679.4379291349996,None,1679.4379291349996,None,1679.4379291349996,None,1679.4379291349996,None,1679.4379291349996,None,1679.4379291349996,None,1679.4379291349996,None,A hug,1692.2215454469997,None,1692.2215454469997,None,1692.2215454469997,None,1692.2215454469997,None,1692.2215454469997,None,1692.2215454469997,None,1692.2215454469997,None,I do not remember,1697.1541882350002,None,1697.1541882350002,None,1697.1541882350002,None,1697.1541882350002,None,1697.1541882350002,None,1697.1541882350002,None,1697.1541882350002,None,This one may have been the roman history one... i don't remember,1705.270861463,None,1705.270861463,None,1705.270861463,None,1705.270861463,None,1705.270861463,None,1705.270861463,None,1705.270861463,None,Idk,1724.0032393780002,None,1724.0032393780002,None,1724.0032393780002,None,1724.0032393780002,None,1724.0032393780002,None,1724.0032393780002,None,1724.0032393780002,None,Idk,1726.7376941829998,None,1726.7376941829998,None,1726.7376941829998,None,1726.7376941829998,None,1726.7376941829998,None,1726.7376941829998,None,1726.7376941829998,None,,,041421,3,2,0,2,1,64,2021_Apr_16_1335,short_answer,3.2.4,60.17995370842687,
,14,,,,,0,14,14,14,,,,,,,,,,,,,,,,,,,,,,,,,,,,,,,,,,,,,,,,,,,,,,,,,,,,,,,,,,,,,,,,,,,,,,,,,,,,,,,,,,,,,,,,,,,,,,,,,,,,,,,,,,,,,,,,,,,,,,,,,,,,,,,,,,,,,,,,,,,,,,,,,,,,,,,,,,,,,,,041421,3,2,0,2,1,64,2021_Apr_16_1335,short_answer,3.2.4,60.17995370842687,
,15,,,,,0,15,15,15,,,,,,,,,,,,,,,,,,,,,,,,,,,,,,,,,,,,,,,,,,,,,,,,,,,,,,,,,,,,,,,,,,,,,,,,,,,,,,,,,,,,,,,,,,,,,,,,,,,,,,,,,,,,,,,,,,,,,,,,,,,,,,,,,,,,,,,,,,,,,,,,,,,,,,,,,,,,,,,041421,3,2,0,2,1,64,2021_Apr_16_1335,short_answer,3.2.4,60.17995370842687,
,,,,,,,,,,,,,,0,0,0,0,,,,,,,,,,,,,,,,,,,,,,,,,,,,,,,,,,,,,,,,,,,,,,,,,,,,,,,,,,,,,,,,,,,,,,,,,,,,,,,,,,,,,,,,,,,,,,,,,,,,,,,,,,,,,,,,,,,,,,,,,,,,,,,,,,,,,,,,,,,,,,,,,,,,,1729.3194349819996,None,041421,3,2,0,2,1,64,2021_Apr_16_1335,short_answer,3.2.4,60.17995370842687,
