count,audio,trials_14.thisRepN,trials_14.thisTrialN,trials_14.thisN,trials_14.thisIndex,trials_3.thisRepN,trials_3.thisTrialN,trials_3.thisN,trials_3.thisIndex,trials_4.thisRepN,trials_4.thisTrialN,trials_4.thisN,trials_4.thisIndex,trials_6.thisRepN,trials_6.thisTrialN,trials_6.thisN,trials_6.thisIndex,trials_9.thisRepN,trials_9.thisTrialN,trials_9.thisN,trials_9.thisIndex,trials_10.thisRepN,trials_10.thisTrialN,trials_10.thisN,trials_10.thisIndex,trials_12.thisRepN,trials_12.thisTrialN,trials_12.thisN,trials_12.thisIndex,trials_25.thisRepN,trials_25.thisTrialN,trials_25.thisN,trials_25.thisIndex,trials_15.thisRepN,trials_15.thisTrialN,trials_15.thisN,trials_15.thisIndex,trials_26.thisRepN,trials_26.thisTrialN,trials_26.thisN,trials_26.thisIndex,trials_11.thisRepN,trials_11.thisTrialN,trials_11.thisN,trials_11.thisIndex,trials_8.thisRepN,trials_8.thisTrialN,trials_8.thisN,trials_8.thisIndex,story_list_block2,action_list_block2,textTrigger.started,textTrigger.stopped,getTrigger.keys,getTrigger.rt,getTrigger.started,getTrigger.stopped,triggerTime,text_76.started,text_76.stopped,text_77.started,text_77.stopped,startWait,endWait,image_23.started,image_23.stopped,text_55.started,text_55.stopped,text_56.started,text_56.stopped,key_resp_2.keys,key_resp_2.rt,key_resp_2.started,key_resp_2.stopped,text_82.started,text_82.stopped,text_64.started,text_64.stopped,key_resp_20.keys,key_resp_20.rt,key_resp_20.started,key_resp_20.stopped,storyImage_StartTime,storyImage_EndTime,clip_StartTime,clip_EndTime,text_67.started,text_67.stopped,text_68.started,text_68.stopped,text_57.started,text_57.stopped,key_resp_17.keys,key_resp_17.rt,key_resp_17.started,key_resp_17.stopped,text_83.started,text_83.stopped,text_60.started,text_60.stopped,image_2.started,image_2.stopped,text_58.started,text_58.stopped,key_resp_23.keys,key_resp_23.rt,key_resp_23.started,key_resp_23.stopped,text_62.started,text_62.stopped,key_resp_18.keys,key_resp_18.rt,key_resp_18.started,key_resp_18.stopped,text_84.started,text_84.stopped,question1_2.started,question1_2.stopped,question2_2.started,question2_2.stopped,question3_2.started,question3_2.stopped,question4_2.started,question4_2.stopped,question5_2.started,question5_2.stopped,question6_2.started,question6_2.stopped,image_15.started,image_15.stopped,key_resp.keys,key_resp.started,key_resp.stopped,text_59.started,text_59.stopped,key_resp_19.keys,key_resp_19.rt,key_resp_19.started,key_resp_19.stopped,text_85.started,text_85.stopped,text_61.started,text_61.stopped,image_17.started,image_17.stopped,text_63.started,text_63.stopped,key_resp_24.keys,key_resp_24.rt,key_resp_24.started,key_resp_24.stopped,text_36.started,text_36.stopped,participant,sA,sB,lA,lB,block_struct,play_stories,block,behavioral,random_seed,date,expName,psychopyVersion,frameRate,
0,parcelated_audio/24/24_1.ogg,,,,,,,,,0,0,0,0,0,0,0,0,0,0,0,0,,,,,,,,,0,0,0,0,0,0,0,0,,,,,,,,,,,,,[24 31 22 13 44 11 33 42],[4 3 4 2 1 2 3 1],14.433426704999874,None,equal,35.93206636499963,14.433426704999874,None,35.95846905800863,14.433426704999874,None,14.433426704999874,None,0.0003966369986301288,6.014652464989922,50.39970830999664,None,56.41167880699504,None,56.41167880699504,None,2,1.7769851900084177,56.41167880699504,None,56.41167880699504,None,58.212538701001904,None,2,1.6999822950019734,58.212538701001904,None,9.556502227002056,12.565539351999178,12.571687793999445,23.018460477003828,,,,,,,,,,,,,,,,,,,,,,,,,,,,,,,,,,,,,,,,,,,,,,,,,,,,,,,,,,,,,,,,,,,,041621,2,3,0,2,0,1,2,0,64,2021_Apr_16_1202,listening_fmri,3.2.4,59.9517497542608,
0,parcelated_audio/24/24_2.ogg,,,,,,,,,0,0,0,0,0,0,0,0,0,0,0,0,,,,,,,,,0,0,0,0,0,1,1,1,,,,,,,,,,,,,,,,,,,,,,,,,,,,,,,,,,,,,,,,,,,,,,,,23.01880555099342,29.333656957998755,,,,,,,,,,,,,,,,,,,,,,,,,,,,,,,,,,,,,,,,,,,,,,,,,,,,,,,,,,,,,,,,,,,,041621,2,3,0,2,0,1,2,0,64,2021_Apr_16_1202,listening_fmri,3.2.4,59.9517497542608,
0,parcelated_audio/24/24_3.ogg,,,,,,,,,0,0,0,0,0,0,0,0,0,0,0,0,,,,,,,,,0,0,0,0,0,2,2,2,,,,,,,,,,,,,,,,,,,,,,,,,,,,,,,,,,,,,,,,,,,,,,,,29.334007379002287,40.91747262899298,,,,,,,,,,,,,,,,,,,,,,,,,,,,,,,,,,,,,,,,,,,,,,,,,,,,,,,,,,,,,,,,,,,,041621,2,3,0,2,0,1,2,0,64,2021_Apr_16_1202,listening_fmri,3.2.4,59.9517497542608,
0,parcelated_audio/24/24_4.ogg,,,,,,,,,0,0,0,0,0,0,0,0,0,0,0,0,,,,,,,,,0,0,0,0,0,3,3,3,,,,,,,,,,,,,,,,,,,,,,,,,,,,,,,,,,,,,,,,,,,,,,,,40.9178190829989,47.81378605499049,,,,,,,,,,,,,,,,,,,,,,,,,,,,,,,,,,,,,,,,,,,,,,,,,,,,,,,,,,,,,,,,,,,,041621,2,3,0,2,0,1,2,0,64,2021_Apr_16_1202,listening_fmri,3.2.4,59.9517497542608,
0,parcelated_audio/24/24_5.ogg,,,,,,,,,0,0,0,0,0,0,0,0,0,0,0,0,,,,,,,,,0,0,0,0,0,4,4,4,,,,,,,,,,,,,,,,,,,,,,,,,,,,,,,,,,,,,,,,,,,,,,,,47.81507422099821,52.7782940390025,,,,,,,,,,,,,,,,,,,,,,,,,,,,,,,,,,,,,,,,,,,,,,,,,,,,,,,,,,,,,,,,,,,,041621,2,3,0,2,0,1,2,0,64,2021_Apr_16_1202,listening_fmri,3.2.4,59.9517497542608,
0,parcelated_audio/24/24_6.ogg,,,,,,,,,0,0,0,0,0,0,0,0,0,0,0,0,,,,,,,,,0,0,0,0,0,5,5,5,,,,,,,,,,,,,,,,,,,,,,,,,,,,,,,,,,,,,,,,,,,,,,,,52.77925622199837,60.22839005099377,,,,,,,,,,,,,,,,,,,,,,,,,,,,,,,,,,,,,,,,,,,,,,,,,,,,,,,,,,,,,,,,,,,,041621,2,3,0,2,0,1,2,0,64,2021_Apr_16_1202,listening_fmri,3.2.4,59.9517497542608,
0,parcelated_audio/24/24_7.ogg,,,,,,,,,0,0,0,0,0,0,0,0,0,0,0,0,,,,,,,,,0,0,0,0,0,6,6,6,,,,,,,,,,,,,,,,,,,,,,,,,,,,,,,,,,,,,,,,,,,,,,,,60.228708223003196,64.60648991999915,,,,,,,,,,,,,,,,,,,,,,,,,,,,,,,,,,,,,,,,,,,,,,,,,,,,,,,,,,,,,,,,,,,,041621,2,3,0,2,0,1,2,0,64,2021_Apr_16_1202,listening_fmri,3.2.4,59.9517497542608,
0,parcelated_audio/24/24_8.ogg,,,,,,,,,0,0,0,0,0,0,0,0,0,0,0,0,,,,,,,,,0,0,0,0,0,7,7,7,,,,,,,,,,,,,,,,,,,,,,,,,,,,,,,,,,,,,,,,,,,,,,,,64.6068435539928,70.67216995899798,,,,,,,,,,,,,,,,,,,,,,,,,,,,,,,,,,,,,,,,,,,,,,,,,,,,,,,,,,,,,,,,,,,,041621,2,3,0,2,0,1,2,0,64,2021_Apr_16_1202,listening_fmri,3.2.4,59.9517497542608,
0,parcelated_audio/24/24_9.ogg,,,,,,,,,0,0,0,0,0,0,0,0,0,0,0,0,,,,,,,,,0,0,0,0,0,8,8,8,,,,,,,,,,,,,,,,,,,,,,,,,,,,,,,,,,,,,,,,,,,,,,,,70.67253352000262,75.09750522399554,,,,,,,,,,,,,,,,,,,,,,,,,,,,,,,,,,,,,,,,,,,,,,,,,,,,,,,,,,,,,,,,,,,,041621,2,3,0,2,0,1,2,0,64,2021_Apr_16_1202,listening_fmri,3.2.4,59.9517497542608,
0,parcelated_audio/24/24_10.ogg,,,,,,,,,0,0,0,0,0,0,0,0,0,0,0,0,,,,,,,,,0,0,0,0,0,9,9,9,,,,,,,,,,,,,,,,,,,,,,,,,,,,,,,,,,,,,,,,,,,,,,,,75.09784019899962,78.83678705600323,,,,,,,,,,,,,,,,,,,,,,,,,,,,,,,,,,,,,,,,,,,,,,,,,,,,,,,,,,,,,,,,,,,,041621,2,3,0,2,0,1,2,0,64,2021_Apr_16_1202,listening_fmri,3.2.4,59.9517497542608,
0,parcelated_audio/24/24_11.ogg,,,,,,,,,0,0,0,0,0,0,0,0,0,0,0,0,,,,,,,,,0,0,0,0,0,10,10,10,,,,,,,,,,,,,,,,,,,,,,,,,,,,,,,,,,,,,,,,,,,,,,,,78.83710773100029,88.95739414199488,,,,,,,,,,,,,,,,,,,,,,,,,,,,,,,,,,,,,,,,,,,,,,,,,,,,,,,,,,,,,,,,,,,,041621,2,3,0,2,0,1,2,0,64,2021_Apr_16_1202,listening_fmri,3.2.4,59.9517497542608,
0,parcelated_audio/24/24_12.ogg,,,,,,,,,0,0,0,0,0,0,0,0,0,0,0,0,,,,,,,,,0,0,0,0,0,11,11,11,,,,,,,,,,,,,,,,,,,,,,,,,,,,,,,,,,,,,,,,,,,,,,,,88.95769386900065,98.03739477599447,,,,,,,,,,,,,,,,,,,,,,,,,,,,,,,,,,,,,,,,,,,,,,,,,,,,,,,,,,,,,,,,,,,,041621,2,3,0,2,0,1,2,0,64,2021_Apr_16_1202,listening_fmri,3.2.4,59.9517497542608,
0,parcelated_audio/24/24_13.ogg,,,,,,,,,0,0,0,0,0,0,0,0,0,0,0,0,,,,,,,,,0,0,0,0,0,12,12,12,,,,,,,,,,,,,,,,,,,,,,,,,,,,,,,,,,,,,,,,,,,,,,,,98.03766494299634,102.01433241699124,,,,,,,,,,,,,,,,,,,,,,,,,,,,,,,,,,,,,,,,,,,,,,,,,,,,,,,,,,,,,,,,,,,,041621,2,3,0,2,0,1,2,0,64,2021_Apr_16_1202,listening_fmri,3.2.4,59.9517497542608,
0,parcelated_audio/24/24_14.ogg,,,,,,,,,0,0,0,0,0,0,0,0,0,0,0,0,,,,,,,,,0,0,0,0,0,13,13,13,,,,,,,,,,,,,,,,,,,,,,,,,,,,,,,,,,,,,,,,,,,,,,,,102.01460012399184,109.38709373799793,,,,,,,,,,,,,,,,,,,,,,,,,,,,,,,,,,,,,,,,,,,,,,,,,,,,,,,,,,,,,,,,,,,,041621,2,3,0,2,0,1,2,0,64,2021_Apr_16_1202,listening_fmri,3.2.4,59.9517497542608,
0,parcelated_audio/24/24_15.ogg,,,,,,,,,0,0,0,0,0,0,0,0,0,0,0,0,,,,,,,,,0,0,0,0,0,14,14,14,,,,,,,,,,,,,,,,,,,,,,,,,,,,,,,,,,,,,,,,,,,,,,,,109.38756773099885,115.91739211400272,,,,,,,,,,,,,,,,,,,,,,,,,,,,,,,,,,,,,,,,,,,,,,,,,,,,,,,,,,,,,,,,,,,,041621,2,3,0,2,0,1,2,0,64,2021_Apr_16_1202,listening_fmri,3.2.4,59.9517497542608,
0,parcelated_audio/24/24_16.ogg,,,,,,,,,0,0,0,0,0,0,0,0,0,0,0,0,,,,,,,,,0,0,0,0,0,15,15,15,,,,,,,,,,,,,,,,,,,,,,,,,,,,,,,,,,,,,,,,,,,,,,,,115.91766120700049,123.10148040700005,,,,,,,,,,,,,,,,,,,,,,,,,,,,,,,,,,,,,,,,,,,,,,,,,,,,,,,,,,,,,,,,,,,,041621,2,3,0,2,0,1,2,0,64,2021_Apr_16_1202,listening_fmri,3.2.4,59.9517497542608,
0,parcelated_audio/24/24_17.ogg,,,,,,,,,0,0,0,0,0,0,0,0,0,0,0,0,,,,,,,,,0,0,0,0,0,16,16,16,,,,,,,,,,,,,,,,,,,,,,,,,,,,,,,,,,,,,,,,,,,,,,,,123.10193423899182,129.09853691598983,,,,,,,,,,,,,,,,,,,,,,,,,,,,,,,,,,,,,,,,,,,,,,,,,,,,,,,,,,,,,,,,,,,,041621,2,3,0,2,0,1,2,0,64,2021_Apr_16_1202,listening_fmri,3.2.4,59.9517497542608,
0,parcelated_audio/24/24_18.ogg,,,,,,,,,0,0,0,0,0,0,0,0,0,0,0,0,,,,,,,,,0,0,0,0,0,17,17,17,,,,,,,,,,,,,,,,,,,,,,,,,,,,,,,,,,,,,,,,,,,,,,,,129.09899156799656,137.54490552099014,,,,,,,,,,,,,,,,,,,,,,,,,,,,,,,,,,,,,,,,,,,,,,,,,,,,,,,,,,,,,,,,,,,,041621,2,3,0,2,0,1,2,0,64,2021_Apr_16_1202,listening_fmri,3.2.4,59.9517497542608,
0,parcelated_audio/24/24_19.ogg,,,,,,,,,0,0,0,0,0,0,0,0,0,0,0,0,,,,,,,,,0,0,0,0,0,18,18,18,,,,,,,,,,,,,,,,,,,,,,,,,,,,,,,,,,,,,,,,,,,,,,,,137.5458902669925,147.17884207799216,,,,,,,,,,,,,,,,,,,,,,,,,,,,,,,,,,,,,,,,,,,,,,,,,,,,,,,,,,,,,,,,,,,,041621,2,3,0,2,0,1,2,0,64,2021_Apr_16_1202,listening_fmri,3.2.4,59.9517497542608,
0,parcelated_audio/24/24_20.ogg,,,,,,,,,0,0,0,0,0,0,0,0,0,0,0,0,,,,,,,,,0,0,0,0,0,19,19,19,,,,,,,,,,,,,,,,,,,,,,,,,,,,,,,,,,,,,,,,,,,,,,,,147.17913898199913,151.6504522019968,,,,,,,,,,,,,,,,,,,,,,,,,,,,,,,,,,,,,,,,,,,,,,,,,,,,,,,,,,,,,,,,,,,,041621,2,3,0,2,0,1,2,0,64,2021_Apr_16_1202,listening_fmri,3.2.4,59.9517497542608,
0,parcelated_audio/24/24_21.ogg,,,,,,,,,0,0,0,0,0,0,0,0,0,0,0,0,,,,,,,,,0,0,0,0,0,20,20,20,,,,,,,,,,,,,,,,,,,,,,,,,,,,,,,,,,,,,,,,,,,,,,,,151.65080091299023,159.66962712799432,,,,,,,,,,,,,,,,,,,,,,,,,,,,,,,,,,,,,,,,,,,,,,,,,,,,,,,,,,,,,,,,,,,,041621,2,3,0,2,0,1,2,0,64,2021_Apr_16_1202,listening_fmri,3.2.4,59.9517497542608,
0,parcelated_audio/24/24_22.ogg,,,,,,,,,0,0,0,0,0,0,0,0,0,0,0,0,,,,,,,,,0,0,0,0,0,21,21,21,,,,,,,,,,,,,,,,,,,,,,,,,,,,,,,,,,,,,,,,,,,,,,,,159.6699669630034,170.26176351399045,,,,,,,,,,,,,,,,,,,,,,,,,,,,,,,,,,,,,,,,,,,,,,,,,,,,,,,,,,,,,,,,,,,,041621,2,3,0,2,0,1,2,0,64,2021_Apr_16_1202,listening_fmri,3.2.4,59.9517497542608,
0,parcelated_audio/24/24_23.ogg,,,,,,,,,0,0,0,0,0,0,0,0,0,0,0,0,,,,,,,,,0,0,0,0,0,22,22,22,,,,,,,,,,,,,,,,,,,,,,,,,,,,,,,,,,,,,,,,,,,,,,,,170.2621163619915,180.46690263299388,,,,,,,,,,,,,,,,,,,,,,,,,,,,,,,,,,,,,,,,,,,,,,,,,,,,,,,,,,,,,,,,,,,,041621,2,3,0,2,0,1,2,0,64,2021_Apr_16_1202,listening_fmri,3.2.4,59.9517497542608,
0,parcelated_audio/24/24_24.ogg,,,,,,,,,0,0,0,0,0,0,0,0,0,0,0,0,,,,,,,,,0,0,0,0,0,23,23,23,,,,,,,,,,,,,,,,,,,,,,,,,,,,,,,,,,,,,,,,,,,,,,,,180.46724960699794,187.03167197799485,,,,,,,,,,,,,,,,,,,,,,,,,,,,,,,,,,,,,,,,,,,,,,,,,,,,,,,,,,,,,,,,,,,,041621,2,3,0,2,0,1,2,0,64,2021_Apr_16_1202,listening_fmri,3.2.4,59.9517497542608,
0,parcelated_audio/24/24_25.ogg,,,,,,,,,0,0,0,0,0,0,0,0,0,0,0,0,,,,,,,,,0,0,0,0,0,24,24,24,,,,,,,,,,,,,,,,,,,,,,,,,,,,,,,,,,,,,,,,,,,,,,,,187.03276869100227,195.76783465399058,,,,,,,,,,,,,,,,,,,,,,,,,,,,,,,,,,,,,,,,,,,,,,,,,,,,,,,,,,,,,,,,,,,,041621,2,3,0,2,0,1,2,0,64,2021_Apr_16_1202,listening_fmri,3.2.4,59.9517497542608,
0,parcelated_audio/24/24_26.ogg,,,,,,,,,0,0,0,0,0,0,0,0,0,0,0,0,,,,,,,,,0,0,0,0,0,25,25,25,,,,,,,,,,,,,,,,,,,,,,,,,,,,,,,,,,,,,,,,,,,,,,,,195.76813894699444,202.33420030599518,,,,,,,,,,,,,,,,,,,,,,,,,,,,,,,,,,,,,,,,,,,,,,,,,,,,,,,,,,,,,,,,,,,,041621,2,3,0,2,0,1,2,0,64,2021_Apr_16_1202,listening_fmri,3.2.4,59.9517497542608,
0,parcelated_audio/24/24_27.ogg,,,,,,,,,0,0,0,0,0,0,0,0,0,0,0,0,,,,,,,,,0,0,0,0,0,26,26,26,,,,,,,,,,,,,,,,,,,,,,,,,,,,,,,,,,,,,,,,,,,,,,,,202.33446779899532,208.51016678499582,,,,,,,,,,,,,,,,,,,,,,,,,,,,,,,,,,,,,,,,,,,,,,,,,,,,,,,,,,,,,,,,,,,,041621,2,3,0,2,0,1,2,0,64,2021_Apr_16_1202,listening_fmri,3.2.4,59.9517497542608,
0,parcelated_audio/24/24_28.ogg,,,,,,,,,0,0,0,0,0,0,0,0,0,0,0,0,,,,,,,,,0,0,0,0,0,27,27,27,,,,,,,,,,,,,,,,,,,,,,,,,,,,,,,,,,,,,,,,,,,,,,,,208.51048044799245,213.00548421499843,,,,,,,,,,,,,,,,,,,,,,,,,,,,,,,,,,,,,,,,,,,,,,,,,,,,,,,,,,,,,,,,,,,,041621,2,3,0,2,0,1,2,0,64,2021_Apr_16_1202,listening_fmri,3.2.4,59.9517497542608,
0,parcelated_audio/24/24_29.ogg,,,,,,,,,0,0,0,0,0,0,0,0,0,0,0,0,,,,,,,,,0,0,0,0,0,28,28,28,,,,,,,,,,,,,,,,,,,,,,,,,,,,,,,,,,,,,,,,,,,,,,,,213.00585156999296,219.28693254299287,,,,,,,,,,,,,,,,,,,,,,,,,,,,,,,,,,,,,,,,,,,,,,,,,,,,,,,,,,,,,,,,,,,,041621,2,3,0,2,0,1,2,0,64,2021_Apr_16_1202,listening_fmri,3.2.4,59.9517497542608,
0,parcelated_audio/24/24_30.ogg,,,,,,,,,0,0,0,0,0,0,0,0,0,0,0,0,,,,,,,,,0,0,0,0,0,29,29,29,,,,,,,,,,,,,,,,,,,,,,,,,,,,,,,,,,,,,,,,,,,,,,,,219.28720399699523,225.53712729699328,,,,,,,,,,,,,,,,,,,,,,,,,,,,,,,,,,,,,,,,,,,,,,,,,,,,,,,,,,,,,,,,,,,,041621,2,3,0,2,0,1,2,0,64,2021_Apr_16_1202,listening_fmri,3.2.4,59.9517497542608,
0,parcelated_audio/24/24_31.ogg,,,,,,,,,0,0,0,0,0,0,0,0,0,0,0,0,,,,,,,,,0,0,0,0,0,30,30,30,,,,,,,,,,,,,,,,,,,,,,,,,,,,,,,,,,,,,,,,,,,,,,,,225.53740993200336,232.20817034199717,,,,,,,,,,,,,,,,,,,,,,,,,,,,,,,,,,,,,,,,,,,,,,,,,,,,,,,,,,,,,,,,,,,,041621,2,3,0,2,0,1,2,0,64,2021_Apr_16_1202,listening_fmri,3.2.4,59.9517497542608,
0,parcelated_audio/24/24_32.ogg,,,,,,,,,0,0,0,0,0,0,0,0,0,0,0,0,,,,,,,,,0,0,0,0,0,31,31,31,,,,,,,,,,,,,,,,,,,,,,,,,,,,,,,,,,,,,,,,,,,,,,,,232.20845833099156,243.00338431999262,,,,,,,,,,,,,,,,,,,,,,,,,,,,,,,,,,,,,,,,,,,,,,,,,,,,,,,,,,,,,,,,,,,,041621,2,3,0,2,0,1,2,0,64,2021_Apr_16_1202,listening_fmri,3.2.4,59.9517497542608,
0,,,,,,,,,,0,0,0,0,0,0,0,0,0,0,0,0,,,,,,,,,0,0,0,0,,,,,,,,,,,,,,,,,,,,,,,,,,,,,,,,,,,,,,,,,,,,,,,,,,,,,,,,,,,,,,,,,,,,,,,,,,,,,,,,,,,,,,,,,,,,,,,,,,,,,,,,,,,,,,,,,,,,,,,,,041621,2,3,0,2,0,1,2,0,64,2021_Apr_16_1202,listening_fmri,3.2.4,59.9517497542608,
0,,,,,,,,,,0,0,0,0,0,0,0,0,0,0,0,0,,,,,,,,,,,,,,,,,,,,,,,,,,,,,,,,,,,,,,,,,,243.003756606995,248.9985925380024,293.39538170199376,None,,,,,,,,,,,,,,,,,,,,,299.3954118130059,None,299.3954118130059,None,,,,,,,,,,,,,,,,,,,,,,,,,,,,,,,,,,,,,,,,,,,,,,,,,,,,,,,,,,,,,,,,041621,2,3,0,2,0,1,2,0,64,2021_Apr_16_1202,listening_fmri,3.2.4,59.9517497542608,
0,,,,,,,,,,0,0,0,0,0,0,0,0,,,,,,,,,,,,,,,,,,,,,,,,,,,,,,,,,,,,,,,,,,,,,,,,,,,,,,,,,,,,,,,,,,,,,,,,,,,,,,,,,,,,,,,,,,,,,,,,,,,,,,,,,,,,,,,,,,,,,,,,,,,,,,,,,,,,,,,,,041621,2,3,0,2,0,1,2,0,64,2021_Apr_16_1202,listening_fmri,3.2.4,59.9517497542608,
1,,,,,,,,,,0,0,0,0,0,1,1,1,,,,,,,,,,,,,,,,,,,,,,,,,,,,,,,,,,,,,,,,,,,,,,,,,,,,,,,,,,,,,,,,,,,,,,,,,,,,,,,,,,,,,,,,,,,,,,,,,,,,,,,,,,,,,,,,,,,,,,,,,,,,,,,,,,,,,,,,,041621,2,3,0,2,0,1,2,0,64,2021_Apr_16_1202,listening_fmri,3.2.4,59.9517497542608,
2,parcelated_audio/22/22_1.ogg,,,,,,,,,0,0,0,0,0,2,2,2,0,0,0,0,,,,,,,,,0,0,0,0,0,0,0,0,,,,,,,,,,,,,,,,,,,,,,,,,,,,,,300.39567409800657,None,300.39567409800657,None,2,1.9838488319946919,300.39567409800657,None,300.39567409800657,None,302.41278880200116,None,2,4.08073462700122,302.41278880200116,None,256.12187643199286,259.13250643300125,259.1377797640016,272.1734833060036,,,,,,,,,,,,,,,,,,,,,,,,,,,,,,,,,,,,,,,,,,,,,,,,,,,,,,,,,,,,,,,,,,,,041621,2,3,0,2,0,1,2,0,64,2021_Apr_16_1202,listening_fmri,3.2.4,59.9517497542608,
2,parcelated_audio/22/22_2.ogg,,,,,,,,,0,0,0,0,0,2,2,2,0,0,0,0,,,,,,,,,0,0,0,0,0,1,1,1,,,,,,,,,,,,,,,,,,,,,,,,,,,,,,,,,,,,,,,,,,,,,,,,272.17383188699023,278.55500735199894,,,,,,,,,,,,,,,,,,,,,,,,,,,,,,,,,,,,,,,,,,,,,,,,,,,,,,,,,,,,,,,,,,,,041621,2,3,0,2,0,1,2,0,64,2021_Apr_16_1202,listening_fmri,3.2.4,59.9517497542608,
2,parcelated_audio/22/22_3.ogg,,,,,,,,,0,0,0,0,0,2,2,2,0,0,0,0,,,,,,,,,0,0,0,0,0,2,2,2,,,,,,,,,,,,,,,,,,,,,,,,,,,,,,,,,,,,,,,,,,,,,,,,278.5553737930022,291.4685060299962,,,,,,,,,,,,,,,,,,,,,,,,,,,,,,,,,,,,,,,,,,,,,,,,,,,,,,,,,,,,,,,,,,,,041621,2,3,0,2,0,1,2,0,64,2021_Apr_16_1202,listening_fmri,3.2.4,59.9517497542608,
2,parcelated_audio/22/22_4.ogg,,,,,,,,,0,0,0,0,0,2,2,2,0,0,0,0,,,,,,,,,0,0,0,0,0,3,3,3,,,,,,,,,,,,,,,,,,,,,,,,,,,,,,,,,,,,,,,,,,,,,,,,291.46970555999724,303.877179239993,,,,,,,,,,,,,,,,,,,,,,,,,,,,,,,,,,,,,,,,,,,,,,,,,,,,,,,,,,,,,,,,,,,,041621,2,3,0,2,0,1,2,0,64,2021_Apr_16_1202,listening_fmri,3.2.4,59.9517497542608,
2,parcelated_audio/22/22_5.ogg,,,,,,,,,0,0,0,0,0,2,2,2,0,0,0,0,,,,,,,,,0,0,0,0,0,4,4,4,,,,,,,,,,,,,,,,,,,,,,,,,,,,,,,,,,,,,,,,,,,,,,,,303.87754458199197,309.80296102799184,,,,,,,,,,,,,,,,,,,,,,,,,,,,,,,,,,,,,,,,,,,,,,,,,,,,,,,,,,,,,,,,,,,,041621,2,3,0,2,0,1,2,0,64,2021_Apr_16_1202,listening_fmri,3.2.4,59.9517497542608,
2,parcelated_audio/22/22_6.ogg,,,,,,,,,0,0,0,0,0,2,2,2,0,0,0,0,,,,,,,,,0,0,0,0,0,5,5,5,,,,,,,,,,,,,,,,,,,,,,,,,,,,,,,,,,,,,,,,,,,,,,,,309.8032865599962,318.9956912579946,,,,,,,,,,,,,,,,,,,,,,,,,,,,,,,,,,,,,,,,,,,,,,,,,,,,,,,,,,,,,,,,,,,,041621,2,3,0,2,0,1,2,0,64,2021_Apr_16_1202,listening_fmri,3.2.4,59.9517497542608,
2,parcelated_audio/22/22_7.ogg,,,,,,,,,0,0,0,0,0,2,2,2,0,0,0,0,,,,,,,,,0,0,0,0,0,6,6,6,,,,,,,,,,,,,,,,,,,,,,,,,,,,,,,,,,,,,,,,,,,,,,,,318.99596003699116,324.0746521050023,,,,,,,,,,,,,,,,,,,,,,,,,,,,,,,,,,,,,,,,,,,,,,,,,,,,,,,,,,,,,,,,,,,,041621,2,3,0,2,0,1,2,0,64,2021_Apr_16_1202,listening_fmri,3.2.4,59.9517497542608,
2,parcelated_audio/22/22_8.ogg,,,,,,,,,0,0,0,0,0,2,2,2,0,0,0,0,,,,,,,,,0,0,0,0,0,7,7,7,,,,,,,,,,,,,,,,,,,,,,,,,,,,,,,,,,,,,,,,,,,,,,,,324.0750638519967,327.69916349099367,,,,,,,,,,,,,,,,,,,,,,,,,,,,,,,,,,,,,,,,,,,,,,,,,,,,,,,,,,,,,,,,,,,,041621,2,3,0,2,0,1,2,0,64,2021_Apr_16_1202,listening_fmri,3.2.4,59.9517497542608,
2,parcelated_audio/22/22_9.ogg,,,,,,,,,0,0,0,0,0,2,2,2,0,0,0,0,,,,,,,,,0,0,0,0,0,8,8,8,,,,,,,,,,,,,,,,,,,,,,,,,,,,,,,,,,,,,,,,,,,,,,,,327.69944819199736,331.59382413199637,,,,,,,,,,,,,,,,,,,,,,,,,,,,,,,,,,,,,,,,,,,,,,,,,,,,,,,,,,,,,,,,,,,,041621,2,3,0,2,0,1,2,0,64,2021_Apr_16_1202,listening_fmri,3.2.4,59.9517497542608,
2,parcelated_audio/22/22_10.ogg,,,,,,,,,0,0,0,0,0,2,2,2,0,0,0,0,,,,,,,,,0,0,0,0,0,9,9,9,,,,,,,,,,,,,,,,,,,,,,,,,,,,,,,,,,,,,,,,,,,,,,,,331.5941003439948,336.3540146079904,,,,,,,,,,,,,,,,,,,,,,,,,,,,,,,,,,,,,,,,,,,,,,,,,,,,,,,,,,,,,,,,,,,,041621,2,3,0,2,0,1,2,0,64,2021_Apr_16_1202,listening_fmri,3.2.4,59.9517497542608,
2,parcelated_audio/22/22_11.ogg,,,,,,,,,0,0,0,0,0,2,2,2,0,0,0,0,,,,,,,,,0,0,0,0,0,10,10,10,,,,,,,,,,,,,,,,,,,,,,,,,,,,,,,,,,,,,,,,,,,,,,,,336.35483202600153,343.6361635590001,,,,,,,,,,,,,,,,,,,,,,,,,,,,,,,,,,,,,,,,,,,,,,,,,,,,,,,,,,,,,,,,,,,,041621,2,3,0,2,0,1,2,0,64,2021_Apr_16_1202,listening_fmri,3.2.4,59.9517497542608,
2,parcelated_audio/22/22_12.ogg,,,,,,,,,0,0,0,0,0,2,2,2,0,0,0,0,,,,,,,,,0,0,0,0,0,11,11,11,,,,,,,,,,,,,,,,,,,,,,,,,,,,,,,,,,,,,,,,,,,,,,,,343.6364407229994,351.33721293999406,,,,,,,,,,,,,,,,,,,,,,,,,,,,,,,,,,,,,,,,,,,,,,,,,,,,,,,,,,,,,,,,,,,,041621,2,3,0,2,0,1,2,0,64,2021_Apr_16_1202,listening_fmri,3.2.4,59.9517497542608,
2,parcelated_audio/22/22_13.ogg,,,,,,,,,0,0,0,0,0,2,2,2,0,0,0,0,,,,,,,,,0,0,0,0,0,12,12,12,,,,,,,,,,,,,,,,,,,,,,,,,,,,,,,,,,,,,,,,,,,,,,,,351.3374988019932,358.60007344098995,,,,,,,,,,,,,,,,,,,,,,,,,,,,,,,,,,,,,,,,,,,,,,,,,,,,,,,,,,,,,,,,,,,,041621,2,3,0,2,0,1,2,0,64,2021_Apr_16_1202,listening_fmri,3.2.4,59.9517497542608,
2,parcelated_audio/22/22_14.ogg,,,,,,,,,0,0,0,0,0,2,2,2,0,0,0,0,,,,,,,,,0,0,0,0,0,13,13,13,,,,,,,,,,,,,,,,,,,,,,,,,,,,,,,,,,,,,,,,,,,,,,,,358.6011393189983,364.2239860389964,,,,,,,,,,,,,,,,,,,,,,,,,,,,,,,,,,,,,,,,,,,,,,,,,,,,,,,,,,,,,,,,,,,,041621,2,3,0,2,0,1,2,0,64,2021_Apr_16_1202,listening_fmri,3.2.4,59.9517497542608,
2,parcelated_audio/22/22_15.ogg,,,,,,,,,0,0,0,0,0,2,2,2,0,0,0,0,,,,,,,,,0,0,0,0,0,14,14,14,,,,,,,,,,,,,,,,,,,,,,,,,,,,,,,,,,,,,,,,,,,,,,,,364.2242609489913,372.00082084099995,,,,,,,,,,,,,,,,,,,,,,,,,,,,,,,,,,,,,,,,,,,,,,,,,,,,,,,,,,,,,,,,,,,,041621,2,3,0,2,0,1,2,0,64,2021_Apr_16_1202,listening_fmri,3.2.4,59.9517497542608,
2,parcelated_audio/22/22_16.ogg,,,,,,,,,0,0,0,0,0,2,2,2,0,0,0,0,,,,,,,,,0,0,0,0,0,15,15,15,,,,,,,,,,,,,,,,,,,,,,,,,,,,,,,,,,,,,,,,,,,,,,,,372.0011390919972,380.6639758329984,,,,,,,,,,,,,,,,,,,,,,,,,,,,,,,,,,,,,,,,,,,,,,,,,,,,,,,,,,,,,,,,,,,,041621,2,3,0,2,0,1,2,0,64,2021_Apr_16_1202,listening_fmri,3.2.4,59.9517497542608,
2,parcelated_audio/22/22_17.ogg,,,,,,,,,0,0,0,0,0,2,2,2,0,0,0,0,,,,,,,,,0,0,0,0,0,16,16,16,,,,,,,,,,,,,,,,,,,,,,,,,,,,,,,,,,,,,,,,,,,,,,,,380.66426487900026,383.8089492279978,,,,,,,,,,,,,,,,,,,,,,,,,,,,,,,,,,,,,,,,,,,,,,,,,,,,,,,,,,,,,,,,,,,,041621,2,3,0,2,0,1,2,0,64,2021_Apr_16_1202,listening_fmri,3.2.4,59.9517497542608,
2,parcelated_audio/22/22_18.ogg,,,,,,,,,0,0,0,0,0,2,2,2,0,0,0,0,,,,,,,,,0,0,0,0,0,17,17,17,,,,,,,,,,,,,,,,,,,,,,,,,,,,,,,,,,,,,,,,,,,,,,,,383.8092195200006,390.5330245359946,,,,,,,,,,,,,,,,,,,,,,,,,,,,,,,,,,,,,,,,,,,,,,,,,,,,,,,,,,,,,,,,,,,,041621,2,3,0,2,0,1,2,0,64,2021_Apr_16_1202,listening_fmri,3.2.4,59.9517497542608,
2,parcelated_audio/22/22_19.ogg,,,,,,,,,0,0,0,0,0,2,2,2,0,0,0,0,,,,,,,,,0,0,0,0,0,18,18,18,,,,,,,,,,,,,,,,,,,,,,,,,,,,,,,,,,,,,,,,,,,,,,,,390.5334313429921,395.59737105100066,,,,,,,,,,,,,,,,,,,,,,,,,,,,,,,,,,,,,,,,,,,,,,,,,,,,,,,,,,,,,,,,,,,,041621,2,3,0,2,0,1,2,0,64,2021_Apr_16_1202,listening_fmri,3.2.4,59.9517497542608,
2,parcelated_audio/22/22_20.ogg,,,,,,,,,0,0,0,0,0,2,2,2,0,0,0,0,,,,,,,,,0,0,0,0,0,19,19,19,,,,,,,,,,,,,,,,,,,,,,,,,,,,,,,,,,,,,,,,,,,,,,,,395.59769706899533,409.7151511129923,,,,,,,,,,,,,,,,,,,,,,,,,,,,,,,,,,,,,,,,,,,,,,,,,,,,,,,,,,,,,,,,,,,,041621,2,3,0,2,0,1,2,0,64,2021_Apr_16_1202,listening_fmri,3.2.4,59.9517497542608,
2,parcelated_audio/22/22_21.ogg,,,,,,,,,0,0,0,0,0,2,2,2,0,0,0,0,,,,,,,,,0,0,0,0,0,20,20,20,,,,,,,,,,,,,,,,,,,,,,,,,,,,,,,,,,,,,,,,,,,,,,,,409.7155177079985,411.729391610992,,,,,,,,,,,,,,,,,,,,,,,,,,,,,,,,,,,,,,,,,,,,,,,,,,,,,,,,,,,,,,,,,,,,041621,2,3,0,2,0,1,2,0,64,2021_Apr_16_1202,listening_fmri,3.2.4,59.9517497542608,
2,parcelated_audio/22/22_22.ogg,,,,,,,,,0,0,0,0,0,2,2,2,0,0,0,0,,,,,,,,,0,0,0,0,0,21,21,21,,,,,,,,,,,,,,,,,,,,,,,,,,,,,,,,,,,,,,,,,,,,,,,,411.72975769499317,414.88450249999005,,,,,,,,,,,,,,,,,,,,,,,,,,,,,,,,,,,,,,,,,,,,,,,,,,,,,,,,,,,,,,,,,,,,041621,2,3,0,2,0,1,2,0,64,2021_Apr_16_1202,listening_fmri,3.2.4,59.9517497542608,
2,parcelated_audio/22/22_23.ogg,,,,,,,,,0,0,0,0,0,2,2,2,0,0,0,0,,,,,,,,,0,0,0,0,0,22,22,22,,,,,,,,,,,,,,,,,,,,,,,,,,,,,,,,,,,,,,,,,,,,,,,,414.88505518299644,421.410999144995,,,,,,,,,,,,,,,,,,,,,,,,,,,,,,,,,,,,,,,,,,,,,,,,,,,,,,,,,,,,,,,,,,,,041621,2,3,0,2,0,1,2,0,64,2021_Apr_16_1202,listening_fmri,3.2.4,59.9517497542608,
2,parcelated_audio/22/22_24.ogg,,,,,,,,,0,0,0,0,0,2,2,2,0,0,0,0,,,,,,,,,0,0,0,0,0,23,23,23,,,,,,,,,,,,,,,,,,,,,,,,,,,,,,,,,,,,,,,,,,,,,,,,421.41134710899496,427.14397788800125,,,,,,,,,,,,,,,,,,,,,,,,,,,,,,,,,,,,,,,,,,,,,,,,,,,,,,,,,,,,,,,,,,,,041621,2,3,0,2,0,1,2,0,64,2021_Apr_16_1202,listening_fmri,3.2.4,59.9517497542608,
2,parcelated_audio/22/22_25.ogg,,,,,,,,,0,0,0,0,0,2,2,2,0,0,0,0,,,,,,,,,0,0,0,0,0,24,24,24,,,,,,,,,,,,,,,,,,,,,,,,,,,,,,,,,,,,,,,,,,,,,,,,427.1447315300029,439.83945264699287,,,,,,,,,,,,,,,,,,,,,,,,,,,,,,,,,,,,,,,,,,,,,,,,,,,,,,,,,,,,,,,,,,,,041621,2,3,0,2,0,1,2,0,64,2021_Apr_16_1202,listening_fmri,3.2.4,59.9517497542608,
2,parcelated_audio/22/22_26.ogg,,,,,,,,,0,0,0,0,0,2,2,2,0,0,0,0,,,,,,,,,0,0,0,0,0,25,25,25,,,,,,,,,,,,,,,,,,,,,,,,,,,,,,,,,,,,,,,,,,,,,,,,439.83980385700124,446.58013368799584,,,,,,,,,,,,,,,,,,,,,,,,,,,,,,,,,,,,,,,,,,,,,,,,,,,,,,,,,,,,,,,,,,,,041621,2,3,0,2,0,1,2,0,64,2021_Apr_16_1202,listening_fmri,3.2.4,59.9517497542608,
2,parcelated_audio/22/22_27.ogg,,,,,,,,,0,0,0,0,0,2,2,2,0,0,0,0,,,,,,,,,0,0,0,0,0,26,26,26,,,,,,,,,,,,,,,,,,,,,,,,,,,,,,,,,,,,,,,,,,,,,,,,446.5804836019961,450.9680362759973,,,,,,,,,,,,,,,,,,,,,,,,,,,,,,,,,,,,,,,,,,,,,,,,,,,,,,,,,,,,,,,,,,,,041621,2,3,0,2,0,1,2,0,64,2021_Apr_16_1202,listening_fmri,3.2.4,59.9517497542608,
2,parcelated_audio/22/22_28.ogg,,,,,,,,,0,0,0,0,0,2,2,2,0,0,0,0,,,,,,,,,0,0,0,0,0,27,27,27,,,,,,,,,,,,,,,,,,,,,,,,,,,,,,,,,,,,,,,,,,,,,,,,450.96899514299,456.72456475799845,,,,,,,,,,,,,,,,,,,,,,,,,,,,,,,,,,,,,,,,,,,,,,,,,,,,,,,,,,,,,,,,,,,,041621,2,3,0,2,0,1,2,0,64,2021_Apr_16_1202,listening_fmri,3.2.4,59.9517497542608,
2,parcelated_audio/22/22_29.ogg,,,,,,,,,0,0,0,0,0,2,2,2,0,0,0,0,,,,,,,,,0,0,0,0,0,28,28,28,,,,,,,,,,,,,,,,,,,,,,,,,,,,,,,,,,,,,,,,,,,,,,,,456.72483336599544,462.4302271829947,,,,,,,,,,,,,,,,,,,,,,,,,,,,,,,,,,,,,,,,,,,,,,,,,,,,,,,,,,,,,,,,,,,,041621,2,3,0,2,0,1,2,0,64,2021_Apr_16_1202,listening_fmri,3.2.4,59.9517497542608,
2,parcelated_audio/22/22_30.ogg,,,,,,,,,0,0,0,0,0,2,2,2,0,0,0,0,,,,,,,,,0,0,0,0,0,29,29,29,,,,,,,,,,,,,,,,,,,,,,,,,,,,,,,,,,,,,,,,,,,,,,,,462.43071587999293,465.15104322799016,,,,,,,,,,,,,,,,,,,,,,,,,,,,,,,,,,,,,,,,,,,,,,,,,,,,,,,,,,,,,,,,,,,,041621,2,3,0,2,0,1,2,0,64,2021_Apr_16_1202,listening_fmri,3.2.4,59.9517497542608,
2,parcelated_audio/22/22_31.ogg,,,,,,,,,0,0,0,0,0,2,2,2,0,0,0,0,,,,,,,,,0,0,0,0,0,30,30,30,,,,,,,,,,,,,,,,,,,,,,,,,,,,,,,,,,,,,,,,,,,,,,,,465.151319297991,470.29936467899824,,,,,,,,,,,,,,,,,,,,,,,,,,,,,,,,,,,,,,,,,,,,,,,,,,,,,,,,,,,,,,,,,,,,041621,2,3,0,2,0,1,2,0,64,2021_Apr_16_1202,listening_fmri,3.2.4,59.9517497542608,
2,parcelated_audio/22/22_32.ogg,,,,,,,,,0,0,0,0,0,2,2,2,0,0,0,0,,,,,,,,,0,0,0,0,0,31,31,31,,,,,,,,,,,,,,,,,,,,,,,,,,,,,,,,,,,,,,,,,,,,,,,,470.2998033449985,476.6159452129941,,,,,,,,,,,,,,,,,,,,,,,,,,,,,,,,,,,,,,,,,,,,,,,,,,,,,,,,,,,,,,,,,,,,041621,2,3,0,2,0,1,2,0,64,2021_Apr_16_1202,listening_fmri,3.2.4,59.9517497542608,
2,parcelated_audio/22/22_33.ogg,,,,,,,,,0,0,0,0,0,2,2,2,0,0,0,0,,,,,,,,,0,0,0,0,0,32,32,32,,,,,,,,,,,,,,,,,,,,,,,,,,,,,,,,,,,,,,,,,,,,,,,,476.61668370399275,481.06293206400005,,,,,,,,,,,,,,,,,,,,,,,,,,,,,,,,,,,,,,,,,,,,,,,,,,,,,,,,,,,,,,,,,,,,041621,2,3,0,2,0,1,2,0,64,2021_Apr_16_1202,listening_fmri,3.2.4,59.9517497542608,
2,parcelated_audio/22/22_34.ogg,,,,,,,,,0,0,0,0,0,2,2,2,0,0,0,0,,,,,,,,,0,0,0,0,0,33,33,33,,,,,,,,,,,,,,,,,,,,,,,,,,,,,,,,,,,,,,,,,,,,,,,,481.0633146559994,489.1280973649991,,,,,,,,,,,,,,,,,,,,,,,,,,,,,,,,,,,,,,,,,,,,,,,,,,,,,,,,,,,,,,,,,,,,041621,2,3,0,2,0,1,2,0,64,2021_Apr_16_1202,listening_fmri,3.2.4,59.9517497542608,
2,parcelated_audio/22/22_35.ogg,,,,,,,,,0,0,0,0,0,2,2,2,0,0,0,0,,,,,,,,,0,0,0,0,0,34,34,34,,,,,,,,,,,,,,,,,,,,,,,,,,,,,,,,,,,,,,,,,,,,,,,,489.1284701330005,496.64628387200355,,,,,,,,,,,,,,,,,,,,,,,,,,,,,,,,,,,,,,,,,,,,,,,,,,,,,,,,,,,,,,,,,,,,041621,2,3,0,2,0,1,2,0,64,2021_Apr_16_1202,listening_fmri,3.2.4,59.9517497542608,
2,parcelated_audio/22/22_36.ogg,,,,,,,,,0,0,0,0,0,2,2,2,0,0,0,0,,,,,,,,,0,0,0,0,0,35,35,35,,,,,,,,,,,,,,,,,,,,,,,,,,,,,,,,,,,,,,,,,,,,,,,,496.64671201499004,509.34113753300335,,,,,,,,,,,,,,,,,,,,,,,,,,,,,,,,,,,,,,,,,,,,,,,,,,,,,,,,,,,,,,,,,,,,041621,2,3,0,2,0,1,2,0,64,2021_Apr_16_1202,listening_fmri,3.2.4,59.9517497542608,
2,parcelated_audio/22/22_37.ogg,,,,,,,,,0,0,0,0,0,2,2,2,0,0,0,0,,,,,,,,,0,0,0,0,0,36,36,36,,,,,,,,,,,,,,,,,,,,,,,,,,,,,,,,,,,,,,,,,,,,,,,,509.34140751299856,516.5232287399995,,,,,,,,,,,,,,,,,,,,,,,,,,,,,,,,,,,,,,,,,,,,,,,,,,,,,,,,,,,,,,,,,,,,041621,2,3,0,2,0,1,2,0,64,2021_Apr_16_1202,listening_fmri,3.2.4,59.9517497542608,
2,,,,,,,,,,0,0,0,0,0,2,2,2,0,0,0,0,,,,,,,,,0,0,0,0,,,,,,,,,,,,,,,,,,,,,,,,,,,,,,,,,,,,,,,,,,,,,,,,,,,,,,,,,,,,,,,,,,,,,,,,,,,,,,,,,,,,,,,,,,,,,,,,,,,,,,,,,,,,,,,,,,,,,,,,,041621,2,3,0,2,0,1,2,0,64,2021_Apr_16_1202,listening_fmri,3.2.4,59.9517497542608,
2,,,,,,,,,,0,0,0,0,0,2,2,2,0,0,0,0,,,,,,,,,,,,,,,,,,,,,,,,,,,,,,,,,,,,,,,,,,516.5236369109916,522.5155072289926,566.9102470070065,None,,,,,,,,,,,,,,,,,,,,,572.9127334090008,None,572.9127334090008,None,,,,,,,,,,,,,,,,,,,,,,,,,,,,,,,,,,,,,,,,,,,,,,,,,,,,,,,,,,,,,,,,041621,2,3,0,2,0,1,2,0,64,2021_Apr_16_1202,listening_fmri,3.2.4,59.9517497542608,
2,,,,,,,,,,0,0,0,0,0,2,2,2,,,,,,,,,,,,,,,,,,,,,,,,,,,,,,,,,,,,,,,,,,,,,,,,,,,,,,,,,,,,,,,,,,,,,,,,,,,,,,,,,,,,,,,,,,,,,,,,,,,,,,,,,,,,,,,,,,,,,,,,,,,,,,,,,,,,,,,,,041621,2,3,0,2,0,1,2,0,64,2021_Apr_16_1202,listening_fmri,3.2.4,59.9517497542608,
3,,,,,,,,,,0,0,0,0,0,3,3,3,0,0,0,0,0,0,0,0,,,,,,,,,,,,,,,,,0,0,0,0,,,,,,,,,,,,,,,,,,,,,,573.9260099600069,None,573.9260099600069,None,2,7.106658927004901,573.9260099600069,None,573.9260099600069,None,,,,,,,,,,,,,,,581.0628306290018,None,2,5.131698779005092,581.0628306290018,None,581.0628306290018,None,586.243104950001,None,586.243104950001,None,586.243104950001,None,2,5.850471362005919,586.243104950001,None,592.1131247349986,None,2,3.6364789090002887,592.1131247349986,None,592.1131247349986,None,595.8594969050027,None,595.8594969050027,None,595.8594969050027,None,595.8594969050027,None,595.8594969050027,None,595.8594969050027,None,595.8594969050027,None,None,595.8594969050027,None,,,,,,,,,,,,,,,,,,,,,041621,2,3,0,2,0,1,2,0,64,2021_Apr_16_1202,listening_fmri,3.2.4,59.9517497542608,
3,,,,,,,,,,0,0,0,0,0,3,3,3,0,0,0,0,0,0,0,0,,,,,,,,,,,,,,,,,,,,,,,,,,,,,,,,,,,,,,,,,,,,,,,,,,,,,,,,,,,,,,,,,,,,,,,,,,,,,,,,,,,,,,,,,,,,,,,,,,,,,,,,,,,,,629.4920035749965,None,2,1.6685308209998766,629.4920035749965,None,629.4920035749965,None,631.1920680070034,None,631.1920680070034,None,631.1920680070034,None,2,8.724550940998597,631.1920680070034,None,,,041621,2,3,0,2,0,1,2,0,64,2021_Apr_16_1202,listening_fmri,3.2.4,59.9517497542608,
3,parcelated_audio/13/13_1.ogg,,,,,,,,,0,0,0,0,0,3,3,3,0,0,0,0,,,,,,,,,0,0,0,0,0,0,0,0,,,,,,,,,,,,,,,,,,,,,,,,,,,,,,,,,,,,,,,,639.9458470190002,None,2,3.6087884540029336,639.9458470190002,None,593.2060137090011,596.2287468269933,596.2358193620021,607.946988138996,,,,,,,,,,,,,,,,,,,,,,,,,,,,,,,,,,,,,,,,,,,,,,,,,,,,,,,,,,,,,,,,,,,,041621,2,3,0,2,0,1,2,0,64,2021_Apr_16_1202,listening_fmri,3.2.4,59.9517497542608,
3,parcelated_audio/13/13_2.ogg,,,,,,,,,0,0,0,0,0,3,3,3,0,0,0,0,,,,,,,,,0,0,0,0,0,1,1,1,,,,,,,,,,,,,,,,,,,,,,,,,,,,,,,,,,,,,,,,,,,,,,,,607.9473367149913,614.0508895819949,,,,,,,,,,,,,,,,,,,,,,,,,,,,,,,,,,,,,,,,,,,,,,,,,,,,,,,,,,,,,,,,,,,,041621,2,3,0,2,0,1,2,0,64,2021_Apr_16_1202,listening_fmri,3.2.4,59.9517497542608,
3,parcelated_audio/13/13_3.ogg,,,,,,,,,0,0,0,0,0,3,3,3,0,0,0,0,,,,,,,,,0,0,0,0,0,2,2,2,,,,,,,,,,,,,,,,,,,,,,,,,,,,,,,,,,,,,,,,,,,,,,,,614.0514186740038,622.4213480239996,,,,,,,,,,,,,,,,,,,,,,,,,,,,,,,,,,,,,,,,,,,,,,,,,,,,,,,,,,,,,,,,,,,,041621,2,3,0,2,0,1,2,0,64,2021_Apr_16_1202,listening_fmri,3.2.4,59.9517497542608,
3,parcelated_audio/13/13_4.ogg,,,,,,,,,0,0,0,0,0,3,3,3,0,0,0,0,,,,,,,,,0,0,0,0,0,3,3,3,,,,,,,,,,,,,,,,,,,,,,,,,,,,,,,,,,,,,,,,,,,,,,,,622.42170428799,632.6559090060036,,,,,,,,,,,,,,,,,,,,,,,,,,,,,,,,,,,,,,,,,,,,,,,,,,,,,,,,,,,,,,,,,,,,041621,2,3,0,2,0,1,2,0,64,2021_Apr_16_1202,listening_fmri,3.2.4,59.9517497542608,
3,parcelated_audio/13/13_5.ogg,,,,,,,,,0,0,0,0,0,3,3,3,0,0,0,0,,,,,,,,,0,0,0,0,0,4,4,4,,,,,,,,,,,,,,,,,,,,,,,,,,,,,,,,,,,,,,,,,,,,,,,,632.6562620629993,638.6966743039957,,,,,,,,,,,,,,,,,,,,,,,,,,,,,,,,,,,,,,,,,,,,,,,,,,,,,,,,,,,,,,,,,,,,041621,2,3,0,2,0,1,2,0,64,2021_Apr_16_1202,listening_fmri,3.2.4,59.9517497542608,
3,parcelated_audio/13/13_6.ogg,,,,,,,,,0,0,0,0,0,3,3,3,0,0,0,0,,,,,,,,,0,0,0,0,0,5,5,5,,,,,,,,,,,,,,,,,,,,,,,,,,,,,,,,,,,,,,,,,,,,,,,,638.6970689309965,643.3968448980013,,,,,,,,,,,,,,,,,,,,,,,,,,,,,,,,,,,,,,,,,,,,,,,,,,,,,,,,,,,,,,,,,,,,041621,2,3,0,2,0,1,2,0,64,2021_Apr_16_1202,listening_fmri,3.2.4,59.9517497542608,
3,parcelated_audio/13/13_7.ogg,,,,,,,,,0,0,0,0,0,3,3,3,0,0,0,0,,,,,,,,,0,0,0,0,0,6,6,6,,,,,,,,,,,,,,,,,,,,,,,,,,,,,,,,,,,,,,,,,,,,,,,,643.3972749349923,651.0480322109943,,,,,,,,,,,,,,,,,,,,,,,,,,,,,,,,,,,,,,,,,,,,,,,,,,,,,,,,,,,,,,,,,,,,041621,2,3,0,2,0,1,2,0,64,2021_Apr_16_1202,listening_fmri,3.2.4,59.9517497542608,
3,parcelated_audio/13/13_8.ogg,,,,,,,,,0,0,0,0,0,3,3,3,0,0,0,0,,,,,,,,,0,0,0,0,0,7,7,7,,,,,,,,,,,,,,,,,,,,,,,,,,,,,,,,,,,,,,,,,,,,,,,,651.0484219469945,656.3447823089955,,,,,,,,,,,,,,,,,,,,,,,,,,,,,,,,,,,,,,,,,,,,,,,,,,,,,,,,,,,,,,,,,,,,041621,2,3,0,2,0,1,2,0,64,2021_Apr_16_1202,listening_fmri,3.2.4,59.9517497542608,
3,parcelated_audio/13/13_9.ogg,,,,,,,,,0,0,0,0,0,3,3,3,0,0,0,0,,,,,,,,,0,0,0,0,0,8,8,8,,,,,,,,,,,,,,,,,,,,,,,,,,,,,,,,,,,,,,,,,,,,,,,,656.3450944340002,660.9461928849923,,,,,,,,,,,,,,,,,,,,,,,,,,,,,,,,,,,,,,,,,,,,,,,,,,,,,,,,,,,,,,,,,,,,041621,2,3,0,2,0,1,2,0,64,2021_Apr_16_1202,listening_fmri,3.2.4,59.9517497542608,
3,parcelated_audio/13/13_10.ogg,,,,,,,,,0,0,0,0,0,3,3,3,0,0,0,0,,,,,,,,,0,0,0,0,0,9,9,9,,,,,,,,,,,,,,,,,,,,,,,,,,,,,,,,,,,,,,,,,,,,,,,,660.9466730929998,666.7481296309998,,,,,,,,,,,,,,,,,,,,,,,,,,,,,,,,,,,,,,,,,,,,,,,,,,,,,,,,,,,,,,,,,,,,041621,2,3,0,2,0,1,2,0,64,2021_Apr_16_1202,listening_fmri,3.2.4,59.9517497542608,
3,parcelated_audio/13/13_11.ogg,,,,,,,,,0,0,0,0,0,3,3,3,0,0,0,0,,,,,,,,,0,0,0,0,0,10,10,10,,,,,,,,,,,,,,,,,,,,,,,,,,,,,,,,,,,,,,,,,,,,,,,,666.7484302039957,671.2558538719895,,,,,,,,,,,,,,,,,,,,,,,,,,,,,,,,,,,,,,,,,,,,,,,,,,,,,,,,,,,,,,,,,,,,041621,2,3,0,2,0,1,2,0,64,2021_Apr_16_1202,listening_fmri,3.2.4,59.9517497542608,
3,parcelated_audio/13/13_12.ogg,,,,,,,,,0,0,0,0,0,3,3,3,0,0,0,0,,,,,,,,,0,0,0,0,0,11,11,11,,,,,,,,,,,,,,,,,,,,,,,,,,,,,,,,,,,,,,,,,,,,,,,,671.2562008840032,679.7202242229978,,,,,,,,,,,,,,,,,,,,,,,,,,,,,,,,,,,,,,,,,,,,,,,,,,,,,,,,,,,,,,,,,,,,041621,2,3,0,2,0,1,2,0,64,2021_Apr_16_1202,listening_fmri,3.2.4,59.9517497542608,
3,parcelated_audio/13/13_13.ogg,,,,,,,,,0,0,0,0,0,3,3,3,0,0,0,0,,,,,,,,,0,0,0,0,0,12,12,12,,,,,,,,,,,,,,,,,,,,,,,,,,,,,,,,,,,,,,,,,,,,,,,,679.7205005989963,689.6319508259912,,,,,,,,,,,,,,,,,,,,,,,,,,,,,,,,,,,,,,,,,,,,,,,,,,,,,,,,,,,,,,,,,,,,041621,2,3,0,2,0,1,2,0,64,2021_Apr_16_1202,listening_fmri,3.2.4,59.9517497542608,
3,parcelated_audio/13/13_14.ogg,,,,,,,,,0,0,0,0,0,3,3,3,0,0,0,0,,,,,,,,,0,0,0,0,0,13,13,13,,,,,,,,,,,,,,,,,,,,,,,,,,,,,,,,,,,,,,,,,,,,,,,,689.6322259869921,697.8080487940024,,,,,,,,,,,,,,,,,,,,,,,,,,,,,,,,,,,,,,,,,,,,,,,,,,,,,,,,,,,,,,,,,,,,041621,2,3,0,2,0,1,2,0,64,2021_Apr_16_1202,listening_fmri,3.2.4,59.9517497542608,
3,parcelated_audio/13/13_15.ogg,,,,,,,,,0,0,0,0,0,3,3,3,0,0,0,0,,,,,,,,,0,0,0,0,0,14,14,14,,,,,,,,,,,,,,,,,,,,,,,,,,,,,,,,,,,,,,,,,,,,,,,,697.8084999669954,706.4826013290003,,,,,,,,,,,,,,,,,,,,,,,,,,,,,,,,,,,,,,,,,,,,,,,,,,,,,,,,,,,,,,,,,,,,041621,2,3,0,2,0,1,2,0,64,2021_Apr_16_1202,listening_fmri,3.2.4,59.9517497542608,
3,parcelated_audio/13/13_16.ogg,,,,,,,,,0,0,0,0,0,3,3,3,0,0,0,0,,,,,,,,,0,0,0,0,0,15,15,15,,,,,,,,,,,,,,,,,,,,,,,,,,,,,,,,,,,,,,,,,,,,,,,,706.4829119439964,708.8009064990038,,,,,,,,,,,,,,,,,,,,,,,,,,,,,,,,,,,,,,,,,,,,,,,,,,,,,,,,,,,,,,,,,,,,041621,2,3,0,2,0,1,2,0,64,2021_Apr_16_1202,listening_fmri,3.2.4,59.9517497542608,
3,parcelated_audio/13/13_17.ogg,,,,,,,,,0,0,0,0,0,3,3,3,0,0,0,0,,,,,,,,,0,0,0,0,0,16,16,16,,,,,,,,,,,,,,,,,,,,,,,,,,,,,,,,,,,,,,,,,,,,,,,,708.8012980799977,716.3782734760025,,,,,,,,,,,,,,,,,,,,,,,,,,,,,,,,,,,,,,,,,,,,,,,,,,,,,,,,,,,,,,,,,,,,041621,2,3,0,2,0,1,2,0,64,2021_Apr_16_1202,listening_fmri,3.2.4,59.9517497542608,
3,parcelated_audio/13/13_18.ogg,,,,,,,,,0,0,0,0,0,3,3,3,0,0,0,0,,,,,,,,,0,0,0,0,0,17,17,17,,,,,,,,,,,,,,,,,,,,,,,,,,,,,,,,,,,,,,,,,,,,,,,,716.3786830259924,726.5760414749966,,,,,,,,,,,,,,,,,,,,,,,,,,,,,,,,,,,,,,,,,,,,,,,,,,,,,,,,,,,,,,,,,,,,041621,2,3,0,2,0,1,2,0,64,2021_Apr_16_1202,listening_fmri,3.2.4,59.9517497542608,
3,parcelated_audio/13/13_19.ogg,,,,,,,,,0,0,0,0,0,3,3,3,0,0,0,0,,,,,,,,,0,0,0,0,0,18,18,18,,,,,,,,,,,,,,,,,,,,,,,,,,,,,,,,,,,,,,,,,,,,,,,,726.576336853992,734.5225311709946,,,,,,,,,,,,,,,,,,,,,,,,,,,,,,,,,,,,,,,,,,,,,,,,,,,,,,,,,,,,,,,,,,,,041621,2,3,0,2,0,1,2,0,64,2021_Apr_16_1202,listening_fmri,3.2.4,59.9517497542608,
3,parcelated_audio/13/13_20.ogg,,,,,,,,,0,0,0,0,0,3,3,3,0,0,0,0,,,,,,,,,0,0,0,0,0,19,19,19,,,,,,,,,,,,,,,,,,,,,,,,,,,,,,,,,,,,,,,,,,,,,,,,734.5230742989952,739.7117686040001,,,,,,,,,,,,,,,,,,,,,,,,,,,,,,,,,,,,,,,,,,,,,,,,,,,,,,,,,,,,,,,,,,,,041621,2,3,0,2,0,1,2,0,64,2021_Apr_16_1202,listening_fmri,3.2.4,59.9517497542608,
3,parcelated_audio/13/13_21.ogg,,,,,,,,,0,0,0,0,0,3,3,3,0,0,0,0,,,,,,,,,0,0,0,0,0,20,20,20,,,,,,,,,,,,,,,,,,,,,,,,,,,,,,,,,,,,,,,,,,,,,,,,739.7121257929975,743.0219826090033,,,,,,,,,,,,,,,,,,,,,,,,,,,,,,,,,,,,,,,,,,,,,,,,,,,,,,,,,,,,,,,,,,,,041621,2,3,0,2,0,1,2,0,64,2021_Apr_16_1202,listening_fmri,3.2.4,59.9517497542608,
3,parcelated_audio/13/13_22.ogg,,,,,,,,,0,0,0,0,0,3,3,3,0,0,0,0,,,,,,,,,0,0,0,0,0,21,21,21,,,,,,,,,,,,,,,,,,,,,,,,,,,,,,,,,,,,,,,,,,,,,,,,743.0223353129986,746.4293657739909,,,,,,,,,,,,,,,,,,,,,,,,,,,,,,,,,,,,,,,,,,,,,,,,,,,,,,,,,,,,,,,,,,,,041621,2,3,0,2,0,1,2,0,64,2021_Apr_16_1202,listening_fmri,3.2.4,59.9517497542608,
3,parcelated_audio/13/13_23.ogg,,,,,,,,,0,0,0,0,0,3,3,3,0,0,0,0,,,,,,,,,0,0,0,0,0,22,22,22,,,,,,,,,,,,,,,,,,,,,,,,,,,,,,,,,,,,,,,,,,,,,,,,746.4297169859929,751.6797288189991,,,,,,,,,,,,,,,,,,,,,,,,,,,,,,,,,,,,,,,,,,,,,,,,,,,,,,,,,,,,,,,,,,,,041621,2,3,0,2,0,1,2,0,64,2021_Apr_16_1202,listening_fmri,3.2.4,59.9517497542608,
3,parcelated_audio/13/13_24.ogg,,,,,,,,,0,0,0,0,0,3,3,3,0,0,0,0,,,,,,,,,0,0,0,0,0,23,23,23,,,,,,,,,,,,,,,,,,,,,,,,,,,,,,,,,,,,,,,,,,,,,,,,751.6800776500022,761.4160080809961,,,,,,,,,,,,,,,,,,,,,,,,,,,,,,,,,,,,,,,,,,,,,,,,,,,,,,,,,,,,,,,,,,,,041621,2,3,0,2,0,1,2,0,64,2021_Apr_16_1202,listening_fmri,3.2.4,59.9517497542608,
3,parcelated_audio/13/13_25.ogg,,,,,,,,,0,0,0,0,0,3,3,3,0,0,0,0,,,,,,,,,0,0,0,0,0,24,24,24,,,,,,,,,,,,,,,,,,,,,,,,,,,,,,,,,,,,,,,,,,,,,,,,761.4163771579915,768.69852149699,,,,,,,,,,,,,,,,,,,,,,,,,,,,,,,,,,,,,,,,,,,,,,,,,,,,,,,,,,,,,,,,,,,,041621,2,3,0,2,0,1,2,0,64,2021_Apr_16_1202,listening_fmri,3.2.4,59.9517497542608,
3,parcelated_audio/13/13_26.ogg,,,,,,,,,0,0,0,0,0,3,3,3,0,0,0,0,,,,,,,,,0,0,0,0,0,25,25,25,,,,,,,,,,,,,,,,,,,,,,,,,,,,,,,,,,,,,,,,,,,,,,,,768.6988737700012,774.9112111619906,,,,,,,,,,,,,,,,,,,,,,,,,,,,,,,,,,,,,,,,,,,,,,,,,,,,,,,,,,,,,,,,,,,,041621,2,3,0,2,0,1,2,0,64,2021_Apr_16_1202,listening_fmri,3.2.4,59.9517497542608,
3,parcelated_audio/13/13_27.ogg,,,,,,,,,0,0,0,0,0,3,3,3,0,0,0,0,,,,,,,,,0,0,0,0,0,26,26,26,,,,,,,,,,,,,,,,,,,,,,,,,,,,,,,,,,,,,,,,,,,,,,,,774.9115009149973,780.1564999129914,,,,,,,,,,,,,,,,,,,,,,,,,,,,,,,,,,,,,,,,,,,,,,,,,,,,,,,,,,,,,,,,,,,,041621,2,3,0,2,0,1,2,0,64,2021_Apr_16_1202,listening_fmri,3.2.4,59.9517497542608,
3,parcelated_audio/13/13_28.ogg,,,,,,,,,0,0,0,0,0,3,3,3,0,0,0,0,,,,,,,,,0,0,0,0,0,27,27,27,,,,,,,,,,,,,,,,,,,,,,,,,,,,,,,,,,,,,,,,,,,,,,,,780.1589580509899,785.6043207059993,,,,,,,,,,,,,,,,,,,,,,,,,,,,,,,,,,,,,,,,,,,,,,,,,,,,,,,,,,,,,,,,,,,,041621,2,3,0,2,0,1,2,0,64,2021_Apr_16_1202,listening_fmri,3.2.4,59.9517497542608,
3,parcelated_audio/13/13_29.ogg,,,,,,,,,0,0,0,0,0,3,3,3,0,0,0,0,,,,,,,,,0,0,0,0,0,28,28,28,,,,,,,,,,,,,,,,,,,,,,,,,,,,,,,,,,,,,,,,,,,,,,,,785.6051967789972,788.8941673910012,,,,,,,,,,,,,,,,,,,,,,,,,,,,,,,,,,,,,,,,,,,,,,,,,,,,,,,,,,,,,,,,,,,,041621,2,3,0,2,0,1,2,0,64,2021_Apr_16_1202,listening_fmri,3.2.4,59.9517497542608,
3,parcelated_audio/13/13_30.ogg,,,,,,,,,0,0,0,0,0,3,3,3,0,0,0,0,,,,,,,,,0,0,0,0,0,29,29,29,,,,,,,,,,,,,,,,,,,,,,,,,,,,,,,,,,,,,,,,,,,,,,,,788.8950264509913,792.3640915900032,,,,,,,,,,,,,,,,,,,,,,,,,,,,,,,,,,,,,,,,,,,,,,,,,,,,,,,,,,,,,,,,,,,,041621,2,3,0,2,0,1,2,0,64,2021_Apr_16_1202,listening_fmri,3.2.4,59.9517497542608,
3,parcelated_audio/13/13_31.ogg,,,,,,,,,0,0,0,0,0,3,3,3,0,0,0,0,,,,,,,,,0,0,0,0,0,30,30,30,,,,,,,,,,,,,,,,,,,,,,,,,,,,,,,,,,,,,,,,,,,,,,,,792.3649127480021,798.3151417780027,,,,,,,,,,,,,,,,,,,,,,,,,,,,,,,,,,,,,,,,,,,,,,,,,,,,,,,,,,,,,,,,,,,,041621,2,3,0,2,0,1,2,0,64,2021_Apr_16_1202,listening_fmri,3.2.4,59.9517497542608,
3,,,,,,,,,,0,0,0,0,0,3,3,3,0,0,0,0,,,,,,,,,0,0,0,0,,,,,,,,,,,,,,,,,,,,,,,,,,,,,,,,,,,,,,,,,,,,,,,,,,,,,,,,,,,,,,,,,,,,,,,,,,,,,,,,,,,,,,,,,,,,,,,,,,,,,,,,,,,,,,,,,,,,,,,,,041621,2,3,0,2,0,1,2,0,64,2021_Apr_16_1202,listening_fmri,3.2.4,59.9517497542608,
3,,,,,,,,,,0,0,0,0,0,3,3,3,0,0,0,0,,,,,,,,,,,,,,,,,,,,,,,,,,,,,,,,,,,,,,,,,,798.3155151789979,804.3254634600016,848.705485900995,None,,,,,,,,,,,,,,,,,,,,,854.7227099129959,None,854.7227099129959,None,,,,,,,,,,,,,,,,,,,,,,,,,,,,,,,,,,,,,,,,,,,,,,,,,,,,,,,,,,,,,,,,041621,2,3,0,2,0,1,2,0,64,2021_Apr_16_1202,listening_fmri,3.2.4,59.9517497542608,
3,,,,,,,,,,0,0,0,0,0,3,3,3,,,,,,,,,,,,,,,,,,,,,,,,,,,,,,,,,,,,,,,,,,,,,,,,,,,,,,,,,,,,,,,,,,,,,,,,,,,,,,,,,,,,,,,,,,,,,,,,,,,,,,,,,,,,,,,,,,,,,,,,,,,,,,,,,,,,,,,,,041621,2,3,0,2,0,1,2,0,64,2021_Apr_16_1202,listening_fmri,3.2.4,59.9517497542608,
4,,,,,,,,,,0,0,0,0,0,4,4,4,0,0,0,0,0,0,0,0,,,,,,,,,,,,,,,,,0,0,0,0,,,,,,,,,,,,,,,,,,,,,,855.7388483800023,None,855.7388483800023,None,2,4.87077412699,855.7388483800023,None,855.7388483800023,None,,,,,,,,,,,,,,,860.6299300090031,None,7,5.768734855999355,860.6299300090031,None,860.6299300090031,None,866.446218904006,None,866.446218904006,None,866.446218904006,None,2,5.944434953999007,866.446218904006,None,872.4223043210077,None,2,3.6512106400041375,872.4223043210077,None,872.4223043210077,None,876.1722719999962,None,876.1722719999962,None,876.1722719999962,None,876.1722719999962,None,876.1722719999962,None,876.1722719999962,None,876.1722719999962,None,None,876.1722719999962,None,,,,,,,,,,,,,,,,,,,,,041621,2,3,0,2,0,1,2,0,64,2021_Apr_16_1202,listening_fmri,3.2.4,59.9517497542608,
4,,,,,,,,,,0,0,0,0,0,4,4,4,0,0,0,0,0,0,0,0,,,,,,,,,,,,,,,,,1,0,1,0,,,,,,,,,,,,,,,,,,,,,,,,,,,,,,,,,,,,,,,,,,,,,,,,,,,,,,901.296133099997,None,901.296133099997,None,901.296133099997,None,1,1.0305269099917496,901.296133099997,None,902.3464224439958,None,1,0.5150880940054776,902.3464224439958,None,902.3464224439958,None,902.9631190479995,None,902.9631190479995,None,902.9631190479995,None,902.9631190479995,None,902.9631190479995,None,902.9631190479995,None,902.9631190479995,None,None,902.9631190479995,None,,,,,,,,,,,,,,,,,,,,,041621,2,3,0,2,0,1,2,0,64,2021_Apr_16_1202,listening_fmri,3.2.4,59.9517497542608,
4,,,,,,,,,,0,0,0,0,0,4,4,4,0,0,0,0,0,0,0,0,,,,,,,,,,,,,,,,,,,,,,,,,,,,,,,,,,,,,,,,,,,,,,,,,,,,,,,,,,,,,,,,,,,,,,,,,,,,,,,,,,,,,,,,,,,,,,,,,,,,,,,,,,,,,921.979104965998,None,2,2.358535605002544,921.979104965998,None,921.979104965998,None,924.3795449570025,None,924.3795449570025,None,924.3795449570025,None,2,0.9761030800000299,924.3795449570025,None,,,041621,2,3,0,2,0,1,2,0,64,2021_Apr_16_1202,listening_fmri,3.2.4,59.9517497542608,
4,parcelated_audio/44/44_1.ogg,,,,,,,,,0,0,0,0,0,4,4,4,0,0,0,0,,,,,,,,,0,0,0,0,0,0,0,0,,,,,,,,,,,,,,,,,,,,,,,,,,,,,,,,,,,,,,,,925.3887670099939,None,2,2.1719336440000916,925.3887670099939,None,877.2012124149915,880.2165805999975,880.2222519420029,888.1414731029945,,,,,,,,,,,,,,,,,,,,,,,,,,,,,,,,,,,,,,,,,,,,,,,,,,,,,,,,,,,,,,,,,,,,041621,2,3,0,2,0,1,2,0,64,2021_Apr_16_1202,listening_fmri,3.2.4,59.9517497542608,
4,parcelated_audio/44/44_2.ogg,,,,,,,,,0,0,0,0,0,4,4,4,0,0,0,0,,,,,,,,,0,0,0,0,0,1,1,1,,,,,,,,,,,,,,,,,,,,,,,,,,,,,,,,,,,,,,,,,,,,,,,,888.1427558430005,897.2603430180025,,,,,,,,,,,,,,,,,,,,,,,,,,,,,,,,,,,,,,,,,,,,,,,,,,,,,,,,,,,,,,,,,,,,041621,2,3,0,2,0,1,2,0,64,2021_Apr_16_1202,listening_fmri,3.2.4,59.9517497542608,
4,parcelated_audio/44/44_3.ogg,,,,,,,,,0,0,0,0,0,4,4,4,0,0,0,0,,,,,,,,,0,0,0,0,0,2,2,2,,,,,,,,,,,,,,,,,,,,,,,,,,,,,,,,,,,,,,,,,,,,,,,,897.2606909780006,902.7030231370009,,,,,,,,,,,,,,,,,,,,,,,,,,,,,,,,,,,,,,,,,,,,,,,,,,,,,,,,,,,,,,,,,,,,041621,2,3,0,2,0,1,2,0,64,2021_Apr_16_1202,listening_fmri,3.2.4,59.9517497542608,
4,parcelated_audio/44/44_4.ogg,,,,,,,,,0,0,0,0,0,4,4,4,0,0,0,0,,,,,,,,,0,0,0,0,0,3,3,3,,,,,,,,,,,,,,,,,,,,,,,,,,,,,,,,,,,,,,,,,,,,,,,,902.7033122110006,907.7804146050039,,,,,,,,,,,,,,,,,,,,,,,,,,,,,,,,,,,,,,,,,,,,,,,,,,,,,,,,,,,,,,,,,,,,041621,2,3,0,2,0,1,2,0,64,2021_Apr_16_1202,listening_fmri,3.2.4,59.9517497542608,
4,parcelated_audio/44/44_5.ogg,,,,,,,,,0,0,0,0,0,4,4,4,0,0,0,0,,,,,,,,,0,0,0,0,0,4,4,4,,,,,,,,,,,,,,,,,,,,,,,,,,,,,,,,,,,,,,,,,,,,,,,,907.7807776429981,914.0142896649922,,,,,,,,,,,,,,,,,,,,,,,,,,,,,,,,,,,,,,,,,,,,,,,,,,,,,,,,,,,,,,,,,,,,041621,2,3,0,2,0,1,2,0,64,2021_Apr_16_1202,listening_fmri,3.2.4,59.9517497542608,
4,parcelated_audio/44/44_6.ogg,,,,,,,,,0,0,0,0,0,4,4,4,0,0,0,0,,,,,,,,,0,0,0,0,0,5,5,5,,,,,,,,,,,,,,,,,,,,,,,,,,,,,,,,,,,,,,,,,,,,,,,,914.014555236994,920.9627856959996,,,,,,,,,,,,,,,,,,,,,,,,,,,,,,,,,,,,,,,,,,,,,,,,,,,,,,,,,,,,,,,,,,,,041621,2,3,0,2,0,1,2,0,64,2021_Apr_16_1202,listening_fmri,3.2.4,59.9517497542608,
4,parcelated_audio/44/44_7.ogg,,,,,,,,,0,0,0,0,0,4,4,4,0,0,0,0,,,,,,,,,0,0,0,0,0,6,6,6,,,,,,,,,,,,,,,,,,,,,,,,,,,,,,,,,,,,,,,,,,,,,,,,920.9630373639957,927.0022377010027,,,,,,,,,,,,,,,,,,,,,,,,,,,,,,,,,,,,,,,,,,,,,,,,,,,,,,,,,,,,,,,,,,,,041621,2,3,0,2,0,1,2,0,64,2021_Apr_16_1202,listening_fmri,3.2.4,59.9517497542608,
4,parcelated_audio/44/44_8.ogg,,,,,,,,,0,0,0,0,0,4,4,4,0,0,0,0,,,,,,,,,0,0,0,0,0,7,7,7,,,,,,,,,,,,,,,,,,,,,,,,,,,,,,,,,,,,,,,,,,,,,,,,927.002574854996,931.2854569359915,,,,,,,,,,,,,,,,,,,,,,,,,,,,,,,,,,,,,,,,,,,,,,,,,,,,,,,,,,,,,,,,,,,,041621,2,3,0,2,0,1,2,0,64,2021_Apr_16_1202,listening_fmri,3.2.4,59.9517497542608,
4,parcelated_audio/44/44_9.ogg,,,,,,,,,0,0,0,0,0,4,4,4,0,0,0,0,,,,,,,,,0,0,0,0,0,8,8,8,,,,,,,,,,,,,,,,,,,,,,,,,,,,,,,,,,,,,,,,,,,,,,,,931.2857300030009,934.9916970659979,,,,,,,,,,,,,,,,,,,,,,,,,,,,,,,,,,,,,,,,,,,,,,,,,,,,,,,,,,,,,,,,,,,,041621,2,3,0,2,0,1,2,0,64,2021_Apr_16_1202,listening_fmri,3.2.4,59.9517497542608,
4,parcelated_audio/44/44_10.ogg,,,,,,,,,0,0,0,0,0,4,4,4,0,0,0,0,,,,,,,,,0,0,0,0,0,9,9,9,,,,,,,,,,,,,,,,,,,,,,,,,,,,,,,,,,,,,,,,,,,,,,,,934.9919396819896,945.1148084419983,,,,,,,,,,,,,,,,,,,,,,,,,,,,,,,,,,,,,,,,,,,,,,,,,,,,,,,,,,,,,,,,,,,,041621,2,3,0,2,0,1,2,0,64,2021_Apr_16_1202,listening_fmri,3.2.4,59.9517497542608,
4,parcelated_audio/44/44_11.ogg,,,,,,,,,0,0,0,0,0,4,4,4,0,0,0,0,,,,,,,,,0,0,0,0,0,10,10,10,,,,,,,,,,,,,,,,,,,,,,,,,,,,,,,,,,,,,,,,,,,,,,,,945.1151084309968,948.6754142199934,,,,,,,,,,,,,,,,,,,,,,,,,,,,,,,,,,,,,,,,,,,,,,,,,,,,,,,,,,,,,,,,,,,,041621,2,3,0,2,0,1,2,0,64,2021_Apr_16_1202,listening_fmri,3.2.4,59.9517497542608,
4,parcelated_audio/44/44_12.ogg,,,,,,,,,0,0,0,0,0,4,4,4,0,0,0,0,,,,,,,,,0,0,0,0,0,11,11,11,,,,,,,,,,,,,,,,,,,,,,,,,,,,,,,,,,,,,,,,,,,,,,,,948.6758904699964,959.2720040709974,,,,,,,,,,,,,,,,,,,,,,,,,,,,,,,,,,,,,,,,,,,,,,,,,,,,,,,,,,,,,,,,,,,,041621,2,3,0,2,0,1,2,0,64,2021_Apr_16_1202,listening_fmri,3.2.4,59.9517497542608,
4,parcelated_audio/44/44_13.ogg,,,,,,,,,0,0,0,0,0,4,4,4,0,0,0,0,,,,,,,,,0,0,0,0,0,12,12,12,,,,,,,,,,,,,,,,,,,,,,,,,,,,,,,,,,,,,,,,,,,,,,,,959.2725326829968,966.4455562399962,,,,,,,,,,,,,,,,,,,,,,,,,,,,,,,,,,,,,,,,,,,,,,,,,,,,,,,,,,,,,,,,,,,,041621,2,3,0,2,0,1,2,0,64,2021_Apr_16_1202,listening_fmri,3.2.4,59.9517497542608,
4,parcelated_audio/44/44_14.ogg,,,,,,,,,0,0,0,0,0,4,4,4,0,0,0,0,,,,,,,,,0,0,0,0,0,13,13,13,,,,,,,,,,,,,,,,,,,,,,,,,,,,,,,,,,,,,,,,,,,,,,,,966.4458955250011,972.7573895599926,,,,,,,,,,,,,,,,,,,,,,,,,,,,,,,,,,,,,,,,,,,,,,,,,,,,,,,,,,,,,,,,,,,,041621,2,3,0,2,0,1,2,0,64,2021_Apr_16_1202,listening_fmri,3.2.4,59.9517497542608,
4,parcelated_audio/44/44_15.ogg,,,,,,,,,0,0,0,0,0,4,4,4,0,0,0,0,,,,,,,,,0,0,0,0,0,14,14,14,,,,,,,,,,,,,,,,,,,,,,,,,,,,,,,,,,,,,,,,,,,,,,,,972.7585014409997,976.8392744239973,,,,,,,,,,,,,,,,,,,,,,,,,,,,,,,,,,,,,,,,,,,,,,,,,,,,,,,,,,,,,,,,,,,,041621,2,3,0,2,0,1,2,0,64,2021_Apr_16_1202,listening_fmri,3.2.4,59.9517497542608,
4,parcelated_audio/44/44_16.ogg,,,,,,,,,0,0,0,0,0,4,4,4,0,0,0,0,,,,,,,,,0,0,0,0,0,15,15,15,,,,,,,,,,,,,,,,,,,,,,,,,,,,,,,,,,,,,,,,,,,,,,,,976.8395814019896,980.8592903529934,,,,,,,,,,,,,,,,,,,,,,,,,,,,,,,,,,,,,,,,,,,,,,,,,,,,,,,,,,,,,,,,,,,,041621,2,3,0,2,0,1,2,0,64,2021_Apr_16_1202,listening_fmri,3.2.4,59.9517497542608,
4,parcelated_audio/44/44_17.ogg,,,,,,,,,0,0,0,0,0,4,4,4,0,0,0,0,,,,,,,,,0,0,0,0,0,16,16,16,,,,,,,,,,,,,,,,,,,,,,,,,,,,,,,,,,,,,,,,,,,,,,,,980.8597473199916,989.3305904290028,,,,,,,,,,,,,,,,,,,,,,,,,,,,,,,,,,,,,,,,,,,,,,,,,,,,,,,,,,,,,,,,,,,,041621,2,3,0,2,0,1,2,0,64,2021_Apr_16_1202,listening_fmri,3.2.4,59.9517497542608,
4,parcelated_audio/44/44_18.ogg,,,,,,,,,0,0,0,0,0,4,4,4,0,0,0,0,,,,,,,,,0,0,0,0,0,17,17,17,,,,,,,,,,,,,,,,,,,,,,,,,,,,,,,,,,,,,,,,,,,,,,,,989.3309441989986,999.1682694310002,,,,,,,,,,,,,,,,,,,,,,,,,,,,,,,,,,,,,,,,,,,,,,,,,,,,,,,,,,,,,,,,,,,,041621,2,3,0,2,0,1,2,0,64,2021_Apr_16_1202,listening_fmri,3.2.4,59.9517497542608,
4,parcelated_audio/44/44_19.ogg,,,,,,,,,0,0,0,0,0,4,4,4,0,0,0,0,,,,,,,,,0,0,0,0,0,18,18,18,,,,,,,,,,,,,,,,,,,,,,,,,,,,,,,,,,,,,,,,,,,,,,,,999.168623067002,1010.1388246909919,,,,,,,,,,,,,,,,,,,,,,,,,,,,,,,,,,,,,,,,,,,,,,,,,,,,,,,,,,,,,,,,,,,,041621,2,3,0,2,0,1,2,0,64,2021_Apr_16_1202,listening_fmri,3.2.4,59.9517497542608,
4,parcelated_audio/44/44_20.ogg,,,,,,,,,0,0,0,0,0,4,4,4,0,0,0,0,,,,,,,,,0,0,0,0,0,19,19,19,,,,,,,,,,,,,,,,,,,,,,,,,,,,,,,,,,,,,,,,,,,,,,,,1010.1392920759972,1018.3524098269991,,,,,,,,,,,,,,,,,,,,,,,,,,,,,,,,,,,,,,,,,,,,,,,,,,,,,,,,,,,,,,,,,,,,041621,2,3,0,2,0,1,2,0,64,2021_Apr_16_1202,listening_fmri,3.2.4,59.9517497542608,
4,parcelated_audio/44/44_21.ogg,,,,,,,,,0,0,0,0,0,4,4,4,0,0,0,0,,,,,,,,,0,0,0,0,0,20,20,20,,,,,,,,,,,,,,,,,,,,,,,,,,,,,,,,,,,,,,,,,,,,,,,,1018.3527715899982,1027.2584313230036,,,,,,,,,,,,,,,,,,,,,,,,,,,,,,,,,,,,,,,,,,,,,,,,,,,,,,,,,,,,,,,,,,,,041621,2,3,0,2,0,1,2,0,64,2021_Apr_16_1202,listening_fmri,3.2.4,59.9517497542608,
4,parcelated_audio/44/44_22.ogg,,,,,,,,,0,0,0,0,0,4,4,4,0,0,0,0,,,,,,,,,0,0,0,0,0,21,21,21,,,,,,,,,,,,,,,,,,,,,,,,,,,,,,,,,,,,,,,,,,,,,,,,1027.2587844749942,1032.173099697,,,,,,,,,,,,,,,,,,,,,,,,,,,,,,,,,,,,,,,,,,,,,,,,,,,,,,,,,,,,,,,,,,,,041621,2,3,0,2,0,1,2,0,64,2021_Apr_16_1202,listening_fmri,3.2.4,59.9517497542608,
4,parcelated_audio/44/44_23.ogg,,,,,,,,,0,0,0,0,0,4,4,4,0,0,0,0,,,,,,,,,0,0,0,0,0,22,22,22,,,,,,,,,,,,,,,,,,,,,,,,,,,,,,,,,,,,,,,,,,,,,,,,1032.1734733140038,1038.8177202719962,,,,,,,,,,,,,,,,,,,,,,,,,,,,,,,,,,,,,,,,,,,,,,,,,,,,,,,,,,,,,,,,,,,,041621,2,3,0,2,0,1,2,0,64,2021_Apr_16_1202,listening_fmri,3.2.4,59.9517497542608,
4,parcelated_audio/44/44_24.ogg,,,,,,,,,0,0,0,0,0,4,4,4,0,0,0,0,,,,,,,,,0,0,0,0,0,23,23,23,,,,,,,,,,,,,,,,,,,,,,,,,,,,,,,,,,,,,,,,,,,,,,,,1038.8180734019988,1047.5624767440022,,,,,,,,,,,,,,,,,,,,,,,,,,,,,,,,,,,,,,,,,,,,,,,,,,,,,,,,,,,,,,,,,,,,041621,2,3,0,2,0,1,2,0,64,2021_Apr_16_1202,listening_fmri,3.2.4,59.9517497542608,
4,parcelated_audio/44/44_25.ogg,,,,,,,,,0,0,0,0,0,4,4,4,0,0,0,0,,,,,,,,,0,0,0,0,0,24,24,24,,,,,,,,,,,,,,,,,,,,,,,,,,,,,,,,,,,,,,,,,,,,,,,,1047.5627592590026,1053.8701952389965,,,,,,,,,,,,,,,,,,,,,,,,,,,,,,,,,,,,,,,,,,,,,,,,,,,,,,,,,,,,,,,,,,,,041621,2,3,0,2,0,1,2,0,64,2021_Apr_16_1202,listening_fmri,3.2.4,59.9517497542608,
4,parcelated_audio/44/44_26.ogg,,,,,,,,,0,0,0,0,0,4,4,4,0,0,0,0,,,,,,,,,0,0,0,0,0,25,25,25,,,,,,,,,,,,,,,,,,,,,,,,,,,,,,,,,,,,,,,,,,,,,,,,1053.8713220299978,1058.730749025999,,,,,,,,,,,,,,,,,,,,,,,,,,,,,,,,,,,,,,,,,,,,,,,,,,,,,,,,,,,,,,,,,,,,041621,2,3,0,2,0,1,2,0,64,2021_Apr_16_1202,listening_fmri,3.2.4,59.9517497542608,
4,parcelated_audio/44/44_27.ogg,,,,,,,,,0,0,0,0,0,4,4,4,0,0,0,0,,,,,,,,,0,0,0,0,0,26,26,26,,,,,,,,,,,,,,,,,,,,,,,,,,,,,,,,,,,,,,,,,,,,,,,,1058.731143461002,1065.7173161609971,,,,,,,,,,,,,,,,,,,,,,,,,,,,,,,,,,,,,,,,,,,,,,,,,,,,,,,,,,,,,,,,,,,,041621,2,3,0,2,0,1,2,0,64,2021_Apr_16_1202,listening_fmri,3.2.4,59.9517497542608,
4,parcelated_audio/44/44_28.ogg,,,,,,,,,0,0,0,0,0,4,4,4,0,0,0,0,,,,,,,,,0,0,0,0,0,27,27,27,,,,,,,,,,,,,,,,,,,,,,,,,,,,,,,,,,,,,,,,,,,,,,,,1065.7175878609996,1076.9916754629958,,,,,,,,,,,,,,,,,,,,,,,,,,,,,,,,,,,,,,,,,,,,,,,,,,,,,,,,,,,,,,,,,,,,041621,2,3,0,2,0,1,2,0,64,2021_Apr_16_1202,listening_fmri,3.2.4,59.9517497542608,
4,,,,,,,,,,0,0,0,0,0,4,4,4,0,0,0,0,,,,,,,,,0,0,0,0,,,,,,,,,,,,,,,,,,,,,,,,,,,,,,,,,,,,,,,,,,,,,,,,,,,,,,,,,,,,,,,,,,,,,,,,,,,,,,,,,,,,,,,,,,,,,,,,,,,,,,,,,,,,,,,,,,,,,,,,,041621,2,3,0,2,0,1,2,0,64,2021_Apr_16_1202,listening_fmri,3.2.4,59.9517497542608,
4,,,,,,,,,,0,0,0,0,0,4,4,4,0,0,0,0,,,,,,,,,,,,,,,,,,,,,,,,,,,,,,,,,,,,,,,,,,1076.9920552069962,1082.988694132,1127.3797270789946,None,,,,,,,,,,,,,,,,,,,,,1133.3850494979997,None,1133.3850494979997,None,,,,,,,,,,,,,,,,,,,,,,,,,,,,,,,,,,,,,,,,,,,,,,,,,,,,,,,,,,,,,,,,041621,2,3,0,2,0,1,2,0,64,2021_Apr_16_1202,listening_fmri,3.2.4,59.9517497542608,
4,,,,,,,,,,0,0,0,0,0,4,4,4,,,,,,,,,,,,,,,,,,,,,,,,,,,,,,,,,,,,,,,,,,,,,,,,,,,,,,,,,,,,,,,,,,,,,,,,,,,,,,,,,,,,,,,,,,,,,,,,,,,,,,,,,,,,,,,,,,,,,,,,,,,,,,,,,,,,,,,,,041621,2,3,0,2,0,1,2,0,64,2021_Apr_16_1202,listening_fmri,3.2.4,59.9517497542608,
5,,,,,,,,,,0,0,0,0,0,5,5,5,0,0,0,0,0,0,0,0,,,,,,,,,,,,,,,,,0,0,0,0,,,,,,,,,,,,,,,,,,,,,,1134.4188455429976,None,1134.4188455429976,None,2,1.7837923429906368,1134.4188455429976,None,1134.4188455429976,None,,,,,,,,,,,,,,,1136.229814694001,None,2,2.936840812006267,1136.229814694001,None,1136.229814694001,None,1139.2300136220001,None,1139.2300136220001,None,1139.2300136220001,None,2,4.3956509190029465,1139.2300136220001,None,1143.6471458879969,None,3,1.4035414300014963,1143.6471458879969,None,1143.6471458879969,None,1145.146988723005,None,1145.146988723005,None,1145.146988723005,None,1145.146988723005,None,1145.146988723005,None,1145.146988723005,None,1145.146988723005,None,None,1145.146988723005,None,,,,,,,,,,,,,,,,,,,,,041621,2,3,0,2,0,1,2,0,64,2021_Apr_16_1202,listening_fmri,3.2.4,59.9517497542608,
5,,,,,,,,,,0,0,0,0,0,5,5,5,0,0,0,0,0,0,0,0,,,,,,,,,,,,,,,,,,,,,,,,,,,,,,,,,,,,,,,,,,,,,,,,,,,,,,,,,,,,,,,,,,,,,,,,,,,,,,,,,,,,,,,,,,,,,,,,,,,,,,,,,,,,,1169.1470215940062,None,2,2.18250865599839,1169.1470215940062,None,1169.1470215940062,None,1171.3631375120021,None,1171.3631375120021,None,1171.3631375120021,None,2,0.889403316003154,1171.3631375120021,None,,,041621,2,3,0,2,0,1,2,0,64,2021_Apr_16_1202,listening_fmri,3.2.4,59.9517497542608,
5,parcelated_audio/11/11_1.ogg,,,,,,,,,0,0,0,0,0,5,5,5,0,0,0,0,,,,,,,,,0,0,0,0,0,0,0,0,,,,,,,,,,,,,,,,,,,,,,,,,,,,,,,,,,,,,,,,1172.27898997,None,2,1.7266794839961221,1172.27898997,None,1123.6743107179936,1126.6830388590024,1126.688515389993,1138.7615537870006,,,,,,,,,,,,,,,,,,,,,,,,,,,,,,,,,,,,,,,,,,,,,,,,,,,,,,,,,,,,,,,,,,,,041621,2,3,0,2,0,1,2,0,64,2021_Apr_16_1202,listening_fmri,3.2.4,59.9517497542608,
5,parcelated_audio/11/11_2.ogg,,,,,,,,,0,0,0,0,0,5,5,5,0,0,0,0,,,,,,,,,0,0,0,0,0,1,1,1,,,,,,,,,,,,,,,,,,,,,,,,,,,,,,,,,,,,,,,,,,,,,,,,1138.7619056469994,1143.2512955479906,,,,,,,,,,,,,,,,,,,,,,,,,,,,,,,,,,,,,,,,,,,,,,,,,,,,,,,,,,,,,,,,,,,,041621,2,3,0,2,0,1,2,0,64,2021_Apr_16_1202,listening_fmri,3.2.4,59.9517497542608,
5,parcelated_audio/11/11_3.ogg,,,,,,,,,0,0,0,0,0,5,5,5,0,0,0,0,,,,,,,,,0,0,0,0,0,2,2,2,,,,,,,,,,,,,,,,,,,,,,,,,,,,,,,,,,,,,,,,,,,,,,,,1143.2516256910021,1148.2612076499936,,,,,,,,,,,,,,,,,,,,,,,,,,,,,,,,,,,,,,,,,,,,,,,,,,,,,,,,,,,,,,,,,,,,041621,2,3,0,2,0,1,2,0,64,2021_Apr_16_1202,listening_fmri,3.2.4,59.9517497542608,
5,parcelated_audio/11/11_4.ogg,,,,,,,,,0,0,0,0,0,5,5,5,0,0,0,0,,,,,,,,,0,0,0,0,0,3,3,3,,,,,,,,,,,,,,,,,,,,,,,,,,,,,,,,,,,,,,,,,,,,,,,,1148.2624073449988,1157.3539352349908,,,,,,,,,,,,,,,,,,,,,,,,,,,,,,,,,,,,,,,,,,,,,,,,,,,,,,,,,,,,,,,,,,,,041621,2,3,0,2,0,1,2,0,64,2021_Apr_16_1202,listening_fmri,3.2.4,59.9517497542608,
5,parcelated_audio/11/11_5.ogg,,,,,,,,,0,0,0,0,0,5,5,5,0,0,0,0,,,,,,,,,0,0,0,0,0,4,4,4,,,,,,,,,,,,,,,,,,,,,,,,,,,,,,,,,,,,,,,,,,,,,,,,1157.354212610997,1163.1175213099923,,,,,,,,,,,,,,,,,,,,,,,,,,,,,,,,,,,,,,,,,,,,,,,,,,,,,,,,,,,,,,,,,,,,041621,2,3,0,2,0,1,2,0,64,2021_Apr_16_1202,listening_fmri,3.2.4,59.9517497542608,
5,parcelated_audio/11/11_6.ogg,,,,,,,,,0,0,0,0,0,5,5,5,0,0,0,0,,,,,,,,,0,0,0,0,0,5,5,5,,,,,,,,,,,,,,,,,,,,,,,,,,,,,,,,,,,,,,,,,,,,,,,,1163.117908040993,1167.7050407030038,,,,,,,,,,,,,,,,,,,,,,,,,,,,,,,,,,,,,,,,,,,,,,,,,,,,,,,,,,,,,,,,,,,,041621,2,3,0,2,0,1,2,0,64,2021_Apr_16_1202,listening_fmri,3.2.4,59.9517497542608,
5,parcelated_audio/11/11_7.ogg,,,,,,,,,0,0,0,0,0,5,5,5,0,0,0,0,,,,,,,,,0,0,0,0,0,6,6,6,,,,,,,,,,,,,,,,,,,,,,,,,,,,,,,,,,,,,,,,,,,,,,,,1167.7053814690007,1174.246069300003,,,,,,,,,,,,,,,,,,,,,,,,,,,,,,,,,,,,,,,,,,,,,,,,,,,,,,,,,,,,,,,,,,,,041621,2,3,0,2,0,1,2,0,64,2021_Apr_16_1202,listening_fmri,3.2.4,59.9517497542608,
5,parcelated_audio/11/11_8.ogg,,,,,,,,,0,0,0,0,0,5,5,5,0,0,0,0,,,,,,,,,0,0,0,0,0,7,7,7,,,,,,,,,,,,,,,,,,,,,,,,,,,,,,,,,,,,,,,,,,,,,,,,1174.2464473619912,1180.0399434459978,,,,,,,,,,,,,,,,,,,,,,,,,,,,,,,,,,,,,,,,,,,,,,,,,,,,,,,,,,,,,,,,,,,,041621,2,3,0,2,0,1,2,0,64,2021_Apr_16_1202,listening_fmri,3.2.4,59.9517497542608,
5,parcelated_audio/11/11_9.ogg,,,,,,,,,0,0,0,0,0,5,5,5,0,0,0,0,,,,,,,,,0,0,0,0,0,8,8,8,,,,,,,,,,,,,,,,,,,,,,,,,,,,,,,,,,,,,,,,,,,,,,,,1180.040943275002,1184.3412106589967,,,,,,,,,,,,,,,,,,,,,,,,,,,,,,,,,,,,,,,,,,,,,,,,,,,,,,,,,,,,,,,,,,,,041621,2,3,0,2,0,1,2,0,64,2021_Apr_16_1202,listening_fmri,3.2.4,59.9517497542608,
5,parcelated_audio/11/11_10.ogg,,,,,,,,,0,0,0,0,0,5,5,5,0,0,0,0,,,,,,,,,0,0,0,0,0,9,9,9,,,,,,,,,,,,,,,,,,,,,,,,,,,,,,,,,,,,,,,,,,,,,,,,1184.342082039002,1188.9184727829997,,,,,,,,,,,,,,,,,,,,,,,,,,,,,,,,,,,,,,,,,,,,,,,,,,,,,,,,,,,,,,,,,,,,041621,2,3,0,2,0,1,2,0,64,2021_Apr_16_1202,listening_fmri,3.2.4,59.9517497542608,
5,parcelated_audio/11/11_11.ogg,,,,,,,,,0,0,0,0,0,5,5,5,0,0,0,0,,,,,,,,,0,0,0,0,0,10,10,10,,,,,,,,,,,,,,,,,,,,,,,,,,,,,,,,,,,,,,,,,,,,,,,,1188.918777548999,1192.0891823190032,,,,,,,,,,,,,,,,,,,,,,,,,,,,,,,,,,,,,,,,,,,,,,,,,,,,,,,,,,,,,,,,,,,,041621,2,3,0,2,0,1,2,0,64,2021_Apr_16_1202,listening_fmri,3.2.4,59.9517497542608,
5,parcelated_audio/11/11_12.ogg,,,,,,,,,0,0,0,0,0,5,5,5,0,0,0,0,,,,,,,,,0,0,0,0,0,11,11,11,,,,,,,,,,,,,,,,,,,,,,,,,,,,,,,,,,,,,,,,,,,,,,,,1192.0919340709952,1194.9279429390008,,,,,,,,,,,,,,,,,,,,,,,,,,,,,,,,,,,,,,,,,,,,,,,,,,,,,,,,,,,,,,,,,,,,041621,2,3,0,2,0,1,2,0,64,2021_Apr_16_1202,listening_fmri,3.2.4,59.9517497542608,
5,parcelated_audio/11/11_13.ogg,,,,,,,,,0,0,0,0,0,5,5,5,0,0,0,0,,,,,,,,,0,0,0,0,0,12,12,12,,,,,,,,,,,,,,,,,,,,,,,,,,,,,,,,,,,,,,,,,,,,,,,,1194.928319464001,1198.2380755929917,,,,,,,,,,,,,,,,,,,,,,,,,,,,,,,,,,,,,,,,,,,,,,,,,,,,,,,,,,,,,,,,,,,,041621,2,3,0,2,0,1,2,0,64,2021_Apr_16_1202,listening_fmri,3.2.4,59.9517497542608,
5,parcelated_audio/11/11_14.ogg,,,,,,,,,0,0,0,0,0,5,5,5,0,0,0,0,,,,,,,,,0,0,0,0,0,13,13,13,,,,,,,,,,,,,,,,,,,,,,,,,,,,,,,,,,,,,,,,,,,,,,,,1198.2384831340023,1200.9463054239895,,,,,,,,,,,,,,,,,,,,,,,,,,,,,,,,,,,,,,,,,,,,,,,,,,,,,,,,,,,,,,,,,,,,041621,2,3,0,2,0,1,2,0,64,2021_Apr_16_1202,listening_fmri,3.2.4,59.9517497542608,
5,parcelated_audio/11/11_15.ogg,,,,,,,,,0,0,0,0,0,5,5,5,0,0,0,0,,,,,,,,,0,0,0,0,0,14,14,14,,,,,,,,,,,,,,,,,,,,,,,,,,,,,,,,,,,,,,,,,,,,,,,,1200.946669151992,1212.1200257029996,,,,,,,,,,,,,,,,,,,,,,,,,,,,,,,,,,,,,,,,,,,,,,,,,,,,,,,,,,,,,,,,,,,,041621,2,3,0,2,0,1,2,0,64,2021_Apr_16_1202,listening_fmri,3.2.4,59.9517497542608,
5,parcelated_audio/11/11_16.ogg,,,,,,,,,0,0,0,0,0,5,5,5,0,0,0,0,,,,,,,,,0,0,0,0,0,15,15,15,,,,,,,,,,,,,,,,,,,,,,,,,,,,,,,,,,,,,,,,,,,,,,,,1212.1203035979997,1215.1090010049957,,,,,,,,,,,,,,,,,,,,,,,,,,,,,,,,,,,,,,,,,,,,,,,,,,,,,,,,,,,,,,,,,,,,041621,2,3,0,2,0,1,2,0,64,2021_Apr_16_1202,listening_fmri,3.2.4,59.9517497542608,
5,parcelated_audio/11/11_17.ogg,,,,,,,,,0,0,0,0,0,5,5,5,0,0,0,0,,,,,,,,,0,0,0,0,0,16,16,16,,,,,,,,,,,,,,,,,,,,,,,,,,,,,,,,,,,,,,,,,,,,,,,,1215.1093793749897,1222.0911232919898,,,,,,,,,,,,,,,,,,,,,,,,,,,,,,,,,,,,,,,,,,,,,,,,,,,,,,,,,,,,,,,,,,,,041621,2,3,0,2,0,1,2,0,64,2021_Apr_16_1202,listening_fmri,3.2.4,59.9517497542608,
5,parcelated_audio/11/11_18.ogg,,,,,,,,,0,0,0,0,0,5,5,5,0,0,0,0,,,,,,,,,0,0,0,0,0,17,17,17,,,,,,,,,,,,,,,,,,,,,,,,,,,,,,,,,,,,,,,,,,,,,,,,1222.0914775049896,1229.6605072069942,,,,,,,,,,,,,,,,,,,,,,,,,,,,,,,,,,,,,,,,,,,,,,,,,,,,,,,,,,,,,,,,,,,,041621,2,3,0,2,0,1,2,0,64,2021_Apr_16_1202,listening_fmri,3.2.4,59.9517497542608,
5,parcelated_audio/11/11_19.ogg,,,,,,,,,0,0,0,0,0,5,5,5,0,0,0,0,,,,,,,,,0,0,0,0,0,18,18,18,,,,,,,,,,,,,,,,,,,,,,,,,,,,,,,,,,,,,,,,,,,,,,,,1229.6608379509998,1234.3303890109964,,,,,,,,,,,,,,,,,,,,,,,,,,,,,,,,,,,,,,,,,,,,,,,,,,,,,,,,,,,,,,,,,,,,041621,2,3,0,2,0,1,2,0,64,2021_Apr_16_1202,listening_fmri,3.2.4,59.9517497542608,
5,parcelated_audio/11/11_20.ogg,,,,,,,,,0,0,0,0,0,5,5,5,0,0,0,0,,,,,,,,,0,0,0,0,0,19,19,19,,,,,,,,,,,,,,,,,,,,,,,,,,,,,,,,,,,,,,,,,,,,,,,,1234.330745254003,1239.2483212069928,,,,,,,,,,,,,,,,,,,,,,,,,,,,,,,,,,,,,,,,,,,,,,,,,,,,,,,,,,,,,,,,,,,,041621,2,3,0,2,0,1,2,0,64,2021_Apr_16_1202,listening_fmri,3.2.4,59.9517497542608,
5,parcelated_audio/11/11_21.ogg,,,,,,,,,0,0,0,0,0,5,5,5,0,0,0,0,,,,,,,,,0,0,0,0,0,20,20,20,,,,,,,,,,,,,,,,,,,,,,,,,,,,,,,,,,,,,,,,,,,,,,,,1239.2486730309902,1248.0191642220016,,,,,,,,,,,,,,,,,,,,,,,,,,,,,,,,,,,,,,,,,,,,,,,,,,,,,,,,,,,,,,,,,,,,041621,2,3,0,2,0,1,2,0,64,2021_Apr_16_1202,listening_fmri,3.2.4,59.9517497542608,
5,parcelated_audio/11/11_22.ogg,,,,,,,,,0,0,0,0,0,5,5,5,0,0,0,0,,,,,,,,,0,0,0,0,0,21,21,21,,,,,,,,,,,,,,,,,,,,,,,,,,,,,,,,,,,,,,,,,,,,,,,,1248.019520982998,1251.314475398991,,,,,,,,,,,,,,,,,,,,,,,,,,,,,,,,,,,,,,,,,,,,,,,,,,,,,,,,,,,,,,,,,,,,041621,2,3,0,2,0,1,2,0,64,2021_Apr_16_1202,listening_fmri,3.2.4,59.9517497542608,
5,parcelated_audio/11/11_23.ogg,,,,,,,,,0,0,0,0,0,5,5,5,0,0,0,0,,,,,,,,,0,0,0,0,0,22,22,22,,,,,,,,,,,,,,,,,,,,,,,,,,,,,,,,,,,,,,,,,,,,,,,,1251.3148246369965,1256.096412289,,,,,,,,,,,,,,,,,,,,,,,,,,,,,,,,,,,,,,,,,,,,,,,,,,,,,,,,,,,,,,,,,,,,041621,2,3,0,2,0,1,2,0,64,2021_Apr_16_1202,listening_fmri,3.2.4,59.9517497542608,
5,parcelated_audio/11/11_24.ogg,,,,,,,,,0,0,0,0,0,5,5,5,0,0,0,0,,,,,,,,,0,0,0,0,0,23,23,23,,,,,,,,,,,,,,,,,,,,,,,,,,,,,,,,,,,,,,,,,,,,,,,,1256.0967666409997,1259.716113825998,,,,,,,,,,,,,,,,,,,,,,,,,,,,,,,,,,,,,,,,,,,,,,,,,,,,,,,,,,,,,,,,,,,,041621,2,3,0,2,0,1,2,0,64,2021_Apr_16_1202,listening_fmri,3.2.4,59.9517497542608,
5,parcelated_audio/11/11_25.ogg,,,,,,,,,0,0,0,0,0,5,5,5,0,0,0,0,,,,,,,,,0,0,0,0,0,24,24,24,,,,,,,,,,,,,,,,,,,,,,,,,,,,,,,,,,,,,,,,,,,,,,,,1259.716422685,1264.463832975991,,,,,,,,,,,,,,,,,,,,,,,,,,,,,,,,,,,,,,,,,,,,,,,,,,,,,,,,,,,,,,,,,,,,041621,2,3,0,2,0,1,2,0,64,2021_Apr_16_1202,listening_fmri,3.2.4,59.9517497542608,
5,parcelated_audio/11/11_26.ogg,,,,,,,,,0,0,0,0,0,5,5,5,0,0,0,0,,,,,,,,,0,0,0,0,0,25,25,25,,,,,,,,,,,,,,,,,,,,,,,,,,,,,,,,,,,,,,,,,,,,,,,,1264.4644179609895,1269.4533039109956,,,,,,,,,,,,,,,,,,,,,,,,,,,,,,,,,,,,,,,,,,,,,,,,,,,,,,,,,,,,,,,,,,,,041621,2,3,0,2,0,1,2,0,64,2021_Apr_16_1202,listening_fmri,3.2.4,59.9517497542608,
5,parcelated_audio/11/11_27.ogg,,,,,,,,,0,0,0,0,0,5,5,5,0,0,0,0,,,,,,,,,0,0,0,0,0,26,26,26,,,,,,,,,,,,,,,,,,,,,,,,,,,,,,,,,,,,,,,,,,,,,,,,1269.4536548250035,1273.443094739996,,,,,,,,,,,,,,,,,,,,,,,,,,,,,,,,,,,,,,,,,,,,,,,,,,,,,,,,,,,,,,,,,,,,041621,2,3,0,2,0,1,2,0,64,2021_Apr_16_1202,listening_fmri,3.2.4,59.9517497542608,
5,parcelated_audio/11/11_28.ogg,,,,,,,,,0,0,0,0,0,5,5,5,0,0,0,0,,,,,,,,,0,0,0,0,0,27,27,27,,,,,,,,,,,,,,,,,,,,,,,,,,,,,,,,,,,,,,,,,,,,,,,,1273.4434765629994,1276.862306105002,,,,,,,,,,,,,,,,,,,,,,,,,,,,,,,,,,,,,,,,,,,,,,,,,,,,,,,,,,,,,,,,,,,,041621,2,3,0,2,0,1,2,0,64,2021_Apr_16_1202,listening_fmri,3.2.4,59.9517497542608,
5,parcelated_audio/11/11_29.ogg,,,,,,,,,0,0,0,0,0,5,5,5,0,0,0,0,,,,,,,,,0,0,0,0,0,28,28,28,,,,,,,,,,,,,,,,,,,,,,,,,,,,,,,,,,,,,,,,,,,,,,,,1276.8626843069942,1281.038135404,,,,,,,,,,,,,,,,,,,,,,,,,,,,,,,,,,,,,,,,,,,,,,,,,,,,,,,,,,,,,,,,,,,,041621,2,3,0,2,0,1,2,0,64,2021_Apr_16_1202,listening_fmri,3.2.4,59.9517497542608,
5,parcelated_audio/11/11_30.ogg,,,,,,,,,0,0,0,0,0,5,5,5,0,0,0,0,,,,,,,,,0,0,0,0,0,29,29,29,,,,,,,,,,,,,,,,,,,,,,,,,,,,,,,,,,,,,,,,,,,,,,,,1281.0384396839945,1285.5459632889979,,,,,,,,,,,,,,,,,,,,,,,,,,,,,,,,,,,,,,,,,,,,,,,,,,,,,,,,,,,,,,,,,,,,041621,2,3,0,2,0,1,2,0,64,2021_Apr_16_1202,listening_fmri,3.2.4,59.9517497542608,
5,parcelated_audio/11/11_31.ogg,,,,,,,,,0,0,0,0,0,5,5,5,0,0,0,0,,,,,,,,,0,0,0,0,0,30,30,30,,,,,,,,,,,,,,,,,,,,,,,,,,,,,,,,,,,,,,,,,,,,,,,,1285.546393739991,1290.4104821910005,,,,,,,,,,,,,,,,,,,,,,,,,,,,,,,,,,,,,,,,,,,,,,,,,,,,,,,,,,,,,,,,,,,,041621,2,3,0,2,0,1,2,0,64,2021_Apr_16_1202,listening_fmri,3.2.4,59.9517497542608,
5,parcelated_audio/11/11_32.ogg,,,,,,,,,0,0,0,0,0,5,5,5,0,0,0,0,,,,,,,,,0,0,0,0,0,31,31,31,,,,,,,,,,,,,,,,,,,,,,,,,,,,,,,,,,,,,,,,,,,,,,,,1290.4109162099921,1294.493365642993,,,,,,,,,,,,,,,,,,,,,,,,,,,,,,,,,,,,,,,,,,,,,,,,,,,,,,,,,,,,,,,,,,,,041621,2,3,0,2,0,1,2,0,64,2021_Apr_16_1202,listening_fmri,3.2.4,59.9517497542608,
5,parcelated_audio/11/11_33.ogg,,,,,,,,,0,0,0,0,0,5,5,5,0,0,0,0,,,,,,,,,0,0,0,0,0,32,32,32,,,,,,,,,,,,,,,,,,,,,,,,,,,,,,,,,,,,,,,,,,,,,,,,1294.4937584449945,1297.017956340991,,,,,,,,,,,,,,,,,,,,,,,,,,,,,,,,,,,,,,,,,,,,,,,,,,,,,,,,,,,,,,,,,,,,041621,2,3,0,2,0,1,2,0,64,2021_Apr_16_1202,listening_fmri,3.2.4,59.9517497542608,
5,parcelated_audio/11/11_34.ogg,,,,,,,,,0,0,0,0,0,5,5,5,0,0,0,0,,,,,,,,,0,0,0,0,0,33,33,33,,,,,,,,,,,,,,,,,,,,,,,,,,,,,,,,,,,,,,,,,,,,,,,,1297.0183629219973,1300.3307121440012,,,,,,,,,,,,,,,,,,,,,,,,,,,,,,,,,,,,,,,,,,,,,,,,,,,,,,,,,,,,,,,,,,,,041621,2,3,0,2,0,1,2,0,64,2021_Apr_16_1202,listening_fmri,3.2.4,59.9517497542608,
5,parcelated_audio/11/11_35.ogg,,,,,,,,,0,0,0,0,0,5,5,5,0,0,0,0,,,,,,,,,0,0,0,0,0,34,34,34,,,,,,,,,,,,,,,,,,,,,,,,,,,,,,,,,,,,,,,,,,,,,,,,1300.331121448995,1304.688113160999,,,,,,,,,,,,,,,,,,,,,,,,,,,,,,,,,,,,,,,,,,,,,,,,,,,,,,,,,,,,,,,,,,,,041621,2,3,0,2,0,1,2,0,64,2021_Apr_16_1202,listening_fmri,3.2.4,59.9517497542608,
5,parcelated_audio/11/11_36.ogg,,,,,,,,,0,0,0,0,0,5,5,5,0,0,0,0,,,,,,,,,0,0,0,0,0,35,35,35,,,,,,,,,,,,,,,,,,,,,,,,,,,,,,,,,,,,,,,,,,,,,,,,1304.6884355849907,1313.699038997991,,,,,,,,,,,,,,,,,,,,,,,,,,,,,,,,,,,,,,,,,,,,,,,,,,,,,,,,,,,,,,,,,,,,041621,2,3,0,2,0,1,2,0,64,2021_Apr_16_1202,listening_fmri,3.2.4,59.9517497542608,
5,parcelated_audio/11/11_37.ogg,,,,,,,,,0,0,0,0,0,5,5,5,0,0,0,0,,,,,,,,,0,0,0,0,0,36,36,36,,,,,,,,,,,,,,,,,,,,,,,,,,,,,,,,,,,,,,,,,,,,,,,,1313.699311976001,1317.9794526679907,,,,,,,,,,,,,,,,,,,,,,,,,,,,,,,,,,,,,,,,,,,,,,,,,,,,,,,,,,,,,,,,,,,,041621,2,3,0,2,0,1,2,0,64,2021_Apr_16_1202,listening_fmri,3.2.4,59.9517497542608,
5,parcelated_audio/11/11_38.ogg,,,,,,,,,0,0,0,0,0,5,5,5,0,0,0,0,,,,,,,,,0,0,0,0,0,37,37,37,,,,,,,,,,,,,,,,,,,,,,,,,,,,,,,,,,,,,,,,,,,,,,,,1317.9797745340038,1324.1331336540024,,,,,,,,,,,,,,,,,,,,,,,,,,,,,,,,,,,,,,,,,,,,,,,,,,,,,,,,,,,,,,,,,,,,041621,2,3,0,2,0,1,2,0,64,2021_Apr_16_1202,listening_fmri,3.2.4,59.9517497542608,
5,parcelated_audio/11/11_39.ogg,,,,,,,,,0,0,0,0,0,5,5,5,0,0,0,0,,,,,,,,,0,0,0,0,0,38,38,38,,,,,,,,,,,,,,,,,,,,,,,,,,,,,,,,,,,,,,,,,,,,,,,,1324.1334620739945,1329.3120167509915,,,,,,,,,,,,,,,,,,,,,,,,,,,,,,,,,,,,,,,,,,,,,,,,,,,,,,,,,,,,,,,,,,,,041621,2,3,0,2,0,1,2,0,64,2021_Apr_16_1202,listening_fmri,3.2.4,59.9517497542608,
5,parcelated_audio/11/11_40.ogg,,,,,,,,,0,0,0,0,0,5,5,5,0,0,0,0,,,,,,,,,0,0,0,0,0,39,39,39,,,,,,,,,,,,,,,,,,,,,,,,,,,,,,,,,,,,,,,,,,,,,,,,1329.3122912239924,1334.9877920720028,,,,,,,,,,,,,,,,,,,,,,,,,,,,,,,,,,,,,,,,,,,,,,,,,,,,,,,,,,,,,,,,,,,,041621,2,3,0,2,0,1,2,0,64,2021_Apr_16_1202,listening_fmri,3.2.4,59.9517497542608,
5,parcelated_audio/11/11_41.ogg,,,,,,,,,0,0,0,0,0,5,5,5,0,0,0,0,,,,,,,,,0,0,0,0,0,40,40,40,,,,,,,,,,,,,,,,,,,,,,,,,,,,,,,,,,,,,,,,,,,,,,,,1334.9880464469898,1341.152457542994,,,,,,,,,,,,,,,,,,,,,,,,,,,,,,,,,,,,,,,,,,,,,,,,,,,,,,,,,,,,,,,,,,,,041621,2,3,0,2,0,1,2,0,64,2021_Apr_16_1202,listening_fmri,3.2.4,59.9517497542608,
5,,,,,,,,,,0,0,0,0,0,5,5,5,0,0,0,0,,,,,,,,,0,0,0,0,,,,,,,,,,,,,,,,,,,,,,,,,,,,,,,,,,,,,,,,,,,,,,,,,,,,,,,,,,,,,,,,,,,,,,,,,,,,,,,,,,,,,,,,,,,,,,,,,,,,,,,,,,,,,,,,,,,,,,,,,041621,2,3,0,2,0,1,2,0,64,2021_Apr_16_1202,listening_fmri,3.2.4,59.9517497542608,
5,,,,,,,,,,0,0,0,0,0,5,5,5,0,0,0,0,,,,,,,,,,,,,,,,,,,,,,,,,,,,,,,,,,,,,,,,,,1341.1529376059916,1347.1503034319903,1391.5463986459945,None,,,,,,,,,,,,,,,,,,,,,1397.5467325089994,None,1397.5467325089994,None,,,,,,,,,,,,,,,,,,,,,,,,,,,,,,,,,,,,,,,,,,,,,,,,,,,,,,,,,,,,,,,,041621,2,3,0,2,0,1,2,0,64,2021_Apr_16_1202,listening_fmri,3.2.4,59.9517497542608,
5,,,,,,,,,,0,0,0,0,0,5,5,5,,,,,,,,,,,,,,,,,,,,,,,,,,,,,,,,,,,,,,,,,,,,,,,,,,,,,,,,,,,,,,,,,,,,,,,,,,,,,,,,,,,,,,,,,,,,,,,,,,,,,,,,,,,,,,,,,,,,,,,,,,,,,,,,,,,,,,,,,041621,2,3,0,2,0,1,2,0,64,2021_Apr_16_1202,listening_fmri,3.2.4,59.9517497542608,
6,,,,,,,,,,0,0,0,0,0,6,6,6,,,,,,,,,,,,,,,,,,,,,,,,,,,,,,,,,,,,,,,,,,,,,,,,,,,,,,,,,,,,,,,,,,,,,,,,,,,,,,,,,,,,,,,,,,,,,,,,,,,,,,,,,,,,,,,,,,,,,,,,,,,,,,,,,,,,,,,,,041621,2,3,0,2,0,1,2,0,64,2021_Apr_16_1202,listening_fmri,3.2.4,59.9517497542608,
7,,,,,,,,,,0,0,0,0,0,7,7,7,0,0,0,0,0,0,0,0,,,,,,,,,,,,,,,,,0,0,0,0,,,,,,,,,,,,,,,,,,,,,,1398.5800191159942,None,1398.5800191159942,None,2,11.3935238510021,1398.5800191159942,None,1398.5800191159942,None,,,,,,,,,,,,,,,1409.9970203779958,None,2,5.903650352003751,1409.9970203779958,None,1409.9970203779958,None,1415.946794396994,None,1415.946794396994,None,1415.946794396994,None,2,4.939879187004408,1415.946794396994,None,1420.9131786490034,None,2,1.0413631700066617,1420.9131786490034,None,1420.9131786490034,None,1422.0631938849983,None,1422.0631938849983,None,1422.0631938849983,None,1422.0631938849983,None,1422.0631938849983,None,1422.0631938849983,None,1422.0631938849983,None,None,1422.0631938849983,None,,,,,,,,,,,,,,,,,,,,,041621,2,3,0,2,0,1,2,0,64,2021_Apr_16_1202,listening_fmri,3.2.4,59.9517497542608,
7,,,,,,,,,,0,0,0,0,0,7,7,7,0,0,0,0,0,0,0,0,,,,,,,,,,,,,,,,,,,,,,,,,,,,,,,,,,,,,,,,,,,,,,,,,,,,,,,,,,,,,,,,,,,,,,,,,,,,,,,,,,,,,,,,,,,,,,,,,,,,,,,,,,,,,1445.0801174109947,None,2,3.4454064129968174,1445.0801174109947,None,1445.0801174109947,None,1448.597084203997,None,1448.597084203997,None,1448.597084203997,None,2,1.9965593390079448,1448.597084203997,None,,,041621,2,3,0,2,0,1,2,0,64,2021_Apr_16_1202,listening_fmri,3.2.4,59.9517497542608,
7,parcelated_audio/42/42_1.ogg,,,,,,,,,0,0,0,0,0,7,7,7,0,0,0,0,,,,,,,,,0,0,0,0,0,0,0,0,,,,,,,,,,,,,,,,,,,,,,,,,,,,,,,,,,,,,,,,1450.6140080650075,None,2,1.0596400180074852,1450.6140080650075,None,1401.3070086709922,1404.3170656970033,1404.3234783179942,1412.686299983994,,,,,,,,,,,,,,,,,,,,,,,,,,,,,,,,,,,,,,,,,,,,,,,,,,,,,,,,,,,,,,,,,,,,041621,2,3,0,2,0,1,2,0,64,2021_Apr_16_1202,listening_fmri,3.2.4,59.9517497542608,
7,parcelated_audio/42/42_2.ogg,,,,,,,,,0,0,0,0,0,7,7,7,0,0,0,0,,,,,,,,,0,0,0,0,0,1,1,1,,,,,,,,,,,,,,,,,,,,,,,,,,,,,,,,,,,,,,,,,,,,,,,,1412.6865852699993,1425.412295214992,,,,,,,,,,,,,,,,,,,,,,,,,,,,,,,,,,,,,,,,,,,,,,,,,,,,,,,,,,,,,,,,,,,,041621,2,3,0,2,0,1,2,0,64,2021_Apr_16_1202,listening_fmri,3.2.4,59.9517497542608,
7,parcelated_audio/42/42_3.ogg,,,,,,,,,0,0,0,0,0,7,7,7,0,0,0,0,,,,,,,,,0,0,0,0,0,2,2,2,,,,,,,,,,,,,,,,,,,,,,,,,,,,,,,,,,,,,,,,,,,,,,,,1425.4126603710029,1435.8071599269897,,,,,,,,,,,,,,,,,,,,,,,,,,,,,,,,,,,,,,,,,,,,,,,,,,,,,,,,,,,,,,,,,,,,041621,2,3,0,2,0,1,2,0,64,2021_Apr_16_1202,listening_fmri,3.2.4,59.9517497542608,
7,parcelated_audio/42/42_4.ogg,,,,,,,,,0,0,0,0,0,7,7,7,0,0,0,0,,,,,,,,,0,0,0,0,0,3,3,3,,,,,,,,,,,,,,,,,,,,,,,,,,,,,,,,,,,,,,,,,,,,,,,,1435.8074403209903,1449.5010452349961,,,,,,,,,,,,,,,,,,,,,,,,,,,,,,,,,,,,,,,,,,,,,,,,,,,,,,,,,,,,,,,,,,,,041621,2,3,0,2,0,1,2,0,64,2021_Apr_16_1202,listening_fmri,3.2.4,59.9517497542608,
7,parcelated_audio/42/42_5.ogg,,,,,,,,,0,0,0,0,0,7,7,7,0,0,0,0,,,,,,,,,0,0,0,0,0,4,4,4,,,,,,,,,,,,,,,,,,,,,,,,,,,,,,,,,,,,,,,,,,,,,,,,1449.5013204529969,1460.950694964995,,,,,,,,,,,,,,,,,,,,,,,,,,,,,,,,,,,,,,,,,,,,,,,,,,,,,,,,,,,,,,,,,,,,041621,2,3,0,2,0,1,2,0,64,2021_Apr_16_1202,listening_fmri,3.2.4,59.9517497542608,
7,parcelated_audio/42/42_6.ogg,,,,,,,,,0,0,0,0,0,7,7,7,0,0,0,0,,,,,,,,,0,0,0,0,0,5,5,5,,,,,,,,,,,,,,,,,,,,,,,,,,,,,,,,,,,,,,,,,,,,,,,,1460.950998276996,1467.4480365439958,,,,,,,,,,,,,,,,,,,,,,,,,,,,,,,,,,,,,,,,,,,,,,,,,,,,,,,,,,,,,,,,,,,,041621,2,3,0,2,0,1,2,0,64,2021_Apr_16_1202,listening_fmri,3.2.4,59.9517497542608,
7,parcelated_audio/42/42_7.ogg,,,,,,,,,0,0,0,0,0,7,7,7,0,0,0,0,,,,,,,,,0,0,0,0,0,6,6,6,,,,,,,,,,,,,,,,,,,,,,,,,,,,,,,,,,,,,,,,,,,,,,,,1467.4484669989906,1472.626670447993,,,,,,,,,,,,,,,,,,,,,,,,,,,,,,,,,,,,,,,,,,,,,,,,,,,,,,,,,,,,,,,,,,,,041621,2,3,0,2,0,1,2,0,64,2021_Apr_16_1202,listening_fmri,3.2.4,59.9517497542608,
7,parcelated_audio/42/42_8.ogg,,,,,,,,,0,0,0,0,0,7,7,7,0,0,0,0,,,,,,,,,0,0,0,0,0,7,7,7,,,,,,,,,,,,,,,,,,,,,,,,,,,,,,,,,,,,,,,,,,,,,,,,1472.6277472319925,1475.7811314769933,,,,,,,,,,,,,,,,,,,,,,,,,,,,,,,,,,,,,,,,,,,,,,,,,,,,,,,,,,,,,,,,,,,,041621,2,3,0,2,0,1,2,0,64,2021_Apr_16_1202,listening_fmri,3.2.4,59.9517497542608,
7,parcelated_audio/42/42_9.ogg,,,,,,,,,0,0,0,0,0,7,7,7,0,0,0,0,,,,,,,,,0,0,0,0,0,8,8,8,,,,,,,,,,,,,,,,,,,,,,,,,,,,,,,,,,,,,,,,,,,,,,,,1475.7814775379957,1484.3301237349951,,,,,,,,,,,,,,,,,,,,,,,,,,,,,,,,,,,,,,,,,,,,,,,,,,,,,,,,,,,,,,,,,,,,041621,2,3,0,2,0,1,2,0,64,2021_Apr_16_1202,listening_fmri,3.2.4,59.9517497542608,
7,parcelated_audio/42/42_10.ogg,,,,,,,,,0,0,0,0,0,7,7,7,0,0,0,0,,,,,,,,,0,0,0,0,0,9,9,9,,,,,,,,,,,,,,,,,,,,,,,,,,,,,,,,,,,,,,,,,,,,,,,,1484.3305249589903,1488.6450372010004,,,,,,,,,,,,,,,,,,,,,,,,,,,,,,,,,,,,,,,,,,,,,,,,,,,,,,,,,,,,,,,,,,,,041621,2,3,0,2,0,1,2,0,64,2021_Apr_16_1202,listening_fmri,3.2.4,59.9517497542608,
7,parcelated_audio/42/42_11.ogg,,,,,,,,,0,0,0,0,0,7,7,7,0,0,0,0,,,,,,,,,0,0,0,0,0,10,10,10,,,,,,,,,,,,,,,,,,,,,,,,,,,,,,,,,,,,,,,,,,,,,,,,1488.645289166001,1493.6529793469963,,,,,,,,,,,,,,,,,,,,,,,,,,,,,,,,,,,,,,,,,,,,,,,,,,,,,,,,,,,,,,,,,,,,041621,2,3,0,2,0,1,2,0,64,2021_Apr_16_1202,listening_fmri,3.2.4,59.9517497542608,
7,parcelated_audio/42/42_12.ogg,,,,,,,,,0,0,0,0,0,7,7,7,0,0,0,0,,,,,,,,,0,0,0,0,0,11,11,11,,,,,,,,,,,,,,,,,,,,,,,,,,,,,,,,,,,,,,,,,,,,,,,,1493.6532563299988,1499.6049877589976,,,,,,,,,,,,,,,,,,,,,,,,,,,,,,,,,,,,,,,,,,,,,,,,,,,,,,,,,,,,,,,,,,,,041621,2,3,0,2,0,1,2,0,64,2021_Apr_16_1202,listening_fmri,3.2.4,59.9517497542608,
7,parcelated_audio/42/42_13.ogg,,,,,,,,,0,0,0,0,0,7,7,7,0,0,0,0,,,,,,,,,0,0,0,0,0,12,12,12,,,,,,,,,,,,,,,,,,,,,,,,,,,,,,,,,,,,,,,,,,,,,,,,1499.6054399249988,1506.7519182109972,,,,,,,,,,,,,,,,,,,,,,,,,,,,,,,,,,,,,,,,,,,,,,,,,,,,,,,,,,,,,,,,,,,,041621,2,3,0,2,0,1,2,0,64,2021_Apr_16_1202,listening_fmri,3.2.4,59.9517497542608,
7,parcelated_audio/42/42_14.ogg,,,,,,,,,0,0,0,0,0,7,7,7,0,0,0,0,,,,,,,,,0,0,0,0,0,13,13,13,,,,,,,,,,,,,,,,,,,,,,,,,,,,,,,,,,,,,,,,,,,,,,,,1506.7522101450013,1511.46049067899,,,,,,,,,,,,,,,,,,,,,,,,,,,,,,,,,,,,,,,,,,,,,,,,,,,,,,,,,,,,,,,,,,,,041621,2,3,0,2,0,1,2,0,64,2021_Apr_16_1202,listening_fmri,3.2.4,59.9517497542608,
7,parcelated_audio/42/42_15.ogg,,,,,,,,,0,0,0,0,0,7,7,7,0,0,0,0,,,,,,,,,0,0,0,0,0,14,14,14,,,,,,,,,,,,,,,,,,,,,,,,,,,,,,,,,,,,,,,,,,,,,,,,1511.4609405869996,1517.3120239339914,,,,,,,,,,,,,,,,,,,,,,,,,,,,,,,,,,,,,,,,,,,,,,,,,,,,,,,,,,,,,,,,,,,,041621,2,3,0,2,0,1,2,0,64,2021_Apr_16_1202,listening_fmri,3.2.4,59.9517497542608,
7,parcelated_audio/42/42_16.ogg,,,,,,,,,0,0,0,0,0,7,7,7,0,0,0,0,,,,,,,,,0,0,0,0,0,15,15,15,,,,,,,,,,,,,,,,,,,,,,,,,,,,,,,,,,,,,,,,,,,,,,,,1517.3125103819912,1522.8802866539918,,,,,,,,,,,,,,,,,,,,,,,,,,,,,,,,,,,,,,,,,,,,,,,,,,,,,,,,,,,,,,,,,,,,041621,2,3,0,2,0,1,2,0,64,2021_Apr_16_1202,listening_fmri,3.2.4,59.9517497542608,
7,parcelated_audio/42/42_17.ogg,,,,,,,,,0,0,0,0,0,7,7,7,0,0,0,0,,,,,,,,,0,0,0,0,0,16,16,16,,,,,,,,,,,,,,,,,,,,,,,,,,,,,,,,,,,,,,,,,,,,,,,,1522.8806422350026,1532.586955300998,,,,,,,,,,,,,,,,,,,,,,,,,,,,,,,,,,,,,,,,,,,,,,,,,,,,,,,,,,,,,,,,,,,,041621,2,3,0,2,0,1,2,0,64,2021_Apr_16_1202,listening_fmri,3.2.4,59.9517497542608,
7,parcelated_audio/42/42_18.ogg,,,,,,,,,0,0,0,0,0,7,7,7,0,0,0,0,,,,,,,,,0,0,0,0,0,17,17,17,,,,,,,,,,,,,,,,,,,,,,,,,,,,,,,,,,,,,,,,,,,,,,,,1532.5874372389953,1538.0174645689985,,,,,,,,,,,,,,,,,,,,,,,,,,,,,,,,,,,,,,,,,,,,,,,,,,,,,,,,,,,,,,,,,,,,041621,2,3,0,2,0,1,2,0,64,2021_Apr_16_1202,listening_fmri,3.2.4,59.9517497542608,
7,parcelated_audio/42/42_19.ogg,,,,,,,,,0,0,0,0,0,7,7,7,0,0,0,0,,,,,,,,,0,0,0,0,0,18,18,18,,,,,,,,,,,,,,,,,,,,,,,,,,,,,,,,,,,,,,,,,,,,,,,,1538.017816031992,1547.1619378329924,,,,,,,,,,,,,,,,,,,,,,,,,,,,,,,,,,,,,,,,,,,,,,,,,,,,,,,,,,,,,,,,,,,,041621,2,3,0,2,0,1,2,0,64,2021_Apr_16_1202,listening_fmri,3.2.4,59.9517497542608,
7,parcelated_audio/42/42_20.ogg,,,,,,,,,0,0,0,0,0,7,7,7,0,0,0,0,,,,,,,,,0,0,0,0,0,19,19,19,,,,,,,,,,,,,,,,,,,,,,,,,,,,,,,,,,,,,,,,,,,,,,,,1547.162532850998,1551.9102222639922,,,,,,,,,,,,,,,,,,,,,,,,,,,,,,,,,,,,,,,,,,,,,,,,,,,,,,,,,,,,,,,,,,,,041621,2,3,0,2,0,1,2,0,64,2021_Apr_16_1202,listening_fmri,3.2.4,59.9517497542608,
7,parcelated_audio/42/42_21.ogg,,,,,,,,,0,0,0,0,0,7,7,7,0,0,0,0,,,,,,,,,0,0,0,0,0,20,20,20,,,,,,,,,,,,,,,,,,,,,,,,,,,,,,,,,,,,,,,,,,,,,,,,1551.9105209150002,1561.8133270059916,,,,,,,,,,,,,,,,,,,,,,,,,,,,,,,,,,,,,,,,,,,,,,,,,,,,,,,,,,,,,,,,,,,,041621,2,3,0,2,0,1,2,0,64,2021_Apr_16_1202,listening_fmri,3.2.4,59.9517497542608,
7,parcelated_audio/42/42_22.ogg,,,,,,,,,0,0,0,0,0,7,7,7,0,0,0,0,,,,,,,,,0,0,0,0,0,21,21,21,,,,,,,,,,,,,,,,,,,,,,,,,,,,,,,,,,,,,,,,,,,,,,,,1561.8136884150008,1566.5700310129905,,,,,,,,,,,,,,,,,,,,,,,,,,,,,,,,,,,,,,,,,,,,,,,,,,,,,,,,,,,,,,,,,,,,041621,2,3,0,2,0,1,2,0,64,2021_Apr_16_1202,listening_fmri,3.2.4,59.9517497542608,
7,parcelated_audio/42/42_23.ogg,,,,,,,,,0,0,0,0,0,7,7,7,0,0,0,0,,,,,,,,,0,0,0,0,0,22,22,22,,,,,,,,,,,,,,,,,,,,,,,,,,,,,,,,,,,,,,,,,,,,,,,,1566.5704101409938,1572.786605575995,,,,,,,,,,,,,,,,,,,,,,,,,,,,,,,,,,,,,,,,,,,,,,,,,,,,,,,,,,,,,,,,,,,,041621,2,3,0,2,0,1,2,0,64,2021_Apr_16_1202,listening_fmri,3.2.4,59.9517497542608,
7,parcelated_audio/42/42_24.ogg,,,,,,,,,0,0,0,0,0,7,7,7,0,0,0,0,,,,,,,,,0,0,0,0,0,23,23,23,,,,,,,,,,,,,,,,,,,,,,,,,,,,,,,,,,,,,,,,,,,,,,,,1572.786880871994,1581.2348123289994,,,,,,,,,,,,,,,,,,,,,,,,,,,,,,,,,,,,,,,,,,,,,,,,,,,,,,,,,,,,,,,,,,,,041621,2,3,0,2,0,1,2,0,64,2021_Apr_16_1202,listening_fmri,3.2.4,59.9517497542608,
7,parcelated_audio/42/42_25.ogg,,,,,,,,,0,0,0,0,0,7,7,7,0,0,0,0,,,,,,,,,0,0,0,0,0,24,24,24,,,,,,,,,,,,,,,,,,,,,,,,,,,,,,,,,,,,,,,,,,,,,,,,1581.2350871289964,1587.459197306991,,,,,,,,,,,,,,,,,,,,,,,,,,,,,,,,,,,,,,,,,,,,,,,,,,,,,,,,,,,,,,,,,,,,041621,2,3,0,2,0,1,2,0,64,2021_Apr_16_1202,listening_fmri,3.2.4,59.9517497542608,
7,parcelated_audio/42/42_26.ogg,,,,,,,,,0,0,0,0,0,7,7,7,0,0,0,0,,,,,,,,,0,0,0,0,0,25,25,25,,,,,,,,,,,,,,,,,,,,,,,,,,,,,,,,,,,,,,,,,,,,,,,,1587.4596538429905,1593.3521174619964,,,,,,,,,,,,,,,,,,,,,,,,,,,,,,,,,,,,,,,,,,,,,,,,,,,,,,,,,,,,,,,,,,,,041621,2,3,0,2,0,1,2,0,64,2021_Apr_16_1202,listening_fmri,3.2.4,59.9517497542608,
7,parcelated_audio/42/42_27.ogg,,,,,,,,,0,0,0,0,0,7,7,7,0,0,0,0,,,,,,,,,0,0,0,0,0,26,26,26,,,,,,,,,,,,,,,,,,,,,,,,,,,,,,,,,,,,,,,,,,,,,,,,1593.3524076169997,1601.0196954409912,,,,,,,,,,,,,,,,,,,,,,,,,,,,,,,,,,,,,,,,,,,,,,,,,,,,,,,,,,,,,,,,,,,,041621,2,3,0,2,0,1,2,0,64,2021_Apr_16_1202,listening_fmri,3.2.4,59.9517497542608,
7,parcelated_audio/42/42_28.ogg,,,,,,,,,0,0,0,0,0,7,7,7,0,0,0,0,,,,,,,,,0,0,0,0,0,27,27,27,,,,,,,,,,,,,,,,,,,,,,,,,,,,,,,,,,,,,,,,,,,,,,,,1601.02069225999,1606.67467204899,,,,,,,,,,,,,,,,,,,,,,,,,,,,,,,,,,,,,,,,,,,,,,,,,,,,,,,,,,,,,,,,,,,,041621,2,3,0,2,0,1,2,0,64,2021_Apr_16_1202,listening_fmri,3.2.4,59.9517497542608,
7,parcelated_audio/42/42_29.ogg,,,,,,,,,0,0,0,0,0,7,7,7,0,0,0,0,,,,,,,,,0,0,0,0,0,28,28,28,,,,,,,,,,,,,,,,,,,,,,,,,,,,,,,,,,,,,,,,,,,,,,,,1606.6755448460026,1613.5680781339906,,,,,,,,,,,,,,,,,,,,,,,,,,,,,,,,,,,,,,,,,,,,,,,,,,,,,,,,,,,,,,,,,,,,041621,2,3,0,2,0,1,2,0,64,2021_Apr_16_1202,listening_fmri,3.2.4,59.9517497542608,
7,parcelated_audio/42/42_30.ogg,,,,,,,,,0,0,0,0,0,7,7,7,0,0,0,0,,,,,,,,,0,0,0,0,0,29,29,29,,,,,,,,,,,,,,,,,,,,,,,,,,,,,,,,,,,,,,,,,,,,,,,,1613.5709495969932,1624.4506165700004,,,,,,,,,,,,,,,,,,,,,,,,,,,,,,,,,,,,,,,,,,,,,,,,,,,,,,,,,,,,,,,,,,,,041621,2,3,0,2,0,1,2,0,64,2021_Apr_16_1202,listening_fmri,3.2.4,59.9517497542608,
7,parcelated_audio/42/42_31.ogg,,,,,,,,,0,0,0,0,0,7,7,7,0,0,0,0,,,,,,,,,0,0,0,0,0,30,30,30,,,,,,,,,,,,,,,,,,,,,,,,,,,,,,,,,,,,,,,,,,,,,,,,1624.451933616001,1630.6321011929977,,,,,,,,,,,,,,,,,,,,,,,,,,,,,,,,,,,,,,,,,,,,,,,,,,,,,,,,,,,,,,,,,,,,041621,2,3,0,2,0,1,2,0,64,2021_Apr_16_1202,listening_fmri,3.2.4,59.9517497542608,
7,parcelated_audio/42/42_32.ogg,,,,,,,,,0,0,0,0,0,7,7,7,0,0,0,0,,,,,,,,,0,0,0,0,0,31,31,31,,,,,,,,,,,,,,,,,,,,,,,,,,,,,,,,,,,,,,,,,,,,,,,,1630.6324572750018,1638.7869711029925,,,,,,,,,,,,,,,,,,,,,,,,,,,,,,,,,,,,,,,,,,,,,,,,,,,,,,,,,,,,,,,,,,,,041621,2,3,0,2,0,1,2,0,64,2021_Apr_16_1202,listening_fmri,3.2.4,59.9517497542608,
7,parcelated_audio/42/42_33.ogg,,,,,,,,,0,0,0,0,0,7,7,7,0,0,0,0,,,,,,,,,0,0,0,0,0,32,32,32,,,,,,,,,,,,,,,,,,,,,,,,,,,,,,,,,,,,,,,,,,,,,,,,1638.7873266099923,1645.8429522419901,,,,,,,,,,,,,,,,,,,,,,,,,,,,,,,,,,,,,,,,,,,,,,,,,,,,,,,,,,,,,,,,,,,,041621,2,3,0,2,0,1,2,0,64,2021_Apr_16_1202,listening_fmri,3.2.4,59.9517497542608,
7,parcelated_audio/42/42_34.ogg,,,,,,,,,0,0,0,0,0,7,7,7,0,0,0,0,,,,,,,,,0,0,0,0,0,33,33,33,,,,,,,,,,,,,,,,,,,,,,,,,,,,,,,,,,,,,,,,,,,,,,,,1645.843302933994,1656.5505231369898,,,,,,,,,,,,,,,,,,,,,,,,,,,,,,,,,,,,,,,,,,,,,,,,,,,,,,,,,,,,,,,,,,,,041621,2,3,0,2,0,1,2,0,64,2021_Apr_16_1202,listening_fmri,3.2.4,59.9517497542608,
7,parcelated_audio/42/42_35.ogg,,,,,,,,,0,0,0,0,0,7,7,7,0,0,0,0,,,,,,,,,0,0,0,0,0,34,34,34,,,,,,,,,,,,,,,,,,,,,,,,,,,,,,,,,,,,,,,,,,,,,,,,1656.5508773210022,1666.3144324000023,,,,,,,,,,,,,,,,,,,,,,,,,,,,,,,,,,,,,,,,,,,,,,,,,,,,,,,,,,,,,,,,,,,,041621,2,3,0,2,0,1,2,0,64,2021_Apr_16_1202,listening_fmri,3.2.4,59.9517497542608,
7,,,,,,,,,,0,0,0,0,0,7,7,7,0,0,0,0,,,,,,,,,0,0,0,0,,,,,,,,,,,,,,,,,,,,,,,,,,,,,,,,,,,,,,,,,,,,,,,,,,,,,,,,,,,,,,,,,,,,,,,,,,,,,,,,,,,,,,,,,,,,,,,,,,,,,,,,,,,,,,,,,,,,,,,,,041621,2,3,0,2,0,1,2,0,64,2021_Apr_16_1202,listening_fmri,3.2.4,59.9517497542608,
7,,,,,,,,,,0,0,0,0,0,7,7,7,0,0,0,0,,,,,,,,,,,,,,,,,,,,,,,,,,,,,,,,,,,,,,,,,,1666.3149423669965,1672.3177719369996,1716.711380970999,None,,,,,,,,,,,,,,,,,,,,,1722.714054547003,None,1722.714054547003,None,,,,,,,,,,,,,,,,,,,,,,,,,,,,,,,,,,,,,,,,,,,,,,,,,,,,,,,,,,,,,,,,041621,2,3,0,2,0,1,2,0,64,2021_Apr_16_1202,listening_fmri,3.2.4,59.9517497542608,
7,,,,,,,,,,0,0,0,0,0,7,7,7,,,,,,,,,,,,,,,,,,,,,,,,,,,,,,,,,,,,,,,,,,,,,,,,,,,,,,,,,,,,,,,,,,,,,,,,,,,,,,,,,,,,,,,,,,,,,,,,,,,,,,,,,,,,,,,,,,,,,,,,,,,,,,,,,,,,,,,,,041621,2,3,0,2,0,1,2,0,64,2021_Apr_16_1202,listening_fmri,3.2.4,59.9517497542608,
,,,,,,,,,,0,0,0,0,,,,,,,,,,,,,,,,,,,,,,,,,,,,,,,,,,,,,,,,,,,,,,,,,,,,,,,,,,,,,,,,,,,,,,,,,,,,,,,,,,,,,,,,,,,,,,,,,,,,,,,,,,,,,,,,,,,,,,,,,,,,,,,,,,,,,,,,,,,,,041621,2,3,0,2,0,1,2,0,64,2021_Apr_16_1202,listening_fmri,3.2.4,59.9517497542608,
,,,,,,,,,,,,,,,,,,,,,,,,,,,,,,,,,,,,,,,,,,,,,,0,0,0,0,,,,,,,,,,,,,,,,,,,,,,,,,,,,,,,,,,,,,,,,,,,,,,,,,,,,,,,,,,,,,,,,,,,,,,,,,,,,,,,,,,,,,,,,,,,,,,,,,,,,,,,1723.7468802020012,None,041621,2,3,0,2,0,1,2,0,64,2021_Apr_16_1202,listening_fmri,3.2.4,59.9517497542608,
,,,,,,,,,,,,,,,,,,,,,,,,,,,,,,,,,,,,,,,,,,,,,,1,0,1,0,,,,,,,,,,,,,,,,,,,,,,,,,,,,,,,,,,,,,,,,,,,,,,,,,,,,,,,,,,,,,,,,,,,,,,,,,,,,,,,,,,,,,,,,,,,,,,,,,,,,,,,1724.213790755006,None,041621,2,3,0,2,0,1,2,0,64,2021_Apr_16_1202,listening_fmri,3.2.4,59.9517497542608,
,,,,,,,,,,,,,,,,,,,,,,,,,,,,,,,,,,,,,,,,,,,,,,2,0,2,0,,,,,,,,,,,,,,,,,,,,,,,,,,,,,,,,,,,,,,,,,,,,,,,,,,,,,,,,,,,,,,,,,,,,,,,,,,,,,,,,,,,,,,,,,,,,,,,,,,,,,,,1724.7146148049942,None,041621,2,3,0,2,0,1,2,0,64,2021_Apr_16_1202,listening_fmri,3.2.4,59.9517497542608,
,,,,,,,,,,,,,,,,,,,,,,,,,,,,,,,,,,,,,,,,,,,,,,3,0,3,0,,,,,,,,,,,,,,,,,,,,,,,,,,,,,,,,,,,,,,,,,,,,,,,,,,,,,,,,,,,,,,,,,,,,,,,,,,,,,,,,,,,,,,,,,,,,,,,,,,,,,,,1725.214794501997,None,041621,2,3,0,2,0,1,2,0,64,2021_Apr_16_1202,listening_fmri,3.2.4,59.9517497542608,
,,,,,,,,,,,,,,,,,,,,,,,,,,,,,,,,,,,,,,,,,,,,,,4,0,4,0,,,,,,,,,,,,,,,,,,,,,,,,,,,,,,,,,,,,,,,,,,,,,,,,,,,,,,,,,,,,,,,,,,,,,,,,,,,,,,,,,,,,,,,,,,,,,,,,,,,,,,,1725.7136930349952,None,041621,2,3,0,2,0,1,2,0,64,2021_Apr_16_1202,listening_fmri,3.2.4,59.9517497542608,
