count,audio,trials_14.thisRepN,trials_14.thisTrialN,trials_14.thisN,trials_14.thisIndex,trials_3.thisRepN,trials_3.thisTrialN,trials_3.thisN,trials_3.thisIndex,trials_4.thisRepN,trials_4.thisTrialN,trials_4.thisN,trials_4.thisIndex,trials_6.thisRepN,trials_6.thisTrialN,trials_6.thisN,trials_6.thisIndex,trials_9.thisRepN,trials_9.thisTrialN,trials_9.thisN,trials_9.thisIndex,trials_10.thisRepN,trials_10.thisTrialN,trials_10.thisN,trials_10.thisIndex,trials_12.thisRepN,trials_12.thisTrialN,trials_12.thisN,trials_12.thisIndex,trials_25.thisRepN,trials_25.thisTrialN,trials_25.thisN,trials_25.thisIndex,trials_15.thisRepN,trials_15.thisTrialN,trials_15.thisN,trials_15.thisIndex,trials_26.thisRepN,trials_26.thisTrialN,trials_26.thisN,trials_26.thisIndex,story_list_block2,action_list_block2,textTrigger.started,textTrigger.stopped,getTrigger.keys,getTrigger.rt,getTrigger.started,getTrigger.stopped,triggerTime,text_76.started,text_76.stopped,text_77.started,text_77.stopped,startWait,endWait,image_23.started,image_23.stopped,text_55.started,text_55.stopped,text_56.started,text_56.stopped,key_resp_2.keys,key_resp_2.rt,key_resp_2.started,key_resp_2.stopped,text_82.started,text_82.stopped,text_64.started,text_64.stopped,key_resp_20.keys,key_resp_20.rt,key_resp_20.started,key_resp_20.stopped,storyImage_StartTime,storyImage_EndTime,clip_StartTime,clip_EndTime,text_67.started,text_67.stopped,text_68.started,text_68.stopped,participant,sA,sB,lA,lB,block_struct,play_stories,block,behavioral,random_seed,date,expName,psychopyVersion,frameRate,
0,parcelated_audio/14/14_1.ogg,,,,,,,,,0,0,0,0,0,0,0,0,0,0,0,0,,,,,,,,,0,0,0,0,0,0,0,0,,,,,[14 23 32 21 12 34 41 43],[4 3 2 1 2 4 1 3],25.077742103999753,None,equal,47.622918906999985,25.077742103999753,None,47.64616687099988,25.077742103999753,None,25.077742103999753,None,0.000342006000209949,5.999234206999972,72.72872031799989,None,78.7334800499998,None,78.7334800499998,None,1,1.0681744569997136,78.7334800499998,None,78.7334800499998,None,79.83403703399972,None,1,1.2126201199998832,79.83403703399972,None,8.3570543120004,11.365646646000187,11.37096986000006,18.250588836000134,,,,,030722,1,3,1,2,1,1,2,0,56,2022_Mar_07_1323,listening_fmri,3.2.4,59.96611386857624,
0,parcelated_audio/14/14_2.ogg,,,,,,,,,0,0,0,0,0,0,0,0,0,0,0,0,,,,,,,,,0,0,0,0,0,1,1,1,,,,,,,,,,,,,,,,,,,,,,,,,,,,,,,,,,,,,,,,18.251035511000282,24.79463995900005,,,,,030722,1,3,1,2,1,1,2,0,56,2022_Mar_07_1323,listening_fmri,3.2.4,59.96611386857624,
0,parcelated_audio/14/14_3.ogg,,,,,,,,,0,0,0,0,0,0,0,0,0,0,0,0,,,,,,,,,0,0,0,0,0,2,2,2,,,,,,,,,,,,,,,,,,,,,,,,,,,,,,,,,,,,,,,,24.79594238000027,28.505055107000317,,,,,030722,1,3,1,2,1,1,2,0,56,2022_Mar_07_1323,listening_fmri,3.2.4,59.96611386857624,
0,parcelated_audio/14/14_4.ogg,,,,,,,,,0,0,0,0,0,0,0,0,0,0,0,0,,,,,,,,,0,0,0,0,0,3,3,3,,,,,,,,,,,,,,,,,,,,,,,,,,,,,,,,,,,,,,,,28.505404715000168,36.455934309999975,,,,,030722,1,3,1,2,1,1,2,0,56,2022_Mar_07_1323,listening_fmri,3.2.4,59.96611386857624,
0,parcelated_audio/14/14_5.ogg,,,,,,,,,0,0,0,0,0,0,0,0,0,0,0,0,,,,,,,,,0,0,0,0,0,4,4,4,,,,,,,,,,,,,,,,,,,,,,,,,,,,,,,,,,,,,,,,36.45627982900032,41.3184307180004,,,,,030722,1,3,1,2,1,1,2,0,56,2022_Mar_07_1323,listening_fmri,3.2.4,59.96611386857624,
0,parcelated_audio/14/14_6.ogg,,,,,,,,,0,0,0,0,0,0,0,0,0,0,0,0,,,,,,,,,0,0,0,0,0,5,5,5,,,,,,,,,,,,,,,,,,,,,,,,,,,,,,,,,,,,,,,,41.319014272000004,47.185234760000185,,,,,030722,1,3,1,2,1,1,2,0,56,2022_Mar_07_1323,listening_fmri,3.2.4,59.96611386857624,
0,parcelated_audio/14/14_7.ogg,,,,,,,,,0,0,0,0,0,0,0,0,0,0,0,0,,,,,,,,,0,0,0,0,0,6,6,6,,,,,,,,,,,,,,,,,,,,,,,,,,,,,,,,,,,,,,,,47.1855992400001,56.83587451700032,,,,,030722,1,3,1,2,1,1,2,0,56,2022_Mar_07_1323,listening_fmri,3.2.4,59.96611386857624,
0,parcelated_audio/14/14_8.ogg,,,,,,,,,0,0,0,0,0,0,0,0,0,0,0,0,,,,,,,,,0,0,0,0,0,7,7,7,,,,,,,,,,,,,,,,,,,,,,,,,,,,,,,,,,,,,,,,56.836225944000034,62.04926938300014,,,,,030722,1,3,1,2,1,1,2,0,56,2022_Mar_07_1323,listening_fmri,3.2.4,59.96611386857624,
0,parcelated_audio/14/14_9.ogg,,,,,,,,,0,0,0,0,0,0,0,0,0,0,0,0,,,,,,,,,0,0,0,0,0,8,8,8,,,,,,,,,,,,,,,,,,,,,,,,,,,,,,,,,,,,,,,,62.04962028400041,65.80208340000036,,,,,030722,1,3,1,2,1,1,2,0,56,2022_Mar_07_1323,listening_fmri,3.2.4,59.96611386857624,
0,parcelated_audio/14/14_10.ogg,,,,,,,,,0,0,0,0,0,0,0,0,0,0,0,0,,,,,,,,,0,0,0,0,0,9,9,9,,,,,,,,,,,,,,,,,,,,,,,,,,,,,,,,,,,,,,,,65.80243020200032,77.06485533100022,,,,,030722,1,3,1,2,1,1,2,0,56,2022_Mar_07_1323,listening_fmri,3.2.4,59.96611386857624,
0,parcelated_audio/14/14_11.ogg,,,,,,,,,0,0,0,0,0,0,0,0,0,0,0,0,,,,,,,,,0,0,0,0,0,10,10,10,,,,,,,,,,,,,,,,,,,,,,,,,,,,,,,,,,,,,,,,77.06520663000038,84.26980811200019,,,,,030722,1,3,1,2,1,1,2,0,56,2022_Mar_07_1323,listening_fmri,3.2.4,59.96611386857624,
0,parcelated_audio/14/14_12.ogg,,,,,,,,,0,0,0,0,0,0,0,0,0,0,0,0,,,,,,,,,0,0,0,0,0,11,11,11,,,,,,,,,,,,,,,,,,,,,,,,,,,,,,,,,,,,,,,,84.27039676599998,92.28645065800038,,,,,030722,1,3,1,2,1,1,2,0,56,2022_Mar_07_1323,listening_fmri,3.2.4,59.96611386857624,
0,parcelated_audio/14/14_13.ogg,,,,,,,,,0,0,0,0,0,0,0,0,0,0,0,0,,,,,,,,,0,0,0,0,0,12,12,12,,,,,,,,,,,,,,,,,,,,,,,,,,,,,,,,,,,,,,,,92.2870536710002,98.39778705500021,,,,,030722,1,3,1,2,1,1,2,0,56,2022_Mar_07_1323,listening_fmri,3.2.4,59.96611386857624,
0,parcelated_audio/14/14_14.ogg,,,,,,,,,0,0,0,0,0,0,0,0,0,0,0,0,,,,,,,,,0,0,0,0,0,13,13,13,,,,,,,,,,,,,,,,,,,,,,,,,,,,,,,,,,,,,,,,98.39814656500039,104.94930754200004,,,,,030722,1,3,1,2,1,1,2,0,56,2022_Mar_07_1323,listening_fmri,3.2.4,59.96611386857624,
0,parcelated_audio/14/14_15.ogg,,,,,,,,,0,0,0,0,0,0,0,0,0,0,0,0,,,,,,,,,0,0,0,0,0,14,14,14,,,,,,,,,,,,,,,,,,,,,,,,,,,,,,,,,,,,,,,,104.94995597800016,112.063999298,,,,,030722,1,3,1,2,1,1,2,0,56,2022_Mar_07_1323,listening_fmri,3.2.4,59.96611386857624,
0,parcelated_audio/14/14_16.ogg,,,,,,,,,0,0,0,0,0,0,0,0,0,0,0,0,,,,,,,,,0,0,0,0,0,15,15,15,,,,,,,,,,,,,,,,,,,,,,,,,,,,,,,,,,,,,,,,112.06459282200012,117.48597880000034,,,,,030722,1,3,1,2,1,1,2,0,56,2022_Mar_07_1323,listening_fmri,3.2.4,59.96611386857624,
0,parcelated_audio/14/14_17.ogg,,,,,,,,,0,0,0,0,0,0,0,0,0,0,0,0,,,,,,,,,0,0,0,0,0,16,16,16,,,,,,,,,,,,,,,,,,,,,,,,,,,,,,,,,,,,,,,,117.48633762899999,127.18586251600027,,,,,030722,1,3,1,2,1,1,2,0,56,2022_Mar_07_1323,listening_fmri,3.2.4,59.96611386857624,
0,parcelated_audio/14/14_18.ogg,,,,,,,,,0,0,0,0,0,0,0,0,0,0,0,0,,,,,,,,,0,0,0,0,0,17,17,17,,,,,,,,,,,,,,,,,,,,,,,,,,,,,,,,,,,,,,,,127.18613636500004,134.77276366800015,,,,,030722,1,3,1,2,1,1,2,0,56,2022_Mar_07_1323,listening_fmri,3.2.4,59.96611386857624,
0,parcelated_audio/14/14_19.ogg,,,,,,,,,0,0,0,0,0,0,0,0,0,0,0,0,,,,,,,,,0,0,0,0,0,18,18,18,,,,,,,,,,,,,,,,,,,,,,,,,,,,,,,,,,,,,,,,134.77385961000027,137.63871836600038,,,,,030722,1,3,1,2,1,1,2,0,56,2022_Mar_07_1323,listening_fmri,3.2.4,59.96611386857624,
0,parcelated_audio/14/14_20.ogg,,,,,,,,,0,0,0,0,0,0,0,0,0,0,0,0,,,,,,,,,0,0,0,0,0,19,19,19,,,,,,,,,,,,,,,,,,,,,,,,,,,,,,,,,,,,,,,,137.63927096600037,139.79277270400007,,,,,030722,1,3,1,2,1,1,2,0,56,2022_Mar_07_1323,listening_fmri,3.2.4,59.96611386857624,
0,parcelated_audio/14/14_21.ogg,,,,,,,,,0,0,0,0,0,0,0,0,0,0,0,0,,,,,,,,,0,0,0,0,0,20,20,20,,,,,,,,,,,,,,,,,,,,,,,,,,,,,,,,,,,,,,,,139.79337232200032,149.37085430800016,,,,,030722,1,3,1,2,1,1,2,0,56,2022_Mar_07_1323,listening_fmri,3.2.4,59.96611386857624,
0,parcelated_audio/14/14_22.ogg,,,,,,,,,0,0,0,0,0,0,0,0,0,0,0,0,,,,,,,,,0,0,0,0,0,21,21,21,,,,,,,,,,,,,,,,,,,,,,,,,,,,,,,,,,,,,,,,149.3712108310001,155.71079277800027,,,,,030722,1,3,1,2,1,1,2,0,56,2022_Mar_07_1323,listening_fmri,3.2.4,59.96611386857624,
0,parcelated_audio/14/14_23.ogg,,,,,,,,,0,0,0,0,0,0,0,0,0,0,0,0,,,,,,,,,0,0,0,0,0,22,22,22,,,,,,,,,,,,,,,,,,,,,,,,,,,,,,,,,,,,,,,,155.71126675300002,160.77879859300037,,,,,030722,1,3,1,2,1,1,2,0,56,2022_Mar_07_1323,listening_fmri,3.2.4,59.96611386857624,
0,parcelated_audio/14/14_24.ogg,,,,,,,,,0,0,0,0,0,0,0,0,0,0,0,0,,,,,,,,,0,0,0,0,0,23,23,23,,,,,,,,,,,,,,,,,,,,,,,,,,,,,,,,,,,,,,,,160.7793983190004,171.68984918000024,,,,,030722,1,3,1,2,1,1,2,0,56,2022_Mar_07_1323,listening_fmri,3.2.4,59.96611386857624,
0,parcelated_audio/14/14_25.ogg,,,,,,,,,0,0,0,0,0,0,0,0,0,0,0,0,,,,,,,,,0,0,0,0,0,24,24,24,,,,,,,,,,,,,,,,,,,,,,,,,,,,,,,,,,,,,,,,171.69011869800033,178.33433248500023,,,,,030722,1,3,1,2,1,1,2,0,56,2022_Mar_07_1323,listening_fmri,3.2.4,59.96611386857624,
0,parcelated_audio/14/14_26.ogg,,,,,,,,,0,0,0,0,0,0,0,0,0,0,0,0,,,,,,,,,0,0,0,0,0,25,25,25,,,,,,,,,,,,,,,,,,,,,,,,,,,,,,,,,,,,,,,,178.33490471200003,180.51484664999998,,,,,030722,1,3,1,2,1,1,2,0,56,2022_Mar_07_1323,listening_fmri,3.2.4,59.96611386857624,
0,parcelated_audio/14/14_27.ogg,,,,,,,,,0,0,0,0,0,0,0,0,0,0,0,0,,,,,,,,,0,0,0,0,0,26,26,26,,,,,,,,,,,,,,,,,,,,,,,,,,,,,,,,,,,,,,,,180.5151943660003,186.537844598,,,,,030722,1,3,1,2,1,1,2,0,56,2022_Mar_07_1323,listening_fmri,3.2.4,59.96611386857624,
0,parcelated_audio/14/14_28.ogg,,,,,,,,,0,0,0,0,0,0,0,0,0,0,0,0,,,,,,,,,0,0,0,0,0,27,27,27,,,,,,,,,,,,,,,,,,,,,,,,,,,,,,,,,,,,,,,,186.5383552510002,189.51581657800034,,,,,030722,1,3,1,2,1,1,2,0,56,2022_Mar_07_1323,listening_fmri,3.2.4,59.96611386857624,
0,parcelated_audio/14/14_29.ogg,,,,,,,,,0,0,0,0,0,0,0,0,0,0,0,0,,,,,,,,,0,0,0,0,0,28,28,28,,,,,,,,,,,,,,,,,,,,,,,,,,,,,,,,,,,,,,,,189.516416553,191.88274425999998,,,,,030722,1,3,1,2,1,1,2,0,56,2022_Mar_07_1323,listening_fmri,3.2.4,59.96611386857624,
0,parcelated_audio/14/14_30.ogg,,,,,,,,,0,0,0,0,0,0,0,0,0,0,0,0,,,,,,,,,0,0,0,0,0,29,29,29,,,,,,,,,,,,,,,,,,,,,,,,,,,,,,,,,,,,,,,,191.88310518100025,196.14084543000035,,,,,030722,1,3,1,2,1,1,2,0,56,2022_Mar_07_1323,listening_fmri,3.2.4,59.96611386857624,
0,parcelated_audio/14/14_31.ogg,,,,,,,,,0,0,0,0,0,0,0,0,0,0,0,0,,,,,,,,,0,0,0,0,0,30,30,30,,,,,,,,,,,,,,,,,,,,,,,,,,,,,,,,,,,,,,,,196.14133395800036,203.42279904700035,,,,,030722,1,3,1,2,1,1,2,0,56,2022_Mar_07_1323,listening_fmri,3.2.4,59.96611386857624,
0,parcelated_audio/14/14_32.ogg,,,,,,,,,0,0,0,0,0,0,0,0,0,0,0,0,,,,,,,,,0,0,0,0,0,31,31,31,,,,,,,,,,,,,,,,,,,,,,,,,,,,,,,,,,,,,,,,203.4231591570001,210.57364864600004,,,,,030722,1,3,1,2,1,1,2,0,56,2022_Mar_07_1323,listening_fmri,3.2.4,59.96611386857624,
0,parcelated_audio/14/14_33.ogg,,,,,,,,,0,0,0,0,0,0,0,0,0,0,0,0,,,,,,,,,0,0,0,0,0,32,32,32,,,,,,,,,,,,,,,,,,,,,,,,,,,,,,,,,,,,,,,,210.5742671930002,217.13473322300024,,,,,030722,1,3,1,2,1,1,2,0,56,2022_Mar_07_1323,listening_fmri,3.2.4,59.96611386857624,
0,,,,,,,,,,0,0,0,0,0,0,0,0,0,0,0,0,,,,,,,,,0,0,0,0,,,,,,,,,,,,,,,,,,,,,,,,,,,,,,,,,,,,,,,,,,,,,,,,,,030722,1,3,1,2,1,1,2,0,56,2022_Mar_07_1323,listening_fmri,3.2.4,59.96611386857624,
,,,,,,,,,,,,,,,,,,,,,,,,,,,,,,,,,,,,,,,,,,,,,,,,,,,,,,,217.13529258200015,223.132334592,289.86178781599983,None,,,,,,,,,,,,,,,,,,,,,295.86209367799984,None,295.86209367799984,None,,,,,,,,,,,,,,,
﻿count,audio,trials_14.thisRepN,trials_14.thisTrialN,trials_14.thisN,trials_14.thisIndex,trials_3.thisRepN,trials_3.thisTrialN,trials_3.thisN,trials_3.thisIndex,trials_4.thisRepN,trials_4.thisTrialN,trials_4.thisN,trials_4.thisIndex,trials_6.thisRepN,trials_6.thisTrialN,trials_6.thisN,trials_6.thisIndex,trials_9.thisRepN,trials_9.thisTrialN,trials_9.thisN,trials_9.thisIndex,trials_10.thisRepN,trials_10.thisTrialN,trials_10.thisN,trials_10.thisIndex,trials_12.thisRepN,trials_12.thisTrialN,trials_12.thisN,trials_12.thisIndex,trials_25.thisRepN,trials_25.thisTrialN,trials_25.thisN,trials_25.thisIndex,trials_15.thisRepN,trials_15.thisTrialN,trials_15.thisN,trials_15.thisIndex,trials_26.thisRepN,trials_26.thisTrialN,trials_26.thisN,trials_26.thisIndex,trials_11.thisRepN,trials_11.thisTrialN,trials_11.thisN,trials_11.thisIndex,story_list_block2,action_list_block2,textTrigger.started,textTrigger.stopped,getTrigger.keys,getTrigger.rt,getTrigger.started,getTrigger.stopped,triggerTime,text_76.started,text_76.stopped,text_77.started,text_77.stopped,startWait,endWait,image_23.started,image_23.stopped,text_55.started,text_55.stopped,text_56.started,text_56.stopped,key_resp_2.keys,key_resp_2.rt,key_resp_2.started,key_resp_2.stopped,text_82.started,text_82.stopped,text_64.started,text_64.stopped,key_resp_20.keys,key_resp_20.rt,key_resp_20.started,key_resp_20.stopped,storyImage_StartTime,storyImage_EndTime,clip_StartTime,clip_EndTime,text_67.started,text_67.stopped,text_68.started,text_68.stopped,text_57.started,text_57.stopped,key_resp_17.keys,key_resp_17.rt,key_resp_17.started,key_resp_17.stopped,text_83.started,text_83.stopped,text_60.started,text_60.stopped,image_2.started,image_2.stopped,text_58.started,text_58.stopped,key_resp_23.keys,key_resp_23.rt,key_resp_23.started,key_resp_23.stopped,text_62.started,text_62.stopped,key_resp_18.keys,key_resp_18.rt,key_resp_18.started,key_resp_18.stopped,text_84.started,text_84.stopped,question1_2.started,question1_2.stopped,question2_2.started,question2_2.stopped,question3_2.started,question3_2.stopped,question4_2.started,question4_2.stopped,question5_2.started,question5_2.stopped,question6_2.started,question6_2.stopped,image_15.started,image_15.stopped,key_resp.keys,key_resp.started,key_resp.stopped,text_59.started,text_59.stopped,key_resp_19.keys,key_resp_19.rt,key_resp_19.started,key_resp_19.stopped,text_85.started,text_85.stopped,text_61.started,text_61.stopped,image_17.started,image_17.stopped,text_63.started,text_63.stopped,key_resp_24.keys,key_resp_24.rt,key_resp_24.started,key_resp_24.stopped,participant,sA,sB,lA,lB,block_struct,play_stories,block,behavioral,random_seed,date,expName,psychopyVersion,frameRate,
0,parcelated_audio/14/14_1.ogg,,,,,,,,,0,0,0,0,0,0,0,0,0,0,0,0,,,,,,,,,0,0,0,0,0,0,0,0,,,,,,,,,[14 23 32 21 12 34 41 43],[4 3 2 1 2 4 1 3],25.077742103999753,None,equal,47.622918906999985,25.077742103999753,None,47.64616687099988,25.077742103999753,None,25.077742103999753,None,0.000342006000209949,5.999234206999972,72.72872031799989,None,78.7334800499998,None,78.7334800499998,None,1,1.0681744569997136,78.7334800499998,None,78.7334800499998,None,79.83403703399972,None,1,1.2126201199998832,79.83403703399972,None,8.3570543120004,11.365646646000187,11.37096986000006,18.250588836000134,,,,,,,,,,,,,,,,,,,,,,,,,,,,,,,,,,,,,,,,,,,,,,,,,,,,,,,,,,,,,,,,,,030722,1,3,1,2,1,1,2,0,56,2022_Mar_07_1323,listening_fmri,3.2.4,59.96611386857624,
0,parcelated_audio/14/14_2.ogg,,,,,,,,,0,0,0,0,0,0,0,0,0,0,0,0,,,,,,,,,0,0,0,0,0,1,1,1,,,,,,,,,,,,,,,,,,,,,,,,,,,,,,,,,,,,,,,,,,,,18.251035511000282,24.79463995900005,,,,,,,,,,,,,,,,,,,,,,,,,,,,,,,,,,,,,,,,,,,,,,,,,,,,,,,,,,,,,,,,,,030722,1,3,1,2,1,1,2,0,56,2022_Mar_07_1323,listening_fmri,3.2.4,59.96611386857624,
0,parcelated_audio/14/14_3.ogg,,,,,,,,,0,0,0,0,0,0,0,0,0,0,0,0,,,,,,,,,0,0,0,0,0,2,2,2,,,,,,,,,,,,,,,,,,,,,,,,,,,,,,,,,,,,,,,,,,,,24.79594238000027,28.505055107000317,,,,,,,,,,,,,,,,,,,,,,,,,,,,,,,,,,,,,,,,,,,,,,,,,,,,,,,,,,,,,,,,,,030722,1,3,1,2,1,1,2,0,56,2022_Mar_07_1323,listening_fmri,3.2.4,59.96611386857624,
0,parcelated_audio/14/14_4.ogg,,,,,,,,,0,0,0,0,0,0,0,0,0,0,0,0,,,,,,,,,0,0,0,0,0,3,3,3,,,,,,,,,,,,,,,,,,,,,,,,,,,,,,,,,,,,,,,,,,,,28.505404715000168,36.455934309999975,,,,,,,,,,,,,,,,,,,,,,,,,,,,,,,,,,,,,,,,,,,,,,,,,,,,,,,,,,,,,,,,,,030722,1,3,1,2,1,1,2,0,56,2022_Mar_07_1323,listening_fmri,3.2.4,59.96611386857624,
0,parcelated_audio/14/14_5.ogg,,,,,,,,,0,0,0,0,0,0,0,0,0,0,0,0,,,,,,,,,0,0,0,0,0,4,4,4,,,,,,,,,,,,,,,,,,,,,,,,,,,,,,,,,,,,,,,,,,,,36.45627982900032,41.3184307180004,,,,,,,,,,,,,,,,,,,,,,,,,,,,,,,,,,,,,,,,,,,,,,,,,,,,,,,,,,,,,,,,,,030722,1,3,1,2,1,1,2,0,56,2022_Mar_07_1323,listening_fmri,3.2.4,59.96611386857624,
0,parcelated_audio/14/14_6.ogg,,,,,,,,,0,0,0,0,0,0,0,0,0,0,0,0,,,,,,,,,0,0,0,0,0,5,5,5,,,,,,,,,,,,,,,,,,,,,,,,,,,,,,,,,,,,,,,,,,,,41.319014272000004,47.185234760000185,,,,,,,,,,,,,,,,,,,,,,,,,,,,,,,,,,,,,,,,,,,,,,,,,,,,,,,,,,,,,,,,,,030722,1,3,1,2,1,1,2,0,56,2022_Mar_07_1323,listening_fmri,3.2.4,59.96611386857624,
0,parcelated_audio/14/14_7.ogg,,,,,,,,,0,0,0,0,0,0,0,0,0,0,0,0,,,,,,,,,0,0,0,0,0,6,6,6,,,,,,,,,,,,,,,,,,,,,,,,,,,,,,,,,,,,,,,,,,,,47.1855992400001,56.83587451700032,,,,,,,,,,,,,,,,,,,,,,,,,,,,,,,,,,,,,,,,,,,,,,,,,,,,,,,,,,,,,,,,,,030722,1,3,1,2,1,1,2,0,56,2022_Mar_07_1323,listening_fmri,3.2.4,59.96611386857624,
0,parcelated_audio/14/14_8.ogg,,,,,,,,,0,0,0,0,0,0,0,0,0,0,0,0,,,,,,,,,0,0,0,0,0,7,7,7,,,,,,,,,,,,,,,,,,,,,,,,,,,,,,,,,,,,,,,,,,,,56.836225944000034,62.04926938300014,,,,,,,,,,,,,,,,,,,,,,,,,,,,,,,,,,,,,,,,,,,,,,,,,,,,,,,,,,,,,,,,,,030722,1,3,1,2,1,1,2,0,56,2022_Mar_07_1323,listening_fmri,3.2.4,59.96611386857624,
0,parcelated_audio/14/14_9.ogg,,,,,,,,,0,0,0,0,0,0,0,0,0,0,0,0,,,,,,,,,0,0,0,0,0,8,8,8,,,,,,,,,,,,,,,,,,,,,,,,,,,,,,,,,,,,,,,,,,,,62.04962028400041,65.80208340000036,,,,,,,,,,,,,,,,,,,,,,,,,,,,,,,,,,,,,,,,,,,,,,,,,,,,,,,,,,,,,,,,,,030722,1,3,1,2,1,1,2,0,56,2022_Mar_07_1323,listening_fmri,3.2.4,59.96611386857624,
0,parcelated_audio/14/14_10.ogg,,,,,,,,,0,0,0,0,0,0,0,0,0,0,0,0,,,,,,,,,0,0,0,0,0,9,9,9,,,,,,,,,,,,,,,,,,,,,,,,,,,,,,,,,,,,,,,,,,,,65.80243020200032,77.06485533100022,,,,,,,,,,,,,,,,,,,,,,,,,,,,,,,,,,,,,,,,,,,,,,,,,,,,,,,,,,,,,,,,,,030722,1,3,1,2,1,1,2,0,56,2022_Mar_07_1323,listening_fmri,3.2.4,59.96611386857624,
0,parcelated_audio/14/14_11.ogg,,,,,,,,,0,0,0,0,0,0,0,0,0,0,0,0,,,,,,,,,0,0,0,0,0,10,10,10,,,,,,,,,,,,,,,,,,,,,,,,,,,,,,,,,,,,,,,,,,,,77.06520663000038,84.26980811200019,,,,,,,,,,,,,,,,,,,,,,,,,,,,,,,,,,,,,,,,,,,,,,,,,,,,,,,,,,,,,,,,,,030722,1,3,1,2,1,1,2,0,56,2022_Mar_07_1323,listening_fmri,3.2.4,59.96611386857624,
0,parcelated_audio/14/14_12.ogg,,,,,,,,,0,0,0,0,0,0,0,0,0,0,0,0,,,,,,,,,0,0,0,0,0,11,11,11,,,,,,,,,,,,,,,,,,,,,,,,,,,,,,,,,,,,,,,,,,,,84.27039676599998,92.28645065800038,,,,,,,,,,,,,,,,,,,,,,,,,,,,,,,,,,,,,,,,,,,,,,,,,,,,,,,,,,,,,,,,,,030722,1,3,1,2,1,1,2,0,56,2022_Mar_07_1323,listening_fmri,3.2.4,59.96611386857624,
0,parcelated_audio/14/14_13.ogg,,,,,,,,,0,0,0,0,0,0,0,0,0,0,0,0,,,,,,,,,0,0,0,0,0,12,12,12,,,,,,,,,,,,,,,,,,,,,,,,,,,,,,,,,,,,,,,,,,,,92.2870536710002,98.39778705500021,,,,,,,,,,,,,,,,,,,,,,,,,,,,,,,,,,,,,,,,,,,,,,,,,,,,,,,,,,,,,,,,,,030722,1,3,1,2,1,1,2,0,56,2022_Mar_07_1323,listening_fmri,3.2.4,59.96611386857624,
0,parcelated_audio/14/14_14.ogg,,,,,,,,,0,0,0,0,0,0,0,0,0,0,0,0,,,,,,,,,0,0,0,0,0,13,13,13,,,,,,,,,,,,,,,,,,,,,,,,,,,,,,,,,,,,,,,,,,,,98.39814656500039,104.94930754200004,,,,,,,,,,,,,,,,,,,,,,,,,,,,,,,,,,,,,,,,,,,,,,,,,,,,,,,,,,,,,,,,,,030722,1,3,1,2,1,1,2,0,56,2022_Mar_07_1323,listening_fmri,3.2.4,59.96611386857624,
0,parcelated_audio/14/14_15.ogg,,,,,,,,,0,0,0,0,0,0,0,0,0,0,0,0,,,,,,,,,0,0,0,0,0,14,14,14,,,,,,,,,,,,,,,,,,,,,,,,,,,,,,,,,,,,,,,,,,,,104.94995597800016,112.063999298,,,,,,,,,,,,,,,,,,,,,,,,,,,,,,,,,,,,,,,,,,,,,,,,,,,,,,,,,,,,,,,,,,030722,1,3,1,2,1,1,2,0,56,2022_Mar_07_1323,listening_fmri,3.2.4,59.96611386857624,
0,parcelated_audio/14/14_16.ogg,,,,,,,,,0,0,0,0,0,0,0,0,0,0,0,0,,,,,,,,,0,0,0,0,0,15,15,15,,,,,,,,,,,,,,,,,,,,,,,,,,,,,,,,,,,,,,,,,,,,112.06459282200012,117.48597880000034,,,,,,,,,,,,,,,,,,,,,,,,,,,,,,,,,,,,,,,,,,,,,,,,,,,,,,,,,,,,,,,,,,030722,1,3,1,2,1,1,2,0,56,2022_Mar_07_1323,listening_fmri,3.2.4,59.96611386857624,
0,parcelated_audio/14/14_17.ogg,,,,,,,,,0,0,0,0,0,0,0,0,0,0,0,0,,,,,,,,,0,0,0,0,0,16,16,16,,,,,,,,,,,,,,,,,,,,,,,,,,,,,,,,,,,,,,,,,,,,117.48633762899999,127.18586251600027,,,,,,,,,,,,,,,,,,,,,,,,,,,,,,,,,,,,,,,,,,,,,,,,,,,,,,,,,,,,,,,,,,030722,1,3,1,2,1,1,2,0,56,2022_Mar_07_1323,listening_fmri,3.2.4,59.96611386857624,
0,parcelated_audio/14/14_18.ogg,,,,,,,,,0,0,0,0,0,0,0,0,0,0,0,0,,,,,,,,,0,0,0,0,0,17,17,17,,,,,,,,,,,,,,,,,,,,,,,,,,,,,,,,,,,,,,,,,,,,127.18613636500004,134.77276366800015,,,,,,,,,,,,,,,,,,,,,,,,,,,,,,,,,,,,,,,,,,,,,,,,,,,,,,,,,,,,,,,,,,030722,1,3,1,2,1,1,2,0,56,2022_Mar_07_1323,listening_fmri,3.2.4,59.96611386857624,
0,parcelated_audio/14/14_19.ogg,,,,,,,,,0,0,0,0,0,0,0,0,0,0,0,0,,,,,,,,,0,0,0,0,0,18,18,18,,,,,,,,,,,,,,,,,,,,,,,,,,,,,,,,,,,,,,,,,,,,134.77385961000027,137.63871836600038,,,,,,,,,,,,,,,,,,,,,,,,,,,,,,,,,,,,,,,,,,,,,,,,,,,,,,,,,,,,,,,,,,030722,1,3,1,2,1,1,2,0,56,2022_Mar_07_1323,listening_fmri,3.2.4,59.96611386857624,
0,parcelated_audio/14/14_20.ogg,,,,,,,,,0,0,0,0,0,0,0,0,0,0,0,0,,,,,,,,,0,0,0,0,0,19,19,19,,,,,,,,,,,,,,,,,,,,,,,,,,,,,,,,,,,,,,,,,,,,137.63927096600037,139.79277270400007,,,,,,,,,,,,,,,,,,,,,,,,,,,,,,,,,,,,,,,,,,,,,,,,,,,,,,,,,,,,,,,,,,030722,1,3,1,2,1,1,2,0,56,2022_Mar_07_1323,listening_fmri,3.2.4,59.96611386857624,
0,parcelated_audio/14/14_21.ogg,,,,,,,,,0,0,0,0,0,0,0,0,0,0,0,0,,,,,,,,,0,0,0,0,0,20,20,20,,,,,,,,,,,,,,,,,,,,,,,,,,,,,,,,,,,,,,,,,,,,139.79337232200032,149.37085430800016,,,,,,,,,,,,,,,,,,,,,,,,,,,,,,,,,,,,,,,,,,,,,,,,,,,,,,,,,,,,,,,,,,030722,1,3,1,2,1,1,2,0,56,2022_Mar_07_1323,listening_fmri,3.2.4,59.96611386857624,
0,parcelated_audio/14/14_22.ogg,,,,,,,,,0,0,0,0,0,0,0,0,0,0,0,0,,,,,,,,,0,0,0,0,0,21,21,21,,,,,,,,,,,,,,,,,,,,,,,,,,,,,,,,,,,,,,,,,,,,149.3712108310001,155.71079277800027,,,,,,,,,,,,,,,,,,,,,,,,,,,,,,,,,,,,,,,,,,,,,,,,,,,,,,,,,,,,,,,,,,030722,1,3,1,2,1,1,2,0,56,2022_Mar_07_1323,listening_fmri,3.2.4,59.96611386857624,
0,parcelated_audio/14/14_23.ogg,,,,,,,,,0,0,0,0,0,0,0,0,0,0,0,0,,,,,,,,,0,0,0,0,0,22,22,22,,,,,,,,,,,,,,,,,,,,,,,,,,,,,,,,,,,,,,,,,,,,155.71126675300002,160.77879859300037,,,,,,,,,,,,,,,,,,,,,,,,,,,,,,,,,,,,,,,,,,,,,,,,,,,,,,,,,,,,,,,,,,030722,1,3,1,2,1,1,2,0,56,2022_Mar_07_1323,listening_fmri,3.2.4,59.96611386857624,
0,parcelated_audio/14/14_24.ogg,,,,,,,,,0,0,0,0,0,0,0,0,0,0,0,0,,,,,,,,,0,0,0,0,0,23,23,23,,,,,,,,,,,,,,,,,,,,,,,,,,,,,,,,,,,,,,,,,,,,160.7793983190004,171.68984918000024,,,,,,,,,,,,,,,,,,,,,,,,,,,,,,,,,,,,,,,,,,,,,,,,,,,,,,,,,,,,,,,,,,030722,1,3,1,2,1,1,2,0,56,2022_Mar_07_1323,listening_fmri,3.2.4,59.96611386857624,
0,parcelated_audio/14/14_25.ogg,,,,,,,,,0,0,0,0,0,0,0,0,0,0,0,0,,,,,,,,,0,0,0,0,0,24,24,24,,,,,,,,,,,,,,,,,,,,,,,,,,,,,,,,,,,,,,,,,,,,171.69011869800033,178.33433248500023,,,,,,,,,,,,,,,,,,,,,,,,,,,,,,,,,,,,,,,,,,,,,,,,,,,,,,,,,,,,,,,,,,030722,1,3,1,2,1,1,2,0,56,2022_Mar_07_1323,listening_fmri,3.2.4,59.96611386857624,
0,parcelated_audio/14/14_26.ogg,,,,,,,,,0,0,0,0,0,0,0,0,0,0,0,0,,,,,,,,,0,0,0,0,0,25,25,25,,,,,,,,,,,,,,,,,,,,,,,,,,,,,,,,,,,,,,,,,,,,178.33490471200003,180.51484664999998,,,,,,,,,,,,,,,,,,,,,,,,,,,,,,,,,,,,,,,,,,,,,,,,,,,,,,,,,,,,,,,,,,030722,1,3,1,2,1,1,2,0,56,2022_Mar_07_1323,listening_fmri,3.2.4,59.96611386857624,
0,parcelated_audio/14/14_27.ogg,,,,,,,,,0,0,0,0,0,0,0,0,0,0,0,0,,,,,,,,,0,0,0,0,0,26,26,26,,,,,,,,,,,,,,,,,,,,,,,,,,,,,,,,,,,,,,,,,,,,180.5151943660003,186.537844598,,,,,,,,,,,,,,,,,,,,,,,,,,,,,,,,,,,,,,,,,,,,,,,,,,,,,,,,,,,,,,,,,,030722,1,3,1,2,1,1,2,0,56,2022_Mar_07_1323,listening_fmri,3.2.4,59.96611386857624,
0,parcelated_audio/14/14_28.ogg,,,,,,,,,0,0,0,0,0,0,0,0,0,0,0,0,,,,,,,,,0,0,0,0,0,27,27,27,,,,,,,,,,,,,,,,,,,,,,,,,,,,,,,,,,,,,,,,,,,,186.5383552510002,189.51581657800034,,,,,,,,,,,,,,,,,,,,,,,,,,,,,,,,,,,,,,,,,,,,,,,,,,,,,,,,,,,,,,,,,,030722,1,3,1,2,1,1,2,0,56,2022_Mar_07_1323,listening_fmri,3.2.4,59.96611386857624,
0,parcelated_audio/14/14_29.ogg,,,,,,,,,0,0,0,0,0,0,0,0,0,0,0,0,,,,,,,,,0,0,0,0,0,28,28,28,,,,,,,,,,,,,,,,,,,,,,,,,,,,,,,,,,,,,,,,,,,,189.516416553,191.88274425999998,,,,,,,,,,,,,,,,,,,,,,,,,,,,,,,,,,,,,,,,,,,,,,,,,,,,,,,,,,,,,,,,,,030722,1,3,1,2,1,1,2,0,56,2022_Mar_07_1323,listening_fmri,3.2.4,59.96611386857624,
0,parcelated_audio/14/14_30.ogg,,,,,,,,,0,0,0,0,0,0,0,0,0,0,0,0,,,,,,,,,0,0,0,0,0,29,29,29,,,,,,,,,,,,,,,,,,,,,,,,,,,,,,,,,,,,,,,,,,,,191.88310518100025,196.14084543000035,,,,,,,,,,,,,,,,,,,,,,,,,,,,,,,,,,,,,,,,,,,,,,,,,,,,,,,,,,,,,,,,,,030722,1,3,1,2,1,1,2,0,56,2022_Mar_07_1323,listening_fmri,3.2.4,59.96611386857624,
0,parcelated_audio/14/14_31.ogg,,,,,,,,,0,0,0,0,0,0,0,0,0,0,0,0,,,,,,,,,0,0,0,0,0,30,30,30,,,,,,,,,,,,,,,,,,,,,,,,,,,,,,,,,,,,,,,,,,,,196.14133395800036,203.42279904700035,,,,,,,,,,,,,,,,,,,,,,,,,,,,,,,,,,,,,,,,,,,,,,,,,,,,,,,,,,,,,,,,,,030722,1,3,1,2,1,1,2,0,56,2022_Mar_07_1323,listening_fmri,3.2.4,59.96611386857624,
0,parcelated_audio/14/14_32.ogg,,,,,,,,,0,0,0,0,0,0,0,0,0,0,0,0,,,,,,,,,0,0,0,0,0,31,31,31,,,,,,,,,,,,,,,,,,,,,,,,,,,,,,,,,,,,,,,,,,,,203.4231591570001,210.57364864600004,,,,,,,,,,,,,,,,,,,,,,,,,,,,,,,,,,,,,,,,,,,,,,,,,,,,,,,,,,,,,,,,,,030722,1,3,1,2,1,1,2,0,56,2022_Mar_07_1323,listening_fmri,3.2.4,59.96611386857624,
0,parcelated_audio/14/14_33.ogg,,,,,,,,,0,0,0,0,0,0,0,0,0,0,0,0,,,,,,,,,0,0,0,0,0,32,32,32,,,,,,,,,,,,,,,,,,,,,,,,,,,,,,,,,,,,,,,,,,,,210.5742671930002,217.13473322300024,,,,,,,,,,,,,,,,,,,,,,,,,,,,,,,,,,,,,,,,,,,,,,,,,,,,,,,,,,,,,,,,,,030722,1,3,1,2,1,1,2,0,56,2022_Mar_07_1323,listening_fmri,3.2.4,59.96611386857624,
0,,,,,,,,,,0,0,0,0,0,0,0,0,0,0,0,0,,,,,,,,,0,0,0,0,,,,,,,,,,,,,,,,,,,,,,,,,,,,,,,,,,,,,,,,,,,,,,,,,,,,,,,,,,,,,,,,,,,,,,,,,,,,,,,,,,,,,,,,,,,,,,,,,,,,,,,,,,,,,,,,,,,030722,1,3,1,2,1,1,2,0,56,2022_Mar_07_1323,listening_fmri,3.2.4,59.96611386857624,
0,,,,,,,,,,0,0,0,0,0,0,0,0,0,0,0,0,,,,,,,,,,,,,,,,,,,,,,,,,,,,,,,,,,,,,,217.13529258200015,223.132334592,289.86178781599983,None,,,,,,,,,,,,,,,,,,,,,295.86209367799984,None,295.86209367799984,None,,,,,,,,,,,,,,,,,,,,,,,,,,,,,,,,,,,,,,,,,,,,,,,,,,,,,,,,,,,,,,030722,1,3,1,2,1,1,2,0,56,2022_Mar_07_1323,listening_fmri,3.2.4,59.96611386857624,
0,,,,,,,,,,0,0,0,0,0,0,0,0,,,,,,,,,,,,,,,,,,,,,,,,,,,,,,,,,,,,,,,,,,,,,,,,,,,,,,,,,,,,,,,,,,,,,,,,,,,,,,,,,,,,,,,,,,,,,,,,,,,,,,,,,,,,,,,,,,,,,,,,,,,,,,,,,,,030722,1,3,1,2,1,1,2,0,56,2022_Mar_07_1323,listening_fmri,3.2.4,59.96611386857624,
1,,,,,,,,,,0,0,0,0,0,1,1,1,,,,,,,,,,,,,,,,,,,,,,,,,,,,,,,,,,,,,,,,,,,,,,,,,,,,,,,,,,,,,,,,,,,,,,,,,,,,,,,,,,,,,,,,,,,,,,,,,,,,,,,,,,,,,,,,,,,,,,,,,,,,,,,,,,,030722,1,3,1,2,1,1,2,0,56,2022_Mar_07_1323,listening_fmri,3.2.4,59.96611386857624,
2,,,,,,,,,,0,0,0,0,0,2,2,2,0,0,0,0,0,0,0,0,,,,,,,,,,,,,,,,,0,0,0,0,,,,,,,,,,,,,,,,,,296.86167675399975,None,296.86167675399975,None,1,0.9998480630001723,296.86167675399975,None,296.86167675399975,None,,,,,,,,,,,,,,,297.879307834,None,1,1.524219973000072,297.879307834,None,297.879307834,None,299.4622947009998,None,299.4622947009998,None,299.4622947009998,None,1,3.4032526669998333,299.4622947009998,None,302.89498900399985,None,1,3.6086714389998633,302.89498900399985,None,302.89498900399985,None,306.6113147799997,None,306.6113147799997,None,306.6113147799997,None,306.6113147799997,None,306.6113147799997,None,306.6113147799997,None,306.6113147799997,None,None,306.6113147799997,None,,,,,,,,,,,,,,,,,,,030722,1,3,1,2,1,1,2,0,56,2022_Mar_07_1323,listening_fmri,3.2.4,59.96611386857624,
2,,,,,,,,,,0,0,0,0,0,2,2,2,0,0,0,0,0,0,0,0,,,,,,,,,,,,,,,,,1,0,1,0,,,,,,,,,,,,,,,,,,,,,,,,,,,,,,,,,,,,,,,,,,,,,,,,,,314.01213756499965,None,314.01213756499965,None,314.01213756499965,None,1,0.8694693649999863,314.01213756499965,None,314.9117801289999,None,1,0.5967550989998927,314.9117801289999,None,314.9117801289999,None,315.6120908329999,None,315.6120908329999,None,315.6120908329999,None,315.6120908329999,None,315.6120908329999,None,315.6120908329999,None,315.6120908329999,None,None,315.6120908329999,None,,,,,,,,,,,,,,,,,,,030722,1,3,1,2,1,1,2,0,56,2022_Mar_07_1323,listening_fmri,3.2.4,59.96611386857624,
2,,,,,,,,,,0,0,0,0,0,2,2,2,0,0,0,0,0,0,0,0,,,,,,,,,,,,,,,,,,,,,,,,,,,,,,,,,,,,,,,,,,,,,,,,,,,,,,,,,,,,,,,,,,,,,,,,,,,,,,,,,,,,,,,,,,,,,,,,,,,,,,,,,333.6622730269996,None,1,1.9142321030003586,333.6622730269996,None,333.6622730269996,None,335.63057598399973,None,335.63057598399973,None,335.63057598399973,None,1,3.1600745569999162,335.63057598399973,None,030722,1,3,1,2,1,1,2,0,56,2022_Mar_07_1323,listening_fmri,3.2.4,59.96611386857624,
2,parcelated_audio/32/32_1.ogg,,,,,,,,,0,0,0,0,0,2,2,2,0,0,0,0,,,,,,,,,0,0,0,0,0,0,0,0,,,,,,,,,,,,,,,,,,,,,,,,,,,,,,,,,,,,338.81241625699977,None,1,1.3222470460000295,338.81241625699977,None,267.46282068400023,270.46624242000007,270.47177209500023,281.8227438160002,,,,,,,,,,,,,,,,,,,,,,,,,,,,,,,,,,,,,,,,,,,,,,,,,,,,,,,,,,,,,,,,,,030722,1,3,1,2,1,1,2,0,56,2022_Mar_07_1323,listening_fmri,3.2.4,59.96611386857624,
2,parcelated_audio/32/32_2.ogg,,,,,,,,,0,0,0,0,0,2,2,2,0,0,0,0,,,,,,,,,0,0,0,0,0,1,1,1,,,,,,,,,,,,,,,,,,,,,,,,,,,,,,,,,,,,,,,,,,,,281.823195123,290.1367669690003,,,,,,,,,,,,,,,,,,,,,,,,,,,,,,,,,,,,,,,,,,,,,,,,,,,,,,,,,,,,,,,,,,030722,1,3,1,2,1,1,2,0,56,2022_Mar_07_1323,listening_fmri,3.2.4,59.96611386857624,
2,parcelated_audio/32/32_3.ogg,,,,,,,,,0,0,0,0,0,2,2,2,0,0,0,0,,,,,,,,,0,0,0,0,0,2,2,2,,,,,,,,,,,,,,,,,,,,,,,,,,,,,,,,,,,,,,,,,,,,290.1376631160001,295.71321491000026,,,,,,,,,,,,,,,,,,,,,,,,,,,,,,,,,,,,,,,,,,,,,,,,,,,,,,,,,,,,,,,,,,030722,1,3,1,2,1,1,2,0,56,2022_Mar_07_1323,listening_fmri,3.2.4,59.96611386857624,
2,parcelated_audio/32/32_4.ogg,,,,,,,,,0,0,0,0,0,2,2,2,0,0,0,0,,,,,,,,,0,0,0,0,0,3,3,3,,,,,,,,,,,,,,,,,,,,,,,,,,,,,,,,,,,,,,,,,,,,295.71375241700025,302.41171886200027,,,,,,,,,,,,,,,,,,,,,,,,,,,,,,,,,,,,,,,,,,,,,,,,,,,,,,,,,,,,,,,,,,030722,1,3,1,2,1,1,2,0,56,2022_Mar_07_1323,listening_fmri,3.2.4,59.96611386857624,
2,parcelated_audio/32/32_5.ogg,,,,,,,,,0,0,0,0,0,2,2,2,0,0,0,0,,,,,,,,,0,0,0,0,0,4,4,4,,,,,,,,,,,,,,,,,,,,,,,,,,,,,,,,,,,,,,,,,,,,302.412068655,314.0972575730002,,,,,,,,,,,,,,,,,,,,,,,,,,,,,,,,,,,,,,,,,,,,,,,,,,,,,,,,,,,,,,,,,,030722,1,3,1,2,1,1,2,0,56,2022_Mar_07_1323,listening_fmri,3.2.4,59.96611386857624,
2,parcelated_audio/32/32_6.ogg,,,,,,,,,0,0,0,0,0,2,2,2,0,0,0,0,,,,,,,,,0,0,0,0,0,5,5,5,,,,,,,,,,,,,,,,,,,,,,,,,,,,,,,,,,,,,,,,,,,,314.09761148100006,322.56791112500014,,,,,,,,,,,,,,,,,,,,,,,,,,,,,,,,,,,,,,,,,,,,,,,,,,,,,,,,,,,,,,,,,,030722,1,3,1,2,1,1,2,0,56,2022_Mar_07_1323,listening_fmri,3.2.4,59.96611386857624,
2,parcelated_audio/32/32_7.ogg,,,,,,,,,0,0,0,0,0,2,2,2,0,0,0,0,,,,,,,,,0,0,0,0,0,6,6,6,,,,,,,,,,,,,,,,,,,,,,,,,,,,,,,,,,,,,,,,,,,,322.56825953600037,325.94876241600014,,,,,,,,,,,,,,,,,,,,,,,,,,,,,,,,,,,,,,,,,,,,,,,,,,,,,,,,,,,,,,,,,,030722,1,3,1,2,1,1,2,0,56,2022_Mar_07_1323,listening_fmri,3.2.4,59.96611386857624,
2,parcelated_audio/32/32_8.ogg,,,,,,,,,0,0,0,0,0,2,2,2,0,0,0,0,,,,,,,,,0,0,0,0,0,7,7,7,,,,,,,,,,,,,,,,,,,,,,,,,,,,,,,,,,,,,,,,,,,,325.9491144670001,330.425226416,,,,,,,,,,,,,,,,,,,,,,,,,,,,,,,,,,,,,,,,,,,,,,,,,,,,,,,,,,,,,,,,,,030722,1,3,1,2,1,1,2,0,56,2022_Mar_07_1323,listening_fmri,3.2.4,59.96611386857624,
2,parcelated_audio/32/32_9.ogg,,,,,,,,,0,0,0,0,0,2,2,2,0,0,0,0,,,,,,,,,0,0,0,0,0,8,8,8,,,,,,,,,,,,,,,,,,,,,,,,,,,,,,,,,,,,,,,,,,,,330.42567825900005,339.10475095300035,,,,,,,,,,,,,,,,,,,,,,,,,,,,,,,,,,,,,,,,,,,,,,,,,,,,,,,,,,,,,,,,,,030722,1,3,1,2,1,1,2,0,56,2022_Mar_07_1323,listening_fmri,3.2.4,59.96611386857624,
2,parcelated_audio/32/32_10.ogg,,,,,,,,,0,0,0,0,0,2,2,2,0,0,0,0,,,,,,,,,0,0,0,0,0,9,9,9,,,,,,,,,,,,,,,,,,,,,,,,,,,,,,,,,,,,,,,,,,,,339.1053117800002,343.78377588700005,,,,,,,,,,,,,,,,,,,,,,,,,,,,,,,,,,,,,,,,,,,,,,,,,,,,,,,,,,,,,,,,,,030722,1,3,1,2,1,1,2,0,56,2022_Mar_07_1323,listening_fmri,3.2.4,59.96611386857624,
2,parcelated_audio/32/32_11.ogg,,,,,,,,,0,0,0,0,0,2,2,2,0,0,0,0,,,,,,,,,0,0,0,0,0,10,10,10,,,,,,,,,,,,,,,,,,,,,,,,,,,,,,,,,,,,,,,,,,,,343.7843639890002,349.8527283520002,,,,,,,,,,,,,,,,,,,,,,,,,,,,,,,,,,,,,,,,,,,,,,,,,,,,,,,,,,,,,,,,,,030722,1,3,1,2,1,1,2,0,56,2022_Mar_07_1323,listening_fmri,3.2.4,59.96611386857624,
2,parcelated_audio/32/32_12.ogg,,,,,,,,,0,0,0,0,0,2,2,2,0,0,0,0,,,,,,,,,0,0,0,0,0,11,11,11,,,,,,,,,,,,,,,,,,,,,,,,,,,,,,,,,,,,,,,,,,,,349.85612462200015,359.29623548100017,,,,,,,,,,,,,,,,,,,,,,,,,,,,,,,,,,,,,,,,,,,,,,,,,,,,,,,,,,,,,,,,,,030722,1,3,1,2,1,1,2,0,56,2022_Mar_07_1323,listening_fmri,3.2.4,59.96611386857624,
2,parcelated_audio/32/32_13.ogg,,,,,,,,,0,0,0,0,0,2,2,2,0,0,0,0,,,,,,,,,0,0,0,0,0,12,12,12,,,,,,,,,,,,,,,,,,,,,,,,,,,,,,,,,,,,,,,,,,,,359.29658671000016,368.90539134300025,,,,,,,,,,,,,,,,,,,,,,,,,,,,,,,,,,,,,,,,,,,,,,,,,,,,,,,,,,,,,,,,,,030722,1,3,1,2,1,1,2,0,56,2022_Mar_07_1323,listening_fmri,3.2.4,59.96611386857624,
2,parcelated_audio/32/32_14.ogg,,,,,,,,,0,0,0,0,0,2,2,2,0,0,0,0,,,,,,,,,0,0,0,0,0,13,13,13,,,,,,,,,,,,,,,,,,,,,,,,,,,,,,,,,,,,,,,,,,,,368.9058105510003,376.97071799000014,,,,,,,,,,,,,,,,,,,,,,,,,,,,,,,,,,,,,,,,,,,,,,,,,,,,,,,,,,,,,,,,,,030722,1,3,1,2,1,1,2,0,56,2022_Mar_07_1323,listening_fmri,3.2.4,59.96611386857624,
2,parcelated_audio/32/32_15.ogg,,,,,,,,,0,0,0,0,0,2,2,2,0,0,0,0,,,,,,,,,0,0,0,0,0,14,14,14,,,,,,,,,,,,,,,,,,,,,,,,,,,,,,,,,,,,,,,,,,,,376.971282127,383.8518012450004,,,,,,,,,,,,,,,,,,,,,,,,,,,,,,,,,,,,,,,,,,,,,,,,,,,,,,,,,,,,,,,,,,030722,1,3,1,2,1,1,2,0,56,2022_Mar_07_1323,listening_fmri,3.2.4,59.96611386857624,
2,parcelated_audio/32/32_16.ogg,,,,,,,,,0,0,0,0,0,2,2,2,0,0,0,0,,,,,,,,,0,0,0,0,0,15,15,15,,,,,,,,,,,,,,,,,,,,,,,,,,,,,,,,,,,,,,,,,,,,383.8521609090003,391.468711813,,,,,,,,,,,,,,,,,,,,,,,,,,,,,,,,,,,,,,,,,,,,,,,,,,,,,,,,,,,,,,,,,,030722,1,3,1,2,1,1,2,0,56,2022_Mar_07_1323,listening_fmri,3.2.4,59.96611386857624,
2,parcelated_audio/32/32_17.ogg,,,,,,,,,0,0,0,0,0,2,2,2,0,0,0,0,,,,,,,,,0,0,0,0,0,16,16,16,,,,,,,,,,,,,,,,,,,,,,,,,,,,,,,,,,,,,,,,,,,,391.4690686220001,399.7688086840003,,,,,,,,,,,,,,,,,,,,,,,,,,,,,,,,,,,,,,,,,,,,,,,,,,,,,,,,,,,,,,,,,,030722,1,3,1,2,1,1,2,0,56,2022_Mar_07_1323,listening_fmri,3.2.4,59.96611386857624,
2,parcelated_audio/32/32_18.ogg,,,,,,,,,0,0,0,0,0,2,2,2,0,0,0,0,,,,,,,,,0,0,0,0,0,17,17,17,,,,,,,,,,,,,,,,,,,,,,,,,,,,,,,,,,,,,,,,,,,,399.7691544410004,404.161314038,,,,,,,,,,,,,,,,,,,,,,,,,,,,,,,,,,,,,,,,,,,,,,,,,,,,,,,,,,,,,,,,,,030722,1,3,1,2,1,1,2,0,56,2022_Mar_07_1323,listening_fmri,3.2.4,59.96611386857624,
2,parcelated_audio/32/32_19.ogg,,,,,,,,,0,0,0,0,0,2,2,2,0,0,0,0,,,,,,,,,0,0,0,0,0,18,18,18,,,,,,,,,,,,,,,,,,,,,,,,,,,,,,,,,,,,,,,,,,,,404.16167602400037,412.2039735100002,,,,,,,,,,,,,,,,,,,,,,,,,,,,,,,,,,,,,,,,,,,,,,,,,,,,,,,,,,,,,,,,,,030722,1,3,1,2,1,1,2,0,56,2022_Mar_07_1323,listening_fmri,3.2.4,59.96611386857624,
2,parcelated_audio/32/32_20.ogg,,,,,,,,,0,0,0,0,0,2,2,2,0,0,0,0,,,,,,,,,0,0,0,0,0,19,19,19,,,,,,,,,,,,,,,,,,,,,,,,,,,,,,,,,,,,,,,,,,,,412.2043369160001,423.18785592300037,,,,,,,,,,,,,,,,,,,,,,,,,,,,,,,,,,,,,,,,,,,,,,,,,,,,,,,,,,,,,,,,,,030722,1,3,1,2,1,1,2,0,56,2022_Mar_07_1323,listening_fmri,3.2.4,59.96611386857624,
2,parcelated_audio/32/32_21.ogg,,,,,,,,,0,0,0,0,0,2,2,2,0,0,0,0,,,,,,,,,0,0,0,0,0,20,20,20,,,,,,,,,,,,,,,,,,,,,,,,,,,,,,,,,,,,,,,,,,,,423.18820723199997,432.04917269600037,,,,,,,,,,,,,,,,,,,,,,,,,,,,,,,,,,,,,,,,,,,,,,,,,,,,,,,,,,,,,,,,,,030722,1,3,1,2,1,1,2,0,56,2022_Mar_07_1323,listening_fmri,3.2.4,59.96611386857624,
2,parcelated_audio/32/32_22.ogg,,,,,,,,,0,0,0,0,0,2,2,2,0,0,0,0,,,,,,,,,0,0,0,0,0,21,21,21,,,,,,,,,,,,,,,,,,,,,,,,,,,,,,,,,,,,,,,,,,,,432.0495242070001,446.0862013010001,,,,,,,,,,,,,,,,,,,,,,,,,,,,,,,,,,,,,,,,,,,,,,,,,,,,,,,,,,,,,,,,,,030722,1,3,1,2,1,1,2,0,56,2022_Mar_07_1323,listening_fmri,3.2.4,59.96611386857624,
2,parcelated_audio/32/32_23.ogg,,,,,,,,,0,0,0,0,0,2,2,2,0,0,0,0,,,,,,,,,0,0,0,0,0,22,22,22,,,,,,,,,,,,,,,,,,,,,,,,,,,,,,,,,,,,,,,,,,,,446.0865524000001,455.12083674800033,,,,,,,,,,,,,,,,,,,,,,,,,,,,,,,,,,,,,,,,,,,,,,,,,,,,,,,,,,,,,,,,,,030722,1,3,1,2,1,1,2,0,56,2022_Mar_07_1323,listening_fmri,3.2.4,59.96611386857624,
2,parcelated_audio/32/32_24.ogg,,,,,,,,,0,0,0,0,0,2,2,2,0,0,0,0,,,,,,,,,0,0,0,0,0,23,23,23,,,,,,,,,,,,,,,,,,,,,,,,,,,,,,,,,,,,,,,,,,,,455.1211850100003,466.41285240000025,,,,,,,,,,,,,,,,,,,,,,,,,,,,,,,,,,,,,,,,,,,,,,,,,,,,,,,,,,,,,,,,,,030722,1,3,1,2,1,1,2,0,56,2022_Mar_07_1323,listening_fmri,3.2.4,59.96611386857624,
2,parcelated_audio/32/32_25.ogg,,,,,,,,,0,0,0,0,0,2,2,2,0,0,0,0,,,,,,,,,0,0,0,0,0,24,24,24,,,,,,,,,,,,,,,,,,,,,,,,,,,,,,,,,,,,,,,,,,,,466.41320052300034,472.48193874100025,,,,,,,,,,,,,,,,,,,,,,,,,,,,,,,,,,,,,,,,,,,,,,,,,,,,,,,,,,,,,,,,,,030722,1,3,1,2,1,1,2,0,56,2022_Mar_07_1323,listening_fmri,3.2.4,59.96611386857624,
2,parcelated_audio/32/32_26.ogg,,,,,,,,,0,0,0,0,0,2,2,2,0,0,0,0,,,,,,,,,0,0,0,0,0,25,25,25,,,,,,,,,,,,,,,,,,,,,,,,,,,,,,,,,,,,,,,,,,,,472.4823495540004,485.8373422290001,,,,,,,,,,,,,,,,,,,,,,,,,,,,,,,,,,,,,,,,,,,,,,,,,,,,,,,,,,,,,,,,,,030722,1,3,1,2,1,1,2,0,56,2022_Mar_07_1323,listening_fmri,3.2.4,59.96611386857624,
2,parcelated_audio/32/32_27.ogg,,,,,,,,,0,0,0,0,0,2,2,2,0,0,0,0,,,,,,,,,0,0,0,0,0,26,26,26,,,,,,,,,,,,,,,,,,,,,,,,,,,,,,,,,,,,,,,,,,,,485.8376259710003,492.80132237900034,,,,,,,,,,,,,,,,,,,,,,,,,,,,,,,,,,,,,,,,,,,,,,,,,,,,,,,,,,,,,,,,,,030722,1,3,1,2,1,1,2,0,56,2022_Mar_07_1323,listening_fmri,3.2.4,59.96611386857624,
2,parcelated_audio/32/32_28.ogg,,,,,,,,,0,0,0,0,0,2,2,2,0,0,0,0,,,,,,,,,0,0,0,0,0,27,27,27,,,,,,,,,,,,,,,,,,,,,,,,,,,,,,,,,,,,,,,,,,,,492.8016866720004,499.4998396120004,,,,,,,,,,,,,,,,,,,,,,,,,,,,,,,,,,,,,,,,,,,,,,,,,,,,,,,,,,,,,,,,,,030722,1,3,1,2,1,1,2,0,56,2022_Mar_07_1323,listening_fmri,3.2.4,59.96611386857624,
2,parcelated_audio/32/32_29.ogg,,,,,,,,,0,0,0,0,0,2,2,2,0,0,0,0,,,,,,,,,0,0,0,0,0,28,28,28,,,,,,,,,,,,,,,,,,,,,,,,,,,,,,,,,,,,,,,,,,,,499.5001925610004,502.15390586700005,,,,,,,,,,,,,,,,,,,,,,,,,,,,,,,,,,,,,,,,,,,,,,,,,,,,,,,,,,,,,,,,,,030722,1,3,1,2,1,1,2,0,56,2022_Mar_07_1323,listening_fmri,3.2.4,59.96611386857624,
2,parcelated_audio/32/32_30.ogg,,,,,,,,,0,0,0,0,0,2,2,2,0,0,0,0,,,,,,,,,0,0,0,0,0,29,29,29,,,,,,,,,,,,,,,,,,,,,,,,,,,,,,,,,,,,,,,,,,,,502.15442088200007,509.1865659480004,,,,,,,,,,,,,,,,,,,,,,,,,,,,,,,,,,,,,,,,,,,,,,,,,,,,,,,,,,,,,,,,,,030722,1,3,1,2,1,1,2,0,56,2022_Mar_07_1323,listening_fmri,3.2.4,59.96611386857624,
2,parcelated_audio/32/32_31.ogg,,,,,,,,,0,0,0,0,0,2,2,2,0,0,0,0,,,,,,,,,0,0,0,0,0,30,30,30,,,,,,,,,,,,,,,,,,,,,,,,,,,,,,,,,,,,,,,,,,,,509.18734482000036,515.5196833280002,,,,,,,,,,,,,,,,,,,,,,,,,,,,,,,,,,,,,,,,,,,,,,,,,,,,,,,,,,,,,,,,,,030722,1,3,1,2,1,1,2,0,56,2022_Mar_07_1323,listening_fmri,3.2.4,59.96611386857624,
2,parcelated_audio/32/32_32.ogg,,,,,,,,,0,0,0,0,0,2,2,2,0,0,0,0,,,,,,,,,0,0,0,0,0,31,31,31,,,,,,,,,,,,,,,,,,,,,,,,,,,,,,,,,,,,,,,,,,,,515.5200353620003,525.2333822750002,,,,,,,,,,,,,,,,,,,,,,,,,,,,,,,,,,,,,,,,,,,,,,,,,,,,,,,,,,,,,,,,,,030722,1,3,1,2,1,1,2,0,56,2022_Mar_07_1323,listening_fmri,3.2.4,59.96611386857624,
2,parcelated_audio/32/32_33.ogg,,,,,,,,,0,0,0,0,0,2,2,2,0,0,0,0,,,,,,,,,0,0,0,0,0,32,32,32,,,,,,,,,,,,,,,,,,,,,,,,,,,,,,,,,,,,,,,,,,,,525.2338716420004,530.9875583450003,,,,,,,,,,,,,,,,,,,,,,,,,,,,,,,,,,,,,,,,,,,,,,,,,,,,,,,,,,,,,,,,,,030722,1,3,1,2,1,1,2,0,56,2022_Mar_07_1323,listening_fmri,3.2.4,59.96611386857624,
2,,,,,,,,,,0,0,0,0,0,2,2,2,0,0,0,0,,,,,,,,,0,0,0,0,,,,,,,,,,,,,,,,,,,,,,,,,,,,,,,,,,,,,,,,,,,,,,,,,,,,,,,,,,,,,,,,,,,,,,,,,,,,,,,,,,,,,,,,,,,,,,,,,,,,,,,,,,,,,,,,,,,030722,1,3,1,2,1,1,2,0,56,2022_Mar_07_1323,listening_fmri,3.2.4,59.96611386857624,
,,,,,,,,,,,,,,,,,,,,,,,,,,,,,,,,,,,,,,,,,,,,,,,,,,,,,,,,,,,530.9880568790004,536.9832508320001,603.7113240639997,None,,,,,,,,,,,,,,,,,,,,,609.7135064679997,None,609.7135064679997,None,,,,,,,,,,,,,,,,,,,,,,,,,,,,,,,,,,,,,,,,,,,,,,,,,,,,,,,,,,,,,,,,,,,,,,,,,,,,
﻿count,audio,trials_14.thisRepN,trials_14.thisTrialN,trials_14.thisN,trials_14.thisIndex,trials_3.thisRepN,trials_3.thisTrialN,trials_3.thisN,trials_3.thisIndex,trials_4.thisRepN,trials_4.thisTrialN,trials_4.thisN,trials_4.thisIndex,trials_6.thisRepN,trials_6.thisTrialN,trials_6.thisN,trials_6.thisIndex,trials_9.thisRepN,trials_9.thisTrialN,trials_9.thisN,trials_9.thisIndex,trials_10.thisRepN,trials_10.thisTrialN,trials_10.thisN,trials_10.thisIndex,trials_12.thisRepN,trials_12.thisTrialN,trials_12.thisN,trials_12.thisIndex,trials_25.thisRepN,trials_25.thisTrialN,trials_25.thisN,trials_25.thisIndex,trials_15.thisRepN,trials_15.thisTrialN,trials_15.thisN,trials_15.thisIndex,trials_26.thisRepN,trials_26.thisTrialN,trials_26.thisN,trials_26.thisIndex,trials_11.thisRepN,trials_11.thisTrialN,trials_11.thisN,trials_11.thisIndex,story_list_block2,action_list_block2,textTrigger.started,textTrigger.stopped,getTrigger.keys,getTrigger.rt,getTrigger.started,getTrigger.stopped,triggerTime,text_76.started,text_76.stopped,text_77.started,text_77.stopped,startWait,endWait,image_23.started,image_23.stopped,text_55.started,text_55.stopped,text_56.started,text_56.stopped,key_resp_2.keys,key_resp_2.rt,key_resp_2.started,key_resp_2.stopped,text_82.started,text_82.stopped,text_64.started,text_64.stopped,key_resp_20.keys,key_resp_20.rt,key_resp_20.started,key_resp_20.stopped,storyImage_StartTime,storyImage_EndTime,clip_StartTime,clip_EndTime,text_67.started,text_67.stopped,text_68.started,text_68.stopped,text_57.started,text_57.stopped,key_resp_17.keys,key_resp_17.rt,key_resp_17.started,key_resp_17.stopped,text_83.started,text_83.stopped,text_60.started,text_60.stopped,image_2.started,image_2.stopped,text_58.started,text_58.stopped,key_resp_23.keys,key_resp_23.rt,key_resp_23.started,key_resp_23.stopped,text_62.started,text_62.stopped,key_resp_18.keys,key_resp_18.rt,key_resp_18.started,key_resp_18.stopped,text_84.started,text_84.stopped,question1_2.started,question1_2.stopped,question2_2.started,question2_2.stopped,question3_2.started,question3_2.stopped,question4_2.started,question4_2.stopped,question5_2.started,question5_2.stopped,question6_2.started,question6_2.stopped,image_15.started,image_15.stopped,key_resp.keys,key_resp.started,key_resp.stopped,text_59.started,text_59.stopped,key_resp_19.keys,key_resp_19.rt,key_resp_19.started,key_resp_19.stopped,text_85.started,text_85.stopped,text_61.started,text_61.stopped,image_17.started,image_17.stopped,text_63.started,text_63.stopped,key_resp_24.keys,key_resp_24.rt,key_resp_24.started,key_resp_24.stopped,participant,sA,sB,lA,lB,block_struct,play_stories,block,behavioral,random_seed,date,expName,psychopyVersion,frameRate,
0,parcelated_audio/14/14_1.ogg,,,,,,,,,0,0,0,0,0,0,0,0,0,0,0,0,,,,,,,,,0,0,0,0,0,0,0,0,,,,,,,,,[14 23 32 21 12 34 41 43],[4 3 2 1 2 4 1 3],25.077742103999753,None,equal,47.622918906999985,25.077742103999753,None,47.64616687099988,25.077742103999753,None,25.077742103999753,None,0.000342006000209949,5.999234206999972,72.72872031799989,None,78.7334800499998,None,78.7334800499998,None,1,1.0681744569997136,78.7334800499998,None,78.7334800499998,None,79.83403703399972,None,1,1.2126201199998832,79.83403703399972,None,8.3570543120004,11.365646646000187,11.37096986000006,18.250588836000134,,,,,,,,,,,,,,,,,,,,,,,,,,,,,,,,,,,,,,,,,,,,,,,,,,,,,,,,,,,,,,,,,,030722,1,3,1,2,1,1,2,0,56,2022_Mar_07_1323,listening_fmri,3.2.4,59.96611386857624,
0,parcelated_audio/14/14_2.ogg,,,,,,,,,0,0,0,0,0,0,0,0,0,0,0,0,,,,,,,,,0,0,0,0,0,1,1,1,,,,,,,,,,,,,,,,,,,,,,,,,,,,,,,,,,,,,,,,,,,,18.251035511000282,24.79463995900005,,,,,,,,,,,,,,,,,,,,,,,,,,,,,,,,,,,,,,,,,,,,,,,,,,,,,,,,,,,,,,,,,,030722,1,3,1,2,1,1,2,0,56,2022_Mar_07_1323,listening_fmri,3.2.4,59.96611386857624,
0,parcelated_audio/14/14_3.ogg,,,,,,,,,0,0,0,0,0,0,0,0,0,0,0,0,,,,,,,,,0,0,0,0,0,2,2,2,,,,,,,,,,,,,,,,,,,,,,,,,,,,,,,,,,,,,,,,,,,,24.79594238000027,28.505055107000317,,,,,,,,,,,,,,,,,,,,,,,,,,,,,,,,,,,,,,,,,,,,,,,,,,,,,,,,,,,,,,,,,,030722,1,3,1,2,1,1,2,0,56,2022_Mar_07_1323,listening_fmri,3.2.4,59.96611386857624,
0,parcelated_audio/14/14_4.ogg,,,,,,,,,0,0,0,0,0,0,0,0,0,0,0,0,,,,,,,,,0,0,0,0,0,3,3,3,,,,,,,,,,,,,,,,,,,,,,,,,,,,,,,,,,,,,,,,,,,,28.505404715000168,36.455934309999975,,,,,,,,,,,,,,,,,,,,,,,,,,,,,,,,,,,,,,,,,,,,,,,,,,,,,,,,,,,,,,,,,,030722,1,3,1,2,1,1,2,0,56,2022_Mar_07_1323,listening_fmri,3.2.4,59.96611386857624,
0,parcelated_audio/14/14_5.ogg,,,,,,,,,0,0,0,0,0,0,0,0,0,0,0,0,,,,,,,,,0,0,0,0,0,4,4,4,,,,,,,,,,,,,,,,,,,,,,,,,,,,,,,,,,,,,,,,,,,,36.45627982900032,41.3184307180004,,,,,,,,,,,,,,,,,,,,,,,,,,,,,,,,,,,,,,,,,,,,,,,,,,,,,,,,,,,,,,,,,,030722,1,3,1,2,1,1,2,0,56,2022_Mar_07_1323,listening_fmri,3.2.4,59.96611386857624,
0,parcelated_audio/14/14_6.ogg,,,,,,,,,0,0,0,0,0,0,0,0,0,0,0,0,,,,,,,,,0,0,0,0,0,5,5,5,,,,,,,,,,,,,,,,,,,,,,,,,,,,,,,,,,,,,,,,,,,,41.319014272000004,47.185234760000185,,,,,,,,,,,,,,,,,,,,,,,,,,,,,,,,,,,,,,,,,,,,,,,,,,,,,,,,,,,,,,,,,,030722,1,3,1,2,1,1,2,0,56,2022_Mar_07_1323,listening_fmri,3.2.4,59.96611386857624,
0,parcelated_audio/14/14_7.ogg,,,,,,,,,0,0,0,0,0,0,0,0,0,0,0,0,,,,,,,,,0,0,0,0,0,6,6,6,,,,,,,,,,,,,,,,,,,,,,,,,,,,,,,,,,,,,,,,,,,,47.1855992400001,56.83587451700032,,,,,,,,,,,,,,,,,,,,,,,,,,,,,,,,,,,,,,,,,,,,,,,,,,,,,,,,,,,,,,,,,,030722,1,3,1,2,1,1,2,0,56,2022_Mar_07_1323,listening_fmri,3.2.4,59.96611386857624,
0,parcelated_audio/14/14_8.ogg,,,,,,,,,0,0,0,0,0,0,0,0,0,0,0,0,,,,,,,,,0,0,0,0,0,7,7,7,,,,,,,,,,,,,,,,,,,,,,,,,,,,,,,,,,,,,,,,,,,,56.836225944000034,62.04926938300014,,,,,,,,,,,,,,,,,,,,,,,,,,,,,,,,,,,,,,,,,,,,,,,,,,,,,,,,,,,,,,,,,,030722,1,3,1,2,1,1,2,0,56,2022_Mar_07_1323,listening_fmri,3.2.4,59.96611386857624,
0,parcelated_audio/14/14_9.ogg,,,,,,,,,0,0,0,0,0,0,0,0,0,0,0,0,,,,,,,,,0,0,0,0,0,8,8,8,,,,,,,,,,,,,,,,,,,,,,,,,,,,,,,,,,,,,,,,,,,,62.04962028400041,65.80208340000036,,,,,,,,,,,,,,,,,,,,,,,,,,,,,,,,,,,,,,,,,,,,,,,,,,,,,,,,,,,,,,,,,,030722,1,3,1,2,1,1,2,0,56,2022_Mar_07_1323,listening_fmri,3.2.4,59.96611386857624,
0,parcelated_audio/14/14_10.ogg,,,,,,,,,0,0,0,0,0,0,0,0,0,0,0,0,,,,,,,,,0,0,0,0,0,9,9,9,,,,,,,,,,,,,,,,,,,,,,,,,,,,,,,,,,,,,,,,,,,,65.80243020200032,77.06485533100022,,,,,,,,,,,,,,,,,,,,,,,,,,,,,,,,,,,,,,,,,,,,,,,,,,,,,,,,,,,,,,,,,,030722,1,3,1,2,1,1,2,0,56,2022_Mar_07_1323,listening_fmri,3.2.4,59.96611386857624,
0,parcelated_audio/14/14_11.ogg,,,,,,,,,0,0,0,0,0,0,0,0,0,0,0,0,,,,,,,,,0,0,0,0,0,10,10,10,,,,,,,,,,,,,,,,,,,,,,,,,,,,,,,,,,,,,,,,,,,,77.06520663000038,84.26980811200019,,,,,,,,,,,,,,,,,,,,,,,,,,,,,,,,,,,,,,,,,,,,,,,,,,,,,,,,,,,,,,,,,,030722,1,3,1,2,1,1,2,0,56,2022_Mar_07_1323,listening_fmri,3.2.4,59.96611386857624,
0,parcelated_audio/14/14_12.ogg,,,,,,,,,0,0,0,0,0,0,0,0,0,0,0,0,,,,,,,,,0,0,0,0,0,11,11,11,,,,,,,,,,,,,,,,,,,,,,,,,,,,,,,,,,,,,,,,,,,,84.27039676599998,92.28645065800038,,,,,,,,,,,,,,,,,,,,,,,,,,,,,,,,,,,,,,,,,,,,,,,,,,,,,,,,,,,,,,,,,,030722,1,3,1,2,1,1,2,0,56,2022_Mar_07_1323,listening_fmri,3.2.4,59.96611386857624,
0,parcelated_audio/14/14_13.ogg,,,,,,,,,0,0,0,0,0,0,0,0,0,0,0,0,,,,,,,,,0,0,0,0,0,12,12,12,,,,,,,,,,,,,,,,,,,,,,,,,,,,,,,,,,,,,,,,,,,,92.2870536710002,98.39778705500021,,,,,,,,,,,,,,,,,,,,,,,,,,,,,,,,,,,,,,,,,,,,,,,,,,,,,,,,,,,,,,,,,,030722,1,3,1,2,1,1,2,0,56,2022_Mar_07_1323,listening_fmri,3.2.4,59.96611386857624,
0,parcelated_audio/14/14_14.ogg,,,,,,,,,0,0,0,0,0,0,0,0,0,0,0,0,,,,,,,,,0,0,0,0,0,13,13,13,,,,,,,,,,,,,,,,,,,,,,,,,,,,,,,,,,,,,,,,,,,,98.39814656500039,104.94930754200004,,,,,,,,,,,,,,,,,,,,,,,,,,,,,,,,,,,,,,,,,,,,,,,,,,,,,,,,,,,,,,,,,,030722,1,3,1,2,1,1,2,0,56,2022_Mar_07_1323,listening_fmri,3.2.4,59.96611386857624,
0,parcelated_audio/14/14_15.ogg,,,,,,,,,0,0,0,0,0,0,0,0,0,0,0,0,,,,,,,,,0,0,0,0,0,14,14,14,,,,,,,,,,,,,,,,,,,,,,,,,,,,,,,,,,,,,,,,,,,,104.94995597800016,112.063999298,,,,,,,,,,,,,,,,,,,,,,,,,,,,,,,,,,,,,,,,,,,,,,,,,,,,,,,,,,,,,,,,,,030722,1,3,1,2,1,1,2,0,56,2022_Mar_07_1323,listening_fmri,3.2.4,59.96611386857624,
0,parcelated_audio/14/14_16.ogg,,,,,,,,,0,0,0,0,0,0,0,0,0,0,0,0,,,,,,,,,0,0,0,0,0,15,15,15,,,,,,,,,,,,,,,,,,,,,,,,,,,,,,,,,,,,,,,,,,,,112.06459282200012,117.48597880000034,,,,,,,,,,,,,,,,,,,,,,,,,,,,,,,,,,,,,,,,,,,,,,,,,,,,,,,,,,,,,,,,,,030722,1,3,1,2,1,1,2,0,56,2022_Mar_07_1323,listening_fmri,3.2.4,59.96611386857624,
0,parcelated_audio/14/14_17.ogg,,,,,,,,,0,0,0,0,0,0,0,0,0,0,0,0,,,,,,,,,0,0,0,0,0,16,16,16,,,,,,,,,,,,,,,,,,,,,,,,,,,,,,,,,,,,,,,,,,,,117.48633762899999,127.18586251600027,,,,,,,,,,,,,,,,,,,,,,,,,,,,,,,,,,,,,,,,,,,,,,,,,,,,,,,,,,,,,,,,,,030722,1,3,1,2,1,1,2,0,56,2022_Mar_07_1323,listening_fmri,3.2.4,59.96611386857624,
0,parcelated_audio/14/14_18.ogg,,,,,,,,,0,0,0,0,0,0,0,0,0,0,0,0,,,,,,,,,0,0,0,0,0,17,17,17,,,,,,,,,,,,,,,,,,,,,,,,,,,,,,,,,,,,,,,,,,,,127.18613636500004,134.77276366800015,,,,,,,,,,,,,,,,,,,,,,,,,,,,,,,,,,,,,,,,,,,,,,,,,,,,,,,,,,,,,,,,,,030722,1,3,1,2,1,1,2,0,56,2022_Mar_07_1323,listening_fmri,3.2.4,59.96611386857624,
0,parcelated_audio/14/14_19.ogg,,,,,,,,,0,0,0,0,0,0,0,0,0,0,0,0,,,,,,,,,0,0,0,0,0,18,18,18,,,,,,,,,,,,,,,,,,,,,,,,,,,,,,,,,,,,,,,,,,,,134.77385961000027,137.63871836600038,,,,,,,,,,,,,,,,,,,,,,,,,,,,,,,,,,,,,,,,,,,,,,,,,,,,,,,,,,,,,,,,,,030722,1,3,1,2,1,1,2,0,56,2022_Mar_07_1323,listening_fmri,3.2.4,59.96611386857624,
0,parcelated_audio/14/14_20.ogg,,,,,,,,,0,0,0,0,0,0,0,0,0,0,0,0,,,,,,,,,0,0,0,0,0,19,19,19,,,,,,,,,,,,,,,,,,,,,,,,,,,,,,,,,,,,,,,,,,,,137.63927096600037,139.79277270400007,,,,,,,,,,,,,,,,,,,,,,,,,,,,,,,,,,,,,,,,,,,,,,,,,,,,,,,,,,,,,,,,,,030722,1,3,1,2,1,1,2,0,56,2022_Mar_07_1323,listening_fmri,3.2.4,59.96611386857624,
0,parcelated_audio/14/14_21.ogg,,,,,,,,,0,0,0,0,0,0,0,0,0,0,0,0,,,,,,,,,0,0,0,0,0,20,20,20,,,,,,,,,,,,,,,,,,,,,,,,,,,,,,,,,,,,,,,,,,,,139.79337232200032,149.37085430800016,,,,,,,,,,,,,,,,,,,,,,,,,,,,,,,,,,,,,,,,,,,,,,,,,,,,,,,,,,,,,,,,,,030722,1,3,1,2,1,1,2,0,56,2022_Mar_07_1323,listening_fmri,3.2.4,59.96611386857624,
0,parcelated_audio/14/14_22.ogg,,,,,,,,,0,0,0,0,0,0,0,0,0,0,0,0,,,,,,,,,0,0,0,0,0,21,21,21,,,,,,,,,,,,,,,,,,,,,,,,,,,,,,,,,,,,,,,,,,,,149.3712108310001,155.71079277800027,,,,,,,,,,,,,,,,,,,,,,,,,,,,,,,,,,,,,,,,,,,,,,,,,,,,,,,,,,,,,,,,,,030722,1,3,1,2,1,1,2,0,56,2022_Mar_07_1323,listening_fmri,3.2.4,59.96611386857624,
0,parcelated_audio/14/14_23.ogg,,,,,,,,,0,0,0,0,0,0,0,0,0,0,0,0,,,,,,,,,0,0,0,0,0,22,22,22,,,,,,,,,,,,,,,,,,,,,,,,,,,,,,,,,,,,,,,,,,,,155.71126675300002,160.77879859300037,,,,,,,,,,,,,,,,,,,,,,,,,,,,,,,,,,,,,,,,,,,,,,,,,,,,,,,,,,,,,,,,,,030722,1,3,1,2,1,1,2,0,56,2022_Mar_07_1323,listening_fmri,3.2.4,59.96611386857624,
0,parcelated_audio/14/14_24.ogg,,,,,,,,,0,0,0,0,0,0,0,0,0,0,0,0,,,,,,,,,0,0,0,0,0,23,23,23,,,,,,,,,,,,,,,,,,,,,,,,,,,,,,,,,,,,,,,,,,,,160.7793983190004,171.68984918000024,,,,,,,,,,,,,,,,,,,,,,,,,,,,,,,,,,,,,,,,,,,,,,,,,,,,,,,,,,,,,,,,,,030722,1,3,1,2,1,1,2,0,56,2022_Mar_07_1323,listening_fmri,3.2.4,59.96611386857624,
0,parcelated_audio/14/14_25.ogg,,,,,,,,,0,0,0,0,0,0,0,0,0,0,0,0,,,,,,,,,0,0,0,0,0,24,24,24,,,,,,,,,,,,,,,,,,,,,,,,,,,,,,,,,,,,,,,,,,,,171.69011869800033,178.33433248500023,,,,,,,,,,,,,,,,,,,,,,,,,,,,,,,,,,,,,,,,,,,,,,,,,,,,,,,,,,,,,,,,,,030722,1,3,1,2,1,1,2,0,56,2022_Mar_07_1323,listening_fmri,3.2.4,59.96611386857624,
0,parcelated_audio/14/14_26.ogg,,,,,,,,,0,0,0,0,0,0,0,0,0,0,0,0,,,,,,,,,0,0,0,0,0,25,25,25,,,,,,,,,,,,,,,,,,,,,,,,,,,,,,,,,,,,,,,,,,,,178.33490471200003,180.51484664999998,,,,,,,,,,,,,,,,,,,,,,,,,,,,,,,,,,,,,,,,,,,,,,,,,,,,,,,,,,,,,,,,,,030722,1,3,1,2,1,1,2,0,56,2022_Mar_07_1323,listening_fmri,3.2.4,59.96611386857624,
0,parcelated_audio/14/14_27.ogg,,,,,,,,,0,0,0,0,0,0,0,0,0,0,0,0,,,,,,,,,0,0,0,0,0,26,26,26,,,,,,,,,,,,,,,,,,,,,,,,,,,,,,,,,,,,,,,,,,,,180.5151943660003,186.537844598,,,,,,,,,,,,,,,,,,,,,,,,,,,,,,,,,,,,,,,,,,,,,,,,,,,,,,,,,,,,,,,,,,030722,1,3,1,2,1,1,2,0,56,2022_Mar_07_1323,listening_fmri,3.2.4,59.96611386857624,
0,parcelated_audio/14/14_28.ogg,,,,,,,,,0,0,0,0,0,0,0,0,0,0,0,0,,,,,,,,,0,0,0,0,0,27,27,27,,,,,,,,,,,,,,,,,,,,,,,,,,,,,,,,,,,,,,,,,,,,186.5383552510002,189.51581657800034,,,,,,,,,,,,,,,,,,,,,,,,,,,,,,,,,,,,,,,,,,,,,,,,,,,,,,,,,,,,,,,,,,030722,1,3,1,2,1,1,2,0,56,2022_Mar_07_1323,listening_fmri,3.2.4,59.96611386857624,
0,parcelated_audio/14/14_29.ogg,,,,,,,,,0,0,0,0,0,0,0,0,0,0,0,0,,,,,,,,,0,0,0,0,0,28,28,28,,,,,,,,,,,,,,,,,,,,,,,,,,,,,,,,,,,,,,,,,,,,189.516416553,191.88274425999998,,,,,,,,,,,,,,,,,,,,,,,,,,,,,,,,,,,,,,,,,,,,,,,,,,,,,,,,,,,,,,,,,,030722,1,3,1,2,1,1,2,0,56,2022_Mar_07_1323,listening_fmri,3.2.4,59.96611386857624,
0,parcelated_audio/14/14_30.ogg,,,,,,,,,0,0,0,0,0,0,0,0,0,0,0,0,,,,,,,,,0,0,0,0,0,29,29,29,,,,,,,,,,,,,,,,,,,,,,,,,,,,,,,,,,,,,,,,,,,,191.88310518100025,196.14084543000035,,,,,,,,,,,,,,,,,,,,,,,,,,,,,,,,,,,,,,,,,,,,,,,,,,,,,,,,,,,,,,,,,,030722,1,3,1,2,1,1,2,0,56,2022_Mar_07_1323,listening_fmri,3.2.4,59.96611386857624,
0,parcelated_audio/14/14_31.ogg,,,,,,,,,0,0,0,0,0,0,0,0,0,0,0,0,,,,,,,,,0,0,0,0,0,30,30,30,,,,,,,,,,,,,,,,,,,,,,,,,,,,,,,,,,,,,,,,,,,,196.14133395800036,203.42279904700035,,,,,,,,,,,,,,,,,,,,,,,,,,,,,,,,,,,,,,,,,,,,,,,,,,,,,,,,,,,,,,,,,,030722,1,3,1,2,1,1,2,0,56,2022_Mar_07_1323,listening_fmri,3.2.4,59.96611386857624,
0,parcelated_audio/14/14_32.ogg,,,,,,,,,0,0,0,0,0,0,0,0,0,0,0,0,,,,,,,,,0,0,0,0,0,31,31,31,,,,,,,,,,,,,,,,,,,,,,,,,,,,,,,,,,,,,,,,,,,,203.4231591570001,210.57364864600004,,,,,,,,,,,,,,,,,,,,,,,,,,,,,,,,,,,,,,,,,,,,,,,,,,,,,,,,,,,,,,,,,,030722,1,3,1,2,1,1,2,0,56,2022_Mar_07_1323,listening_fmri,3.2.4,59.96611386857624,
0,parcelated_audio/14/14_33.ogg,,,,,,,,,0,0,0,0,0,0,0,0,0,0,0,0,,,,,,,,,0,0,0,0,0,32,32,32,,,,,,,,,,,,,,,,,,,,,,,,,,,,,,,,,,,,,,,,,,,,210.5742671930002,217.13473322300024,,,,,,,,,,,,,,,,,,,,,,,,,,,,,,,,,,,,,,,,,,,,,,,,,,,,,,,,,,,,,,,,,,030722,1,3,1,2,1,1,2,0,56,2022_Mar_07_1323,listening_fmri,3.2.4,59.96611386857624,
0,,,,,,,,,,0,0,0,0,0,0,0,0,0,0,0,0,,,,,,,,,0,0,0,0,,,,,,,,,,,,,,,,,,,,,,,,,,,,,,,,,,,,,,,,,,,,,,,,,,,,,,,,,,,,,,,,,,,,,,,,,,,,,,,,,,,,,,,,,,,,,,,,,,,,,,,,,,,,,,,,,,,030722,1,3,1,2,1,1,2,0,56,2022_Mar_07_1323,listening_fmri,3.2.4,59.96611386857624,
0,,,,,,,,,,0,0,0,0,0,0,0,0,0,0,0,0,,,,,,,,,,,,,,,,,,,,,,,,,,,,,,,,,,,,,,217.13529258200015,223.132334592,289.86178781599983,None,,,,,,,,,,,,,,,,,,,,,295.86209367799984,None,295.86209367799984,None,,,,,,,,,,,,,,,,,,,,,,,,,,,,,,,,,,,,,,,,,,,,,,,,,,,,,,,,,,,,,,030722,1,3,1,2,1,1,2,0,56,2022_Mar_07_1323,listening_fmri,3.2.4,59.96611386857624,
0,,,,,,,,,,0,0,0,0,0,0,0,0,,,,,,,,,,,,,,,,,,,,,,,,,,,,,,,,,,,,,,,,,,,,,,,,,,,,,,,,,,,,,,,,,,,,,,,,,,,,,,,,,,,,,,,,,,,,,,,,,,,,,,,,,,,,,,,,,,,,,,,,,,,,,,,,,,,030722,1,3,1,2,1,1,2,0,56,2022_Mar_07_1323,listening_fmri,3.2.4,59.96611386857624,
1,,,,,,,,,,0,0,0,0,0,1,1,1,,,,,,,,,,,,,,,,,,,,,,,,,,,,,,,,,,,,,,,,,,,,,,,,,,,,,,,,,,,,,,,,,,,,,,,,,,,,,,,,,,,,,,,,,,,,,,,,,,,,,,,,,,,,,,,,,,,,,,,,,,,,,,,,,,,030722,1,3,1,2,1,1,2,0,56,2022_Mar_07_1323,listening_fmri,3.2.4,59.96611386857624,
2,,,,,,,,,,0,0,0,0,0,2,2,2,0,0,0,0,0,0,0,0,,,,,,,,,,,,,,,,,0,0,0,0,,,,,,,,,,,,,,,,,,296.86167675399975,None,296.86167675399975,None,1,0.9998480630001723,296.86167675399975,None,296.86167675399975,None,,,,,,,,,,,,,,,297.879307834,None,1,1.524219973000072,297.879307834,None,297.879307834,None,299.4622947009998,None,299.4622947009998,None,299.4622947009998,None,1,3.4032526669998333,299.4622947009998,None,302.89498900399985,None,1,3.6086714389998633,302.89498900399985,None,302.89498900399985,None,306.6113147799997,None,306.6113147799997,None,306.6113147799997,None,306.6113147799997,None,306.6113147799997,None,306.6113147799997,None,306.6113147799997,None,None,306.6113147799997,None,,,,,,,,,,,,,,,,,,,030722,1,3,1,2,1,1,2,0,56,2022_Mar_07_1323,listening_fmri,3.2.4,59.96611386857624,
2,,,,,,,,,,0,0,0,0,0,2,2,2,0,0,0,0,0,0,0,0,,,,,,,,,,,,,,,,,1,0,1,0,,,,,,,,,,,,,,,,,,,,,,,,,,,,,,,,,,,,,,,,,,,,,,,,,,314.01213756499965,None,314.01213756499965,None,314.01213756499965,None,1,0.8694693649999863,314.01213756499965,None,314.9117801289999,None,1,0.5967550989998927,314.9117801289999,None,314.9117801289999,None,315.6120908329999,None,315.6120908329999,None,315.6120908329999,None,315.6120908329999,None,315.6120908329999,None,315.6120908329999,None,315.6120908329999,None,None,315.6120908329999,None,,,,,,,,,,,,,,,,,,,030722,1,3,1,2,1,1,2,0,56,2022_Mar_07_1323,listening_fmri,3.2.4,59.96611386857624,
2,,,,,,,,,,0,0,0,0,0,2,2,2,0,0,0,0,0,0,0,0,,,,,,,,,,,,,,,,,,,,,,,,,,,,,,,,,,,,,,,,,,,,,,,,,,,,,,,,,,,,,,,,,,,,,,,,,,,,,,,,,,,,,,,,,,,,,,,,,,,,,,,,,333.6622730269996,None,1,1.9142321030003586,333.6622730269996,None,333.6622730269996,None,335.63057598399973,None,335.63057598399973,None,335.63057598399973,None,1,3.1600745569999162,335.63057598399973,None,030722,1,3,1,2,1,1,2,0,56,2022_Mar_07_1323,listening_fmri,3.2.4,59.96611386857624,
2,parcelated_audio/32/32_1.ogg,,,,,,,,,0,0,0,0,0,2,2,2,0,0,0,0,,,,,,,,,0,0,0,0,0,0,0,0,,,,,,,,,,,,,,,,,,,,,,,,,,,,,,,,,,,,338.81241625699977,None,1,1.3222470460000295,338.81241625699977,None,267.46282068400023,270.46624242000007,270.47177209500023,281.8227438160002,,,,,,,,,,,,,,,,,,,,,,,,,,,,,,,,,,,,,,,,,,,,,,,,,,,,,,,,,,,,,,,,,,030722,1,3,1,2,1,1,2,0,56,2022_Mar_07_1323,listening_fmri,3.2.4,59.96611386857624,
2,parcelated_audio/32/32_2.ogg,,,,,,,,,0,0,0,0,0,2,2,2,0,0,0,0,,,,,,,,,0,0,0,0,0,1,1,1,,,,,,,,,,,,,,,,,,,,,,,,,,,,,,,,,,,,,,,,,,,,281.823195123,290.1367669690003,,,,,,,,,,,,,,,,,,,,,,,,,,,,,,,,,,,,,,,,,,,,,,,,,,,,,,,,,,,,,,,,,,030722,1,3,1,2,1,1,2,0,56,2022_Mar_07_1323,listening_fmri,3.2.4,59.96611386857624,
2,parcelated_audio/32/32_3.ogg,,,,,,,,,0,0,0,0,0,2,2,2,0,0,0,0,,,,,,,,,0,0,0,0,0,2,2,2,,,,,,,,,,,,,,,,,,,,,,,,,,,,,,,,,,,,,,,,,,,,290.1376631160001,295.71321491000026,,,,,,,,,,,,,,,,,,,,,,,,,,,,,,,,,,,,,,,,,,,,,,,,,,,,,,,,,,,,,,,,,,030722,1,3,1,2,1,1,2,0,56,2022_Mar_07_1323,listening_fmri,3.2.4,59.96611386857624,
2,parcelated_audio/32/32_4.ogg,,,,,,,,,0,0,0,0,0,2,2,2,0,0,0,0,,,,,,,,,0,0,0,0,0,3,3,3,,,,,,,,,,,,,,,,,,,,,,,,,,,,,,,,,,,,,,,,,,,,295.71375241700025,302.41171886200027,,,,,,,,,,,,,,,,,,,,,,,,,,,,,,,,,,,,,,,,,,,,,,,,,,,,,,,,,,,,,,,,,,030722,1,3,1,2,1,1,2,0,56,2022_Mar_07_1323,listening_fmri,3.2.4,59.96611386857624,
2,parcelated_audio/32/32_5.ogg,,,,,,,,,0,0,0,0,0,2,2,2,0,0,0,0,,,,,,,,,0,0,0,0,0,4,4,4,,,,,,,,,,,,,,,,,,,,,,,,,,,,,,,,,,,,,,,,,,,,302.412068655,314.0972575730002,,,,,,,,,,,,,,,,,,,,,,,,,,,,,,,,,,,,,,,,,,,,,,,,,,,,,,,,,,,,,,,,,,030722,1,3,1,2,1,1,2,0,56,2022_Mar_07_1323,listening_fmri,3.2.4,59.96611386857624,
2,parcelated_audio/32/32_6.ogg,,,,,,,,,0,0,0,0,0,2,2,2,0,0,0,0,,,,,,,,,0,0,0,0,0,5,5,5,,,,,,,,,,,,,,,,,,,,,,,,,,,,,,,,,,,,,,,,,,,,314.09761148100006,322.56791112500014,,,,,,,,,,,,,,,,,,,,,,,,,,,,,,,,,,,,,,,,,,,,,,,,,,,,,,,,,,,,,,,,,,030722,1,3,1,2,1,1,2,0,56,2022_Mar_07_1323,listening_fmri,3.2.4,59.96611386857624,
2,parcelated_audio/32/32_7.ogg,,,,,,,,,0,0,0,0,0,2,2,2,0,0,0,0,,,,,,,,,0,0,0,0,0,6,6,6,,,,,,,,,,,,,,,,,,,,,,,,,,,,,,,,,,,,,,,,,,,,322.56825953600037,325.94876241600014,,,,,,,,,,,,,,,,,,,,,,,,,,,,,,,,,,,,,,,,,,,,,,,,,,,,,,,,,,,,,,,,,,030722,1,3,1,2,1,1,2,0,56,2022_Mar_07_1323,listening_fmri,3.2.4,59.96611386857624,
2,parcelated_audio/32/32_8.ogg,,,,,,,,,0,0,0,0,0,2,2,2,0,0,0,0,,,,,,,,,0,0,0,0,0,7,7,7,,,,,,,,,,,,,,,,,,,,,,,,,,,,,,,,,,,,,,,,,,,,325.9491144670001,330.425226416,,,,,,,,,,,,,,,,,,,,,,,,,,,,,,,,,,,,,,,,,,,,,,,,,,,,,,,,,,,,,,,,,,030722,1,3,1,2,1,1,2,0,56,2022_Mar_07_1323,listening_fmri,3.2.4,59.96611386857624,
2,parcelated_audio/32/32_9.ogg,,,,,,,,,0,0,0,0,0,2,2,2,0,0,0,0,,,,,,,,,0,0,0,0,0,8,8,8,,,,,,,,,,,,,,,,,,,,,,,,,,,,,,,,,,,,,,,,,,,,330.42567825900005,339.10475095300035,,,,,,,,,,,,,,,,,,,,,,,,,,,,,,,,,,,,,,,,,,,,,,,,,,,,,,,,,,,,,,,,,,030722,1,3,1,2,1,1,2,0,56,2022_Mar_07_1323,listening_fmri,3.2.4,59.96611386857624,
2,parcelated_audio/32/32_10.ogg,,,,,,,,,0,0,0,0,0,2,2,2,0,0,0,0,,,,,,,,,0,0,0,0,0,9,9,9,,,,,,,,,,,,,,,,,,,,,,,,,,,,,,,,,,,,,,,,,,,,339.1053117800002,343.78377588700005,,,,,,,,,,,,,,,,,,,,,,,,,,,,,,,,,,,,,,,,,,,,,,,,,,,,,,,,,,,,,,,,,,030722,1,3,1,2,1,1,2,0,56,2022_Mar_07_1323,listening_fmri,3.2.4,59.96611386857624,
2,parcelated_audio/32/32_11.ogg,,,,,,,,,0,0,0,0,0,2,2,2,0,0,0,0,,,,,,,,,0,0,0,0,0,10,10,10,,,,,,,,,,,,,,,,,,,,,,,,,,,,,,,,,,,,,,,,,,,,343.7843639890002,349.8527283520002,,,,,,,,,,,,,,,,,,,,,,,,,,,,,,,,,,,,,,,,,,,,,,,,,,,,,,,,,,,,,,,,,,030722,1,3,1,2,1,1,2,0,56,2022_Mar_07_1323,listening_fmri,3.2.4,59.96611386857624,
2,parcelated_audio/32/32_12.ogg,,,,,,,,,0,0,0,0,0,2,2,2,0,0,0,0,,,,,,,,,0,0,0,0,0,11,11,11,,,,,,,,,,,,,,,,,,,,,,,,,,,,,,,,,,,,,,,,,,,,349.85612462200015,359.29623548100017,,,,,,,,,,,,,,,,,,,,,,,,,,,,,,,,,,,,,,,,,,,,,,,,,,,,,,,,,,,,,,,,,,030722,1,3,1,2,1,1,2,0,56,2022_Mar_07_1323,listening_fmri,3.2.4,59.96611386857624,
2,parcelated_audio/32/32_13.ogg,,,,,,,,,0,0,0,0,0,2,2,2,0,0,0,0,,,,,,,,,0,0,0,0,0,12,12,12,,,,,,,,,,,,,,,,,,,,,,,,,,,,,,,,,,,,,,,,,,,,359.29658671000016,368.90539134300025,,,,,,,,,,,,,,,,,,,,,,,,,,,,,,,,,,,,,,,,,,,,,,,,,,,,,,,,,,,,,,,,,,030722,1,3,1,2,1,1,2,0,56,2022_Mar_07_1323,listening_fmri,3.2.4,59.96611386857624,
2,parcelated_audio/32/32_14.ogg,,,,,,,,,0,0,0,0,0,2,2,2,0,0,0,0,,,,,,,,,0,0,0,0,0,13,13,13,,,,,,,,,,,,,,,,,,,,,,,,,,,,,,,,,,,,,,,,,,,,368.9058105510003,376.97071799000014,,,,,,,,,,,,,,,,,,,,,,,,,,,,,,,,,,,,,,,,,,,,,,,,,,,,,,,,,,,,,,,,,,030722,1,3,1,2,1,1,2,0,56,2022_Mar_07_1323,listening_fmri,3.2.4,59.96611386857624,
2,parcelated_audio/32/32_15.ogg,,,,,,,,,0,0,0,0,0,2,2,2,0,0,0,0,,,,,,,,,0,0,0,0,0,14,14,14,,,,,,,,,,,,,,,,,,,,,,,,,,,,,,,,,,,,,,,,,,,,376.971282127,383.8518012450004,,,,,,,,,,,,,,,,,,,,,,,,,,,,,,,,,,,,,,,,,,,,,,,,,,,,,,,,,,,,,,,,,,030722,1,3,1,2,1,1,2,0,56,2022_Mar_07_1323,listening_fmri,3.2.4,59.96611386857624,
2,parcelated_audio/32/32_16.ogg,,,,,,,,,0,0,0,0,0,2,2,2,0,0,0,0,,,,,,,,,0,0,0,0,0,15,15,15,,,,,,,,,,,,,,,,,,,,,,,,,,,,,,,,,,,,,,,,,,,,383.8521609090003,391.468711813,,,,,,,,,,,,,,,,,,,,,,,,,,,,,,,,,,,,,,,,,,,,,,,,,,,,,,,,,,,,,,,,,,030722,1,3,1,2,1,1,2,0,56,2022_Mar_07_1323,listening_fmri,3.2.4,59.96611386857624,
2,parcelated_audio/32/32_17.ogg,,,,,,,,,0,0,0,0,0,2,2,2,0,0,0,0,,,,,,,,,0,0,0,0,0,16,16,16,,,,,,,,,,,,,,,,,,,,,,,,,,,,,,,,,,,,,,,,,,,,391.4690686220001,399.7688086840003,,,,,,,,,,,,,,,,,,,,,,,,,,,,,,,,,,,,,,,,,,,,,,,,,,,,,,,,,,,,,,,,,,030722,1,3,1,2,1,1,2,0,56,2022_Mar_07_1323,listening_fmri,3.2.4,59.96611386857624,
2,parcelated_audio/32/32_18.ogg,,,,,,,,,0,0,0,0,0,2,2,2,0,0,0,0,,,,,,,,,0,0,0,0,0,17,17,17,,,,,,,,,,,,,,,,,,,,,,,,,,,,,,,,,,,,,,,,,,,,399.7691544410004,404.161314038,,,,,,,,,,,,,,,,,,,,,,,,,,,,,,,,,,,,,,,,,,,,,,,,,,,,,,,,,,,,,,,,,,030722,1,3,1,2,1,1,2,0,56,2022_Mar_07_1323,listening_fmri,3.2.4,59.96611386857624,
2,parcelated_audio/32/32_19.ogg,,,,,,,,,0,0,0,0,0,2,2,2,0,0,0,0,,,,,,,,,0,0,0,0,0,18,18,18,,,,,,,,,,,,,,,,,,,,,,,,,,,,,,,,,,,,,,,,,,,,404.16167602400037,412.2039735100002,,,,,,,,,,,,,,,,,,,,,,,,,,,,,,,,,,,,,,,,,,,,,,,,,,,,,,,,,,,,,,,,,,030722,1,3,1,2,1,1,2,0,56,2022_Mar_07_1323,listening_fmri,3.2.4,59.96611386857624,
2,parcelated_audio/32/32_20.ogg,,,,,,,,,0,0,0,0,0,2,2,2,0,0,0,0,,,,,,,,,0,0,0,0,0,19,19,19,,,,,,,,,,,,,,,,,,,,,,,,,,,,,,,,,,,,,,,,,,,,412.2043369160001,423.18785592300037,,,,,,,,,,,,,,,,,,,,,,,,,,,,,,,,,,,,,,,,,,,,,,,,,,,,,,,,,,,,,,,,,,030722,1,3,1,2,1,1,2,0,56,2022_Mar_07_1323,listening_fmri,3.2.4,59.96611386857624,
2,parcelated_audio/32/32_21.ogg,,,,,,,,,0,0,0,0,0,2,2,2,0,0,0,0,,,,,,,,,0,0,0,0,0,20,20,20,,,,,,,,,,,,,,,,,,,,,,,,,,,,,,,,,,,,,,,,,,,,423.18820723199997,432.04917269600037,,,,,,,,,,,,,,,,,,,,,,,,,,,,,,,,,,,,,,,,,,,,,,,,,,,,,,,,,,,,,,,,,,030722,1,3,1,2,1,1,2,0,56,2022_Mar_07_1323,listening_fmri,3.2.4,59.96611386857624,
2,parcelated_audio/32/32_22.ogg,,,,,,,,,0,0,0,0,0,2,2,2,0,0,0,0,,,,,,,,,0,0,0,0,0,21,21,21,,,,,,,,,,,,,,,,,,,,,,,,,,,,,,,,,,,,,,,,,,,,432.0495242070001,446.0862013010001,,,,,,,,,,,,,,,,,,,,,,,,,,,,,,,,,,,,,,,,,,,,,,,,,,,,,,,,,,,,,,,,,,030722,1,3,1,2,1,1,2,0,56,2022_Mar_07_1323,listening_fmri,3.2.4,59.96611386857624,
2,parcelated_audio/32/32_23.ogg,,,,,,,,,0,0,0,0,0,2,2,2,0,0,0,0,,,,,,,,,0,0,0,0,0,22,22,22,,,,,,,,,,,,,,,,,,,,,,,,,,,,,,,,,,,,,,,,,,,,446.0865524000001,455.12083674800033,,,,,,,,,,,,,,,,,,,,,,,,,,,,,,,,,,,,,,,,,,,,,,,,,,,,,,,,,,,,,,,,,,030722,1,3,1,2,1,1,2,0,56,2022_Mar_07_1323,listening_fmri,3.2.4,59.96611386857624,
2,parcelated_audio/32/32_24.ogg,,,,,,,,,0,0,0,0,0,2,2,2,0,0,0,0,,,,,,,,,0,0,0,0,0,23,23,23,,,,,,,,,,,,,,,,,,,,,,,,,,,,,,,,,,,,,,,,,,,,455.1211850100003,466.41285240000025,,,,,,,,,,,,,,,,,,,,,,,,,,,,,,,,,,,,,,,,,,,,,,,,,,,,,,,,,,,,,,,,,,030722,1,3,1,2,1,1,2,0,56,2022_Mar_07_1323,listening_fmri,3.2.4,59.96611386857624,
2,parcelated_audio/32/32_25.ogg,,,,,,,,,0,0,0,0,0,2,2,2,0,0,0,0,,,,,,,,,0,0,0,0,0,24,24,24,,,,,,,,,,,,,,,,,,,,,,,,,,,,,,,,,,,,,,,,,,,,466.41320052300034,472.48193874100025,,,,,,,,,,,,,,,,,,,,,,,,,,,,,,,,,,,,,,,,,,,,,,,,,,,,,,,,,,,,,,,,,,030722,1,3,1,2,1,1,2,0,56,2022_Mar_07_1323,listening_fmri,3.2.4,59.96611386857624,
2,parcelated_audio/32/32_26.ogg,,,,,,,,,0,0,0,0,0,2,2,2,0,0,0,0,,,,,,,,,0,0,0,0,0,25,25,25,,,,,,,,,,,,,,,,,,,,,,,,,,,,,,,,,,,,,,,,,,,,472.4823495540004,485.8373422290001,,,,,,,,,,,,,,,,,,,,,,,,,,,,,,,,,,,,,,,,,,,,,,,,,,,,,,,,,,,,,,,,,,030722,1,3,1,2,1,1,2,0,56,2022_Mar_07_1323,listening_fmri,3.2.4,59.96611386857624,
2,parcelated_audio/32/32_27.ogg,,,,,,,,,0,0,0,0,0,2,2,2,0,0,0,0,,,,,,,,,0,0,0,0,0,26,26,26,,,,,,,,,,,,,,,,,,,,,,,,,,,,,,,,,,,,,,,,,,,,485.8376259710003,492.80132237900034,,,,,,,,,,,,,,,,,,,,,,,,,,,,,,,,,,,,,,,,,,,,,,,,,,,,,,,,,,,,,,,,,,030722,1,3,1,2,1,1,2,0,56,2022_Mar_07_1323,listening_fmri,3.2.4,59.96611386857624,
2,parcelated_audio/32/32_28.ogg,,,,,,,,,0,0,0,0,0,2,2,2,0,0,0,0,,,,,,,,,0,0,0,0,0,27,27,27,,,,,,,,,,,,,,,,,,,,,,,,,,,,,,,,,,,,,,,,,,,,492.8016866720004,499.4998396120004,,,,,,,,,,,,,,,,,,,,,,,,,,,,,,,,,,,,,,,,,,,,,,,,,,,,,,,,,,,,,,,,,,030722,1,3,1,2,1,1,2,0,56,2022_Mar_07_1323,listening_fmri,3.2.4,59.96611386857624,
2,parcelated_audio/32/32_29.ogg,,,,,,,,,0,0,0,0,0,2,2,2,0,0,0,0,,,,,,,,,0,0,0,0,0,28,28,28,,,,,,,,,,,,,,,,,,,,,,,,,,,,,,,,,,,,,,,,,,,,499.5001925610004,502.15390586700005,,,,,,,,,,,,,,,,,,,,,,,,,,,,,,,,,,,,,,,,,,,,,,,,,,,,,,,,,,,,,,,,,,030722,1,3,1,2,1,1,2,0,56,2022_Mar_07_1323,listening_fmri,3.2.4,59.96611386857624,
2,parcelated_audio/32/32_30.ogg,,,,,,,,,0,0,0,0,0,2,2,2,0,0,0,0,,,,,,,,,0,0,0,0,0,29,29,29,,,,,,,,,,,,,,,,,,,,,,,,,,,,,,,,,,,,,,,,,,,,502.15442088200007,509.1865659480004,,,,,,,,,,,,,,,,,,,,,,,,,,,,,,,,,,,,,,,,,,,,,,,,,,,,,,,,,,,,,,,,,,030722,1,3,1,2,1,1,2,0,56,2022_Mar_07_1323,listening_fmri,3.2.4,59.96611386857624,
2,parcelated_audio/32/32_31.ogg,,,,,,,,,0,0,0,0,0,2,2,2,0,0,0,0,,,,,,,,,0,0,0,0,0,30,30,30,,,,,,,,,,,,,,,,,,,,,,,,,,,,,,,,,,,,,,,,,,,,509.18734482000036,515.5196833280002,,,,,,,,,,,,,,,,,,,,,,,,,,,,,,,,,,,,,,,,,,,,,,,,,,,,,,,,,,,,,,,,,,030722,1,3,1,2,1,1,2,0,56,2022_Mar_07_1323,listening_fmri,3.2.4,59.96611386857624,
2,parcelated_audio/32/32_32.ogg,,,,,,,,,0,0,0,0,0,2,2,2,0,0,0,0,,,,,,,,,0,0,0,0,0,31,31,31,,,,,,,,,,,,,,,,,,,,,,,,,,,,,,,,,,,,,,,,,,,,515.5200353620003,525.2333822750002,,,,,,,,,,,,,,,,,,,,,,,,,,,,,,,,,,,,,,,,,,,,,,,,,,,,,,,,,,,,,,,,,,030722,1,3,1,2,1,1,2,0,56,2022_Mar_07_1323,listening_fmri,3.2.4,59.96611386857624,
2,parcelated_audio/32/32_33.ogg,,,,,,,,,0,0,0,0,0,2,2,2,0,0,0,0,,,,,,,,,0,0,0,0,0,32,32,32,,,,,,,,,,,,,,,,,,,,,,,,,,,,,,,,,,,,,,,,,,,,525.2338716420004,530.9875583450003,,,,,,,,,,,,,,,,,,,,,,,,,,,,,,,,,,,,,,,,,,,,,,,,,,,,,,,,,,,,,,,,,,030722,1,3,1,2,1,1,2,0,56,2022_Mar_07_1323,listening_fmri,3.2.4,59.96611386857624,
2,,,,,,,,,,0,0,0,0,0,2,2,2,0,0,0,0,,,,,,,,,0,0,0,0,,,,,,,,,,,,,,,,,,,,,,,,,,,,,,,,,,,,,,,,,,,,,,,,,,,,,,,,,,,,,,,,,,,,,,,,,,,,,,,,,,,,,,,,,,,,,,,,,,,,,,,,,,,,,,,,,,,030722,1,3,1,2,1,1,2,0,56,2022_Mar_07_1323,listening_fmri,3.2.4,59.96611386857624,
2,,,,,,,,,,0,0,0,0,0,2,2,2,0,0,0,0,,,,,,,,,,,,,,,,,,,,,,,,,,,,,,,,,,,,,,530.9880568790004,536.9832508320001,603.7113240639997,None,,,,,,,,,,,,,,,,,,,,,609.7135064679997,None,609.7135064679997,None,,,,,,,,,,,,,,,,,,,,,,,,,,,,,,,,,,,,,,,,,,,,,,,,,,,,,,,,,,,,,,030722,1,3,1,2,1,1,2,0,56,2022_Mar_07_1323,listening_fmri,3.2.4,59.96611386857624,
2,,,,,,,,,,0,0,0,0,0,2,2,2,,,,,,,,,,,,,,,,,,,,,,,,,,,,,,,,,,,,,,,,,,,,,,,,,,,,,,,,,,,,,,,,,,,,,,,,,,,,,,,,,,,,,,,,,,,,,,,,,,,,,,,,,,,,,,,,,,,,,,,,,,,,,,,,,,,030722,1,3,1,2,1,1,2,0,56,2022_Mar_07_1323,listening_fmri,3.2.4,59.96611386857624,
3,,,,,,,,,,0,0,0,0,0,3,3,3,0,0,0,0,0,0,0,0,,,,,,,,,,,,,,,,,0,0,0,0,,,,,,,,,,,,,,,,,,610.7442689539998,None,610.7442689539998,None,1,1.056399823999982,610.7442689539998,None,610.7442689539998,None,,,,,,,,,,,,,,,611.828799897,None,1,0.9228502030000527,611.828799897,None,611.828799897,None,612.7958214219998,None,612.7958214219998,None,612.7958214219998,None,1,1.4467395359997681,612.7958214219998,None,614.2626846619996,None,1,3.4059793410001475,614.2626846619996,None,614.2626846619996,None,617.776954509,None,617.776954509,None,617.776954509,None,617.776954509,None,617.776954509,None,617.776954509,None,617.776954509,None,None,617.776954509,None,,,,,,,,,,,,,,,,,,,030722,1,3,1,2,1,1,2,0,56,2022_Mar_07_1323,listening_fmri,3.2.4,59.96611386857624,
3,,,,,,,,,,0,0,0,0,0,3,3,3,0,0,0,0,0,0,0,0,,,,,,,,,,,,,,,,,,,,,,,,,,,,,,,,,,,,,,,,,,,,,,,,,,,,,,,,,,,,,,,,,,,,,,,,,,,,,,,,,,,,,,,,,,,,,,,,,,,,,,,,,638.5592655419996,None,1,3.303390524000406,638.5592655419996,None,638.5592655419996,None,641.9268116979997,None,641.9268116979997,None,641.9268116979997,None,1,1.1676764629996796,641.9268116979997,None,030722,1,3,1,2,1,1,2,0,56,2022_Mar_07_1323,listening_fmri,3.2.4,59.96611386857624,
3,parcelated_audio/21/21_1.ogg,,,,,,,,,0,0,0,0,0,3,3,3,0,0,0,0,,,,,,,,,0,0,0,0,0,0,0,0,,,,,,,,,,,,,,,,,,,,,,,,,,,,,,,,,,,,643.1128107019999,None,1,1.938840996000181,643.1128107019999,None,572.3574867010002,575.3669226770003,575.3760164260002,589.642009789,,,,,,,,,,,,,,,,,,,,,,,,,,,,,,,,,,,,,,,,,,,,,,,,,,,,,,,,,,,,,,,,,,030722,1,3,1,2,1,1,2,0,56,2022_Mar_07_1323,listening_fmri,3.2.4,59.96611386857624,
3,parcelated_audio/21/21_2.ogg,,,,,,,,,0,0,0,0,0,3,3,3,0,0,0,0,,,,,,,,,0,0,0,0,0,1,1,1,,,,,,,,,,,,,,,,,,,,,,,,,,,,,,,,,,,,,,,,,,,,589.6423707820004,597.088936829,,,,,,,,,,,,,,,,,,,,,,,,,,,,,,,,,,,,,,,,,,,,,,,,,,,,,,,,,,,,,,,,,,030722,1,3,1,2,1,1,2,0,56,2022_Mar_07_1323,listening_fmri,3.2.4,59.96611386857624,
3,parcelated_audio/21/21_3.ogg,,,,,,,,,0,0,0,0,0,3,3,3,0,0,0,0,,,,,,,,,0,0,0,0,0,2,2,2,,,,,,,,,,,,,,,,,,,,,,,,,,,,,,,,,,,,,,,,,,,,597.089919989,604.7692969730001,,,,,,,,,,,,,,,,,,,,,,,,,,,,,,,,,,,,,,,,,,,,,,,,,,,,,,,,,,,,,,,,,,030722,1,3,1,2,1,1,2,0,56,2022_Mar_07_1323,listening_fmri,3.2.4,59.96611386857624,
3,parcelated_audio/21/21_4.ogg,,,,,,,,,0,0,0,0,0,3,3,3,0,0,0,0,,,,,,,,,0,0,0,0,0,3,3,3,,,,,,,,,,,,,,,,,,,,,,,,,,,,,,,,,,,,,,,,,,,,604.7696613200001,615.81195015,,,,,,,,,,,,,,,,,,,,,,,,,,,,,,,,,,,,,,,,,,,,,,,,,,,,,,,,,,,,,,,,,,030722,1,3,1,2,1,1,2,0,56,2022_Mar_07_1323,listening_fmri,3.2.4,59.96611386857624,
3,parcelated_audio/21/21_5.ogg,,,,,,,,,0,0,0,0,0,3,3,3,0,0,0,0,,,,,,,,,0,0,0,0,0,4,4,4,,,,,,,,,,,,,,,,,,,,,,,,,,,,,,,,,,,,,,,,,,,,615.8123011320004,620.8760530320001,,,,,,,,,,,,,,,,,,,,,,,,,,,,,,,,,,,,,,,,,,,,,,,,,,,,,,,,,,,,,,,,,,030722,1,3,1,2,1,1,2,0,56,2022_Mar_07_1323,listening_fmri,3.2.4,59.96611386857624,
3,parcelated_audio/21/21_6.ogg,,,,,,,,,0,0,0,0,0,3,3,3,0,0,0,0,,,,,,,,,0,0,0,0,0,5,5,5,,,,,,,,,,,,,,,,,,,,,,,,,,,,,,,,,,,,,,,,,,,,620.8764037880001,629.033369666,,,,,,,,,,,,,,,,,,,,,,,,,,,,,,,,,,,,,,,,,,,,,,,,,,,,,,,,,,,,,,,,,,030722,1,3,1,2,1,1,2,0,56,2022_Mar_07_1323,listening_fmri,3.2.4,59.96611386857624,
3,parcelated_audio/21/21_7.ogg,,,,,,,,,0,0,0,0,0,3,3,3,0,0,0,0,,,,,,,,,0,0,0,0,0,6,6,6,,,,,,,,,,,,,,,,,,,,,,,,,,,,,,,,,,,,,,,,,,,,629.033921919,633.5584703940003,,,,,,,,,,,,,,,,,,,,,,,,,,,,,,,,,,,,,,,,,,,,,,,,,,,,,,,,,,,,,,,,,,030722,1,3,1,2,1,1,2,0,56,2022_Mar_07_1323,listening_fmri,3.2.4,59.96611386857624,
3,parcelated_audio/21/21_8.ogg,,,,,,,,,0,0,0,0,0,3,3,3,0,0,0,0,,,,,,,,,0,0,0,0,0,7,7,7,,,,,,,,,,,,,,,,,,,,,,,,,,,,,,,,,,,,,,,,,,,,633.558984536,644.4638222500002,,,,,,,,,,,,,,,,,,,,,,,,,,,,,,,,,,,,,,,,,,,,,,,,,,,,,,,,,,,,,,,,,,030722,1,3,1,2,1,1,2,0,56,2022_Mar_07_1323,listening_fmri,3.2.4,59.96611386857624,
3,parcelated_audio/21/21_9.ogg,,,,,,,,,0,0,0,0,0,3,3,3,0,0,0,0,,,,,,,,,0,0,0,0,0,8,8,8,,,,,,,,,,,,,,,,,,,,,,,,,,,,,,,,,,,,,,,,,,,,644.464367693,651.8385180370001,,,,,,,,,,,,,,,,,,,,,,,,,,,,,,,,,,,,,,,,,,,,,,,,,,,,,,,,,,,,,,,,,,030722,1,3,1,2,1,1,2,0,56,2022_Mar_07_1323,listening_fmri,3.2.4,59.96611386857624,
3,parcelated_audio/21/21_10.ogg,,,,,,,,,0,0,0,0,0,3,3,3,0,0,0,0,,,,,,,,,0,0,0,0,0,9,9,9,,,,,,,,,,,,,,,,,,,,,,,,,,,,,,,,,,,,,,,,,,,,651.8388853000001,658.6948734950001,,,,,,,,,,,,,,,,,,,,,,,,,,,,,,,,,,,,,,,,,,,,,,,,,,,,,,,,,,,,,,,,,,030722,1,3,1,2,1,1,2,0,56,2022_Mar_07_1323,listening_fmri,3.2.4,59.96611386857624,
3,parcelated_audio/21/21_11.ogg,,,,,,,,,0,0,0,0,0,3,3,3,0,0,0,0,,,,,,,,,0,0,0,0,0,10,10,10,,,,,,,,,,,,,,,,,,,,,,,,,,,,,,,,,,,,,,,,,,,,658.6952890590001,665.7938205640003,,,,,,,,,,,,,,,,,,,,,,,,,,,,,,,,,,,,,,,,,,,,,,,,,,,,,,,,,,,,,,,,,,030722,1,3,1,2,1,1,2,0,56,2022_Mar_07_1323,listening_fmri,3.2.4,59.96611386857624,
3,parcelated_audio/21/21_12.ogg,,,,,,,,,0,0,0,0,0,3,3,3,0,0,0,0,,,,,,,,,0,0,0,0,0,11,11,11,,,,,,,,,,,,,,,,,,,,,,,,,,,,,,,,,,,,,,,,,,,,665.7940934570001,674.1003395860002,,,,,,,,,,,,,,,,,,,,,,,,,,,,,,,,,,,,,,,,,,,,,,,,,,,,,,,,,,,,,,,,,,030722,1,3,1,2,1,1,2,0,56,2022_Mar_07_1323,listening_fmri,3.2.4,59.96611386857624,
3,parcelated_audio/21/21_13.ogg,,,,,,,,,0,0,0,0,0,3,3,3,0,0,0,0,,,,,,,,,0,0,0,0,0,12,12,12,,,,,,,,,,,,,,,,,,,,,,,,,,,,,,,,,,,,,,,,,,,,674.1007647830002,677.4427778220002,,,,,,,,,,,,,,,,,,,,,,,,,,,,,,,,,,,,,,,,,,,,,,,,,,,,,,,,,,,,,,,,,,030722,1,3,1,2,1,1,2,0,56,2022_Mar_07_1323,listening_fmri,3.2.4,59.96611386857624,
3,parcelated_audio/21/21_14.ogg,,,,,,,,,0,0,0,0,0,3,3,3,0,0,0,0,,,,,,,,,0,0,0,0,0,13,13,13,,,,,,,,,,,,,,,,,,,,,,,,,,,,,,,,,,,,,,,,,,,,677.4431283810004,682.856166264,,,,,,,,,,,,,,,,,,,,,,,,,,,,,,,,,,,,,,,,,,,,,,,,,,,,,,,,,,,,,,,,,,030722,1,3,1,2,1,1,2,0,56,2022_Mar_07_1323,listening_fmri,3.2.4,59.96611386857624,
3,parcelated_audio/21/21_15.ogg,,,,,,,,,0,0,0,0,0,3,3,3,0,0,0,0,,,,,,,,,0,0,0,0,0,14,14,14,,,,,,,,,,,,,,,,,,,,,,,,,,,,,,,,,,,,,,,,,,,,682.856515428,689.6732855660002,,,,,,,,,,,,,,,,,,,,,,,,,,,,,,,,,,,,,,,,,,,,,,,,,,,,,,,,,,,,,,,,,,030722,1,3,1,2,1,1,2,0,56,2022_Mar_07_1323,listening_fmri,3.2.4,59.96611386857624,
3,parcelated_audio/21/21_16.ogg,,,,,,,,,0,0,0,0,0,3,3,3,0,0,0,0,,,,,,,,,0,0,0,0,0,15,15,15,,,,,,,,,,,,,,,,,,,,,,,,,,,,,,,,,,,,,,,,,,,,689.6738837960002,695.7398278560004,,,,,,,,,,,,,,,,,,,,,,,,,,,,,,,,,,,,,,,,,,,,,,,,,,,,,,,,,,,,,,,,,,030722,1,3,1,2,1,1,2,0,56,2022_Mar_07_1323,listening_fmri,3.2.4,59.96611386857624,
3,parcelated_audio/21/21_17.ogg,,,,,,,,,0,0,0,0,0,3,3,3,0,0,0,0,,,,,,,,,0,0,0,0,0,16,16,16,,,,,,,,,,,,,,,,,,,,,,,,,,,,,,,,,,,,,,,,,,,,695.7403236190003,697.90781169,,,,,,,,,,,,,,,,,,,,,,,,,,,,,,,,,,,,,,,,,,,,,,,,,,,,,,,,,,,,,,,,,,030722,1,3,1,2,1,1,2,0,56,2022_Mar_07_1323,listening_fmri,3.2.4,59.96611386857624,
3,parcelated_audio/21/21_18.ogg,,,,,,,,,0,0,0,0,0,3,3,3,0,0,0,0,,,,,,,,,0,0,0,0,0,17,17,17,,,,,,,,,,,,,,,,,,,,,,,,,,,,,,,,,,,,,,,,,,,,697.908173326,711.0759682350003,,,,,,,,,,,,,,,,,,,,,,,,,,,,,,,,,,,,,,,,,,,,,,,,,,,,,,,,,,,,,,,,,,030722,1,3,1,2,1,1,2,0,56,2022_Mar_07_1323,listening_fmri,3.2.4,59.96611386857624,
3,parcelated_audio/21/21_19.ogg,,,,,,,,,0,0,0,0,0,3,3,3,0,0,0,0,,,,,,,,,0,0,0,0,0,18,18,18,,,,,,,,,,,,,,,,,,,,,,,,,,,,,,,,,,,,,,,,,,,,711.0765326120004,713.9503622710004,,,,,,,,,,,,,,,,,,,,,,,,,,,,,,,,,,,,,,,,,,,,,,,,,,,,,,,,,,,,,,,,,,030722,1,3,1,2,1,1,2,0,56,2022_Mar_07_1323,listening_fmri,3.2.4,59.96611386857624,
3,parcelated_audio/21/21_20.ogg,,,,,,,,,0,0,0,0,0,3,3,3,0,0,0,0,,,,,,,,,0,0,0,0,0,19,19,19,,,,,,,,,,,,,,,,,,,,,,,,,,,,,,,,,,,,,,,,,,,,713.950833118,722.6670363790004,,,,,,,,,,,,,,,,,,,,,,,,,,,,,,,,,,,,,,,,,,,,,,,,,,,,,,,,,,,,,,,,,,030722,1,3,1,2,1,1,2,0,56,2022_Mar_07_1323,listening_fmri,3.2.4,59.96611386857624,
3,parcelated_audio/21/21_21.ogg,,,,,,,,,0,0,0,0,0,3,3,3,0,0,0,0,,,,,,,,,0,0,0,0,0,20,20,20,,,,,,,,,,,,,,,,,,,,,,,,,,,,,,,,,,,,,,,,,,,,722.6674960350001,733.8014710820003,,,,,,,,,,,,,,,,,,,,,,,,,,,,,,,,,,,,,,,,,,,,,,,,,,,,,,,,,,,,,,,,,,030722,1,3,1,2,1,1,2,0,56,2022_Mar_07_1323,listening_fmri,3.2.4,59.96611386857624,
3,parcelated_audio/21/21_22.ogg,,,,,,,,,0,0,0,0,0,3,3,3,0,0,0,0,,,,,,,,,0,0,0,0,0,21,21,21,,,,,,,,,,,,,,,,,,,,,,,,,,,,,,,,,,,,,,,,,,,,733.8019872320001,744.7111180040001,,,,,,,,,,,,,,,,,,,,,,,,,,,,,,,,,,,,,,,,,,,,,,,,,,,,,,,,,,,,,,,,,,030722,1,3,1,2,1,1,2,0,56,2022_Mar_07_1323,listening_fmri,3.2.4,59.96611386857624,
3,parcelated_audio/21/21_23.ogg,,,,,,,,,0,0,0,0,0,3,3,3,0,0,0,0,,,,,,,,,0,0,0,0,0,22,22,22,,,,,,,,,,,,,,,,,,,,,,,,,,,,,,,,,,,,,,,,,,,,744.71138754,749.692047641,,,,,,,,,,,,,,,,,,,,,,,,,,,,,,,,,,,,,,,,,,,,,,,,,,,,,,,,,,,,,,,,,,030722,1,3,1,2,1,1,2,0,56,2022_Mar_07_1323,listening_fmri,3.2.4,59.96611386857624,
3,parcelated_audio/21/21_24.ogg,,,,,,,,,0,0,0,0,0,3,3,3,0,0,0,0,,,,,,,,,0,0,0,0,0,23,23,23,,,,,,,,,,,,,,,,,,,,,,,,,,,,,,,,,,,,,,,,,,,,749.6924327640004,754.2779439170004,,,,,,,,,,,,,,,,,,,,,,,,,,,,,,,,,,,,,,,,,,,,,,,,,,,,,,,,,,,,,,,,,,030722,1,3,1,2,1,1,2,0,56,2022_Mar_07_1323,listening_fmri,3.2.4,59.96611386857624,
3,parcelated_audio/21/21_25.ogg,,,,,,,,,0,0,0,0,0,3,3,3,0,0,0,0,,,,,,,,,0,0,0,0,0,24,24,24,,,,,,,,,,,,,,,,,,,,,,,,,,,,,,,,,,,,,,,,,,,,754.2788855530002,763.7259458150002,,,,,,,,,,,,,,,,,,,,,,,,,,,,,,,,,,,,,,,,,,,,,,,,,,,,,,,,,,,,,,,,,,030722,1,3,1,2,1,1,2,0,56,2022_Mar_07_1323,listening_fmri,3.2.4,59.96611386857624,
3,parcelated_audio/21/21_26.ogg,,,,,,,,,0,0,0,0,0,3,3,3,0,0,0,0,,,,,,,,,0,0,0,0,0,25,25,25,,,,,,,,,,,,,,,,,,,,,,,,,,,,,,,,,,,,,,,,,,,,763.7263023350001,767.7119068440002,,,,,,,,,,,,,,,,,,,,,,,,,,,,,,,,,,,,,,,,,,,,,,,,,,,,,,,,,,,,,,,,,,030722,1,3,1,2,1,1,2,0,56,2022_Mar_07_1323,listening_fmri,3.2.4,59.96611386857624,
3,parcelated_audio/21/21_27.ogg,,,,,,,,,0,0,0,0,0,3,3,3,0,0,0,0,,,,,,,,,0,0,0,0,0,26,26,26,,,,,,,,,,,,,,,,,,,,,,,,,,,,,,,,,,,,,,,,,,,,767.71225615,774.895460322,,,,,,,,,,,,,,,,,,,,,,,,,,,,,,,,,,,,,,,,,,,,,,,,,,,,,,,,,,,,,,,,,,030722,1,3,1,2,1,1,2,0,56,2022_Mar_07_1323,listening_fmri,3.2.4,59.96611386857624,
3,parcelated_audio/21/21_28.ogg,,,,,,,,,0,0,0,0,0,3,3,3,0,0,0,0,,,,,,,,,0,0,0,0,0,27,27,27,,,,,,,,,,,,,,,,,,,,,,,,,,,,,,,,,,,,,,,,,,,,774.8958155240002,781.0171598520001,,,,,,,,,,,,,,,,,,,,,,,,,,,,,,,,,,,,,,,,,,,,,,,,,,,,,,,,,,,,,,,,,,030722,1,3,1,2,1,1,2,0,56,2022_Mar_07_1323,listening_fmri,3.2.4,59.96611386857624,
3,parcelated_audio/21/21_29.ogg,,,,,,,,,0,0,0,0,0,3,3,3,0,0,0,0,,,,,,,,,0,0,0,0,0,28,28,28,,,,,,,,,,,,,,,,,,,,,,,,,,,,,,,,,,,,,,,,,,,,781.0179786060003,785.279781064,,,,,,,,,,,,,,,,,,,,,,,,,,,,,,,,,,,,,,,,,,,,,,,,,,,,,,,,,,,,,,,,,,030722,1,3,1,2,1,1,2,0,56,2022_Mar_07_1323,listening_fmri,3.2.4,59.96611386857624,
3,parcelated_audio/21/21_30.ogg,,,,,,,,,0,0,0,0,0,3,3,3,0,0,0,0,,,,,,,,,0,0,0,0,0,29,29,29,,,,,,,,,,,,,,,,,,,,,,,,,,,,,,,,,,,,,,,,,,,,785.2801358350002,790.5318162590002,,,,,,,,,,,,,,,,,,,,,,,,,,,,,,,,,,,,,,,,,,,,,,,,,,,,,,,,,,,,,,,,,,030722,1,3,1,2,1,1,2,0,56,2022_Mar_07_1323,listening_fmri,3.2.4,59.96611386857624,
3,,,,,,,,,,0,0,0,0,0,3,3,3,0,0,0,0,,,,,,,,,0,0,0,0,,,,,,,,,,,,,,,,,,,,,,,,,,,,,,,,,,,,,,,,,,,,,,,,,,,,,,,,,,,,,,,,,,,,,,,,,,,,,,,,,,,,,,,,,,,,,,,,,,,,,,,,,,,,,,,,,,,030722,1,3,1,2,1,1,2,0,56,2022_Mar_07_1323,listening_fmri,3.2.4,59.96611386857624,
,,,,,,,,,,,,,,,,,,,,,,,,,,,,,,,,,,,,,,,,,,,,,,,,,,,,,,,,,,,790.532326476,796.5332709190002,863.2572411699998,None,,,,,,,,,,,,,,,,,,,,,869.2638743789998,None,869.2638743789998,None,,,,,,,,,,,,,,,,,,,,,,,,,,,,,,,,,,,,,,,,,,,,,,,,,,,,,,,,,,,,,,,,,,,,,,,,,,,,
﻿count,audio,trials_14.thisRepN,trials_14.thisTrialN,trials_14.thisN,trials_14.thisIndex,trials_3.thisRepN,trials_3.thisTrialN,trials_3.thisN,trials_3.thisIndex,trials_4.thisRepN,trials_4.thisTrialN,trials_4.thisN,trials_4.thisIndex,trials_6.thisRepN,trials_6.thisTrialN,trials_6.thisN,trials_6.thisIndex,trials_9.thisRepN,trials_9.thisTrialN,trials_9.thisN,trials_9.thisIndex,trials_10.thisRepN,trials_10.thisTrialN,trials_10.thisN,trials_10.thisIndex,trials_12.thisRepN,trials_12.thisTrialN,trials_12.thisN,trials_12.thisIndex,trials_25.thisRepN,trials_25.thisTrialN,trials_25.thisN,trials_25.thisIndex,trials_15.thisRepN,trials_15.thisTrialN,trials_15.thisN,trials_15.thisIndex,trials_26.thisRepN,trials_26.thisTrialN,trials_26.thisN,trials_26.thisIndex,trials_11.thisRepN,trials_11.thisTrialN,trials_11.thisN,trials_11.thisIndex,story_list_block2,action_list_block2,textTrigger.started,textTrigger.stopped,getTrigger.keys,getTrigger.rt,getTrigger.started,getTrigger.stopped,triggerTime,text_76.started,text_76.stopped,text_77.started,text_77.stopped,startWait,endWait,image_23.started,image_23.stopped,text_55.started,text_55.stopped,text_56.started,text_56.stopped,key_resp_2.keys,key_resp_2.rt,key_resp_2.started,key_resp_2.stopped,text_82.started,text_82.stopped,text_64.started,text_64.stopped,key_resp_20.keys,key_resp_20.rt,key_resp_20.started,key_resp_20.stopped,storyImage_StartTime,storyImage_EndTime,clip_StartTime,clip_EndTime,text_67.started,text_67.stopped,text_68.started,text_68.stopped,text_57.started,text_57.stopped,key_resp_17.keys,key_resp_17.rt,key_resp_17.started,key_resp_17.stopped,text_83.started,text_83.stopped,text_60.started,text_60.stopped,image_2.started,image_2.stopped,text_58.started,text_58.stopped,key_resp_23.keys,key_resp_23.rt,key_resp_23.started,key_resp_23.stopped,text_62.started,text_62.stopped,key_resp_18.keys,key_resp_18.rt,key_resp_18.started,key_resp_18.stopped,text_84.started,text_84.stopped,question1_2.started,question1_2.stopped,question2_2.started,question2_2.stopped,question3_2.started,question3_2.stopped,question4_2.started,question4_2.stopped,question5_2.started,question5_2.stopped,question6_2.started,question6_2.stopped,image_15.started,image_15.stopped,key_resp.keys,key_resp.started,key_resp.stopped,text_59.started,text_59.stopped,key_resp_19.keys,key_resp_19.rt,key_resp_19.started,key_resp_19.stopped,text_85.started,text_85.stopped,text_61.started,text_61.stopped,image_17.started,image_17.stopped,text_63.started,text_63.stopped,key_resp_24.keys,key_resp_24.rt,key_resp_24.started,key_resp_24.stopped,participant,sA,sB,lA,lB,block_struct,play_stories,block,behavioral,random_seed,date,expName,psychopyVersion,frameRate,
0,parcelated_audio/14/14_1.ogg,,,,,,,,,0,0,0,0,0,0,0,0,0,0,0,0,,,,,,,,,0,0,0,0,0,0,0,0,,,,,,,,,[14 23 32 21 12 34 41 43],[4 3 2 1 2 4 1 3],25.077742103999753,None,equal,47.622918906999985,25.077742103999753,None,47.64616687099988,25.077742103999753,None,25.077742103999753,None,0.000342006000209949,5.999234206999972,72.72872031799989,None,78.7334800499998,None,78.7334800499998,None,1,1.0681744569997136,78.7334800499998,None,78.7334800499998,None,79.83403703399972,None,1,1.2126201199998832,79.83403703399972,None,8.3570543120004,11.365646646000187,11.37096986000006,18.250588836000134,,,,,,,,,,,,,,,,,,,,,,,,,,,,,,,,,,,,,,,,,,,,,,,,,,,,,,,,,,,,,,,,,,030722,1,3,1,2,1,1,2,0,56,2022_Mar_07_1323,listening_fmri,3.2.4,59.96611386857624,
0,parcelated_audio/14/14_2.ogg,,,,,,,,,0,0,0,0,0,0,0,0,0,0,0,0,,,,,,,,,0,0,0,0,0,1,1,1,,,,,,,,,,,,,,,,,,,,,,,,,,,,,,,,,,,,,,,,,,,,18.251035511000282,24.79463995900005,,,,,,,,,,,,,,,,,,,,,,,,,,,,,,,,,,,,,,,,,,,,,,,,,,,,,,,,,,,,,,,,,,030722,1,3,1,2,1,1,2,0,56,2022_Mar_07_1323,listening_fmri,3.2.4,59.96611386857624,
0,parcelated_audio/14/14_3.ogg,,,,,,,,,0,0,0,0,0,0,0,0,0,0,0,0,,,,,,,,,0,0,0,0,0,2,2,2,,,,,,,,,,,,,,,,,,,,,,,,,,,,,,,,,,,,,,,,,,,,24.79594238000027,28.505055107000317,,,,,,,,,,,,,,,,,,,,,,,,,,,,,,,,,,,,,,,,,,,,,,,,,,,,,,,,,,,,,,,,,,030722,1,3,1,2,1,1,2,0,56,2022_Mar_07_1323,listening_fmri,3.2.4,59.96611386857624,
0,parcelated_audio/14/14_4.ogg,,,,,,,,,0,0,0,0,0,0,0,0,0,0,0,0,,,,,,,,,0,0,0,0,0,3,3,3,,,,,,,,,,,,,,,,,,,,,,,,,,,,,,,,,,,,,,,,,,,,28.505404715000168,36.455934309999975,,,,,,,,,,,,,,,,,,,,,,,,,,,,,,,,,,,,,,,,,,,,,,,,,,,,,,,,,,,,,,,,,,030722,1,3,1,2,1,1,2,0,56,2022_Mar_07_1323,listening_fmri,3.2.4,59.96611386857624,
0,parcelated_audio/14/14_5.ogg,,,,,,,,,0,0,0,0,0,0,0,0,0,0,0,0,,,,,,,,,0,0,0,0,0,4,4,4,,,,,,,,,,,,,,,,,,,,,,,,,,,,,,,,,,,,,,,,,,,,36.45627982900032,41.3184307180004,,,,,,,,,,,,,,,,,,,,,,,,,,,,,,,,,,,,,,,,,,,,,,,,,,,,,,,,,,,,,,,,,,030722,1,3,1,2,1,1,2,0,56,2022_Mar_07_1323,listening_fmri,3.2.4,59.96611386857624,
0,parcelated_audio/14/14_6.ogg,,,,,,,,,0,0,0,0,0,0,0,0,0,0,0,0,,,,,,,,,0,0,0,0,0,5,5,5,,,,,,,,,,,,,,,,,,,,,,,,,,,,,,,,,,,,,,,,,,,,41.319014272000004,47.185234760000185,,,,,,,,,,,,,,,,,,,,,,,,,,,,,,,,,,,,,,,,,,,,,,,,,,,,,,,,,,,,,,,,,,030722,1,3,1,2,1,1,2,0,56,2022_Mar_07_1323,listening_fmri,3.2.4,59.96611386857624,
0,parcelated_audio/14/14_7.ogg,,,,,,,,,0,0,0,0,0,0,0,0,0,0,0,0,,,,,,,,,0,0,0,0,0,6,6,6,,,,,,,,,,,,,,,,,,,,,,,,,,,,,,,,,,,,,,,,,,,,47.1855992400001,56.83587451700032,,,,,,,,,,,,,,,,,,,,,,,,,,,,,,,,,,,,,,,,,,,,,,,,,,,,,,,,,,,,,,,,,,030722,1,3,1,2,1,1,2,0,56,2022_Mar_07_1323,listening_fmri,3.2.4,59.96611386857624,
0,parcelated_audio/14/14_8.ogg,,,,,,,,,0,0,0,0,0,0,0,0,0,0,0,0,,,,,,,,,0,0,0,0,0,7,7,7,,,,,,,,,,,,,,,,,,,,,,,,,,,,,,,,,,,,,,,,,,,,56.836225944000034,62.04926938300014,,,,,,,,,,,,,,,,,,,,,,,,,,,,,,,,,,,,,,,,,,,,,,,,,,,,,,,,,,,,,,,,,,030722,1,3,1,2,1,1,2,0,56,2022_Mar_07_1323,listening_fmri,3.2.4,59.96611386857624,
0,parcelated_audio/14/14_9.ogg,,,,,,,,,0,0,0,0,0,0,0,0,0,0,0,0,,,,,,,,,0,0,0,0,0,8,8,8,,,,,,,,,,,,,,,,,,,,,,,,,,,,,,,,,,,,,,,,,,,,62.04962028400041,65.80208340000036,,,,,,,,,,,,,,,,,,,,,,,,,,,,,,,,,,,,,,,,,,,,,,,,,,,,,,,,,,,,,,,,,,030722,1,3,1,2,1,1,2,0,56,2022_Mar_07_1323,listening_fmri,3.2.4,59.96611386857624,
0,parcelated_audio/14/14_10.ogg,,,,,,,,,0,0,0,0,0,0,0,0,0,0,0,0,,,,,,,,,0,0,0,0,0,9,9,9,,,,,,,,,,,,,,,,,,,,,,,,,,,,,,,,,,,,,,,,,,,,65.80243020200032,77.06485533100022,,,,,,,,,,,,,,,,,,,,,,,,,,,,,,,,,,,,,,,,,,,,,,,,,,,,,,,,,,,,,,,,,,030722,1,3,1,2,1,1,2,0,56,2022_Mar_07_1323,listening_fmri,3.2.4,59.96611386857624,
0,parcelated_audio/14/14_11.ogg,,,,,,,,,0,0,0,0,0,0,0,0,0,0,0,0,,,,,,,,,0,0,0,0,0,10,10,10,,,,,,,,,,,,,,,,,,,,,,,,,,,,,,,,,,,,,,,,,,,,77.06520663000038,84.26980811200019,,,,,,,,,,,,,,,,,,,,,,,,,,,,,,,,,,,,,,,,,,,,,,,,,,,,,,,,,,,,,,,,,,030722,1,3,1,2,1,1,2,0,56,2022_Mar_07_1323,listening_fmri,3.2.4,59.96611386857624,
0,parcelated_audio/14/14_12.ogg,,,,,,,,,0,0,0,0,0,0,0,0,0,0,0,0,,,,,,,,,0,0,0,0,0,11,11,11,,,,,,,,,,,,,,,,,,,,,,,,,,,,,,,,,,,,,,,,,,,,84.27039676599998,92.28645065800038,,,,,,,,,,,,,,,,,,,,,,,,,,,,,,,,,,,,,,,,,,,,,,,,,,,,,,,,,,,,,,,,,,030722,1,3,1,2,1,1,2,0,56,2022_Mar_07_1323,listening_fmri,3.2.4,59.96611386857624,
0,parcelated_audio/14/14_13.ogg,,,,,,,,,0,0,0,0,0,0,0,0,0,0,0,0,,,,,,,,,0,0,0,0,0,12,12,12,,,,,,,,,,,,,,,,,,,,,,,,,,,,,,,,,,,,,,,,,,,,92.2870536710002,98.39778705500021,,,,,,,,,,,,,,,,,,,,,,,,,,,,,,,,,,,,,,,,,,,,,,,,,,,,,,,,,,,,,,,,,,030722,1,3,1,2,1,1,2,0,56,2022_Mar_07_1323,listening_fmri,3.2.4,59.96611386857624,
0,parcelated_audio/14/14_14.ogg,,,,,,,,,0,0,0,0,0,0,0,0,0,0,0,0,,,,,,,,,0,0,0,0,0,13,13,13,,,,,,,,,,,,,,,,,,,,,,,,,,,,,,,,,,,,,,,,,,,,98.39814656500039,104.94930754200004,,,,,,,,,,,,,,,,,,,,,,,,,,,,,,,,,,,,,,,,,,,,,,,,,,,,,,,,,,,,,,,,,,030722,1,3,1,2,1,1,2,0,56,2022_Mar_07_1323,listening_fmri,3.2.4,59.96611386857624,
0,parcelated_audio/14/14_15.ogg,,,,,,,,,0,0,0,0,0,0,0,0,0,0,0,0,,,,,,,,,0,0,0,0,0,14,14,14,,,,,,,,,,,,,,,,,,,,,,,,,,,,,,,,,,,,,,,,,,,,104.94995597800016,112.063999298,,,,,,,,,,,,,,,,,,,,,,,,,,,,,,,,,,,,,,,,,,,,,,,,,,,,,,,,,,,,,,,,,,030722,1,3,1,2,1,1,2,0,56,2022_Mar_07_1323,listening_fmri,3.2.4,59.96611386857624,
0,parcelated_audio/14/14_16.ogg,,,,,,,,,0,0,0,0,0,0,0,0,0,0,0,0,,,,,,,,,0,0,0,0,0,15,15,15,,,,,,,,,,,,,,,,,,,,,,,,,,,,,,,,,,,,,,,,,,,,112.06459282200012,117.48597880000034,,,,,,,,,,,,,,,,,,,,,,,,,,,,,,,,,,,,,,,,,,,,,,,,,,,,,,,,,,,,,,,,,,030722,1,3,1,2,1,1,2,0,56,2022_Mar_07_1323,listening_fmri,3.2.4,59.96611386857624,
0,parcelated_audio/14/14_17.ogg,,,,,,,,,0,0,0,0,0,0,0,0,0,0,0,0,,,,,,,,,0,0,0,0,0,16,16,16,,,,,,,,,,,,,,,,,,,,,,,,,,,,,,,,,,,,,,,,,,,,117.48633762899999,127.18586251600027,,,,,,,,,,,,,,,,,,,,,,,,,,,,,,,,,,,,,,,,,,,,,,,,,,,,,,,,,,,,,,,,,,030722,1,3,1,2,1,1,2,0,56,2022_Mar_07_1323,listening_fmri,3.2.4,59.96611386857624,
0,parcelated_audio/14/14_18.ogg,,,,,,,,,0,0,0,0,0,0,0,0,0,0,0,0,,,,,,,,,0,0,0,0,0,17,17,17,,,,,,,,,,,,,,,,,,,,,,,,,,,,,,,,,,,,,,,,,,,,127.18613636500004,134.77276366800015,,,,,,,,,,,,,,,,,,,,,,,,,,,,,,,,,,,,,,,,,,,,,,,,,,,,,,,,,,,,,,,,,,030722,1,3,1,2,1,1,2,0,56,2022_Mar_07_1323,listening_fmri,3.2.4,59.96611386857624,
0,parcelated_audio/14/14_19.ogg,,,,,,,,,0,0,0,0,0,0,0,0,0,0,0,0,,,,,,,,,0,0,0,0,0,18,18,18,,,,,,,,,,,,,,,,,,,,,,,,,,,,,,,,,,,,,,,,,,,,134.77385961000027,137.63871836600038,,,,,,,,,,,,,,,,,,,,,,,,,,,,,,,,,,,,,,,,,,,,,,,,,,,,,,,,,,,,,,,,,,030722,1,3,1,2,1,1,2,0,56,2022_Mar_07_1323,listening_fmri,3.2.4,59.96611386857624,
0,parcelated_audio/14/14_20.ogg,,,,,,,,,0,0,0,0,0,0,0,0,0,0,0,0,,,,,,,,,0,0,0,0,0,19,19,19,,,,,,,,,,,,,,,,,,,,,,,,,,,,,,,,,,,,,,,,,,,,137.63927096600037,139.79277270400007,,,,,,,,,,,,,,,,,,,,,,,,,,,,,,,,,,,,,,,,,,,,,,,,,,,,,,,,,,,,,,,,,,030722,1,3,1,2,1,1,2,0,56,2022_Mar_07_1323,listening_fmri,3.2.4,59.96611386857624,
0,parcelated_audio/14/14_21.ogg,,,,,,,,,0,0,0,0,0,0,0,0,0,0,0,0,,,,,,,,,0,0,0,0,0,20,20,20,,,,,,,,,,,,,,,,,,,,,,,,,,,,,,,,,,,,,,,,,,,,139.79337232200032,149.37085430800016,,,,,,,,,,,,,,,,,,,,,,,,,,,,,,,,,,,,,,,,,,,,,,,,,,,,,,,,,,,,,,,,,,030722,1,3,1,2,1,1,2,0,56,2022_Mar_07_1323,listening_fmri,3.2.4,59.96611386857624,
0,parcelated_audio/14/14_22.ogg,,,,,,,,,0,0,0,0,0,0,0,0,0,0,0,0,,,,,,,,,0,0,0,0,0,21,21,21,,,,,,,,,,,,,,,,,,,,,,,,,,,,,,,,,,,,,,,,,,,,149.3712108310001,155.71079277800027,,,,,,,,,,,,,,,,,,,,,,,,,,,,,,,,,,,,,,,,,,,,,,,,,,,,,,,,,,,,,,,,,,030722,1,3,1,2,1,1,2,0,56,2022_Mar_07_1323,listening_fmri,3.2.4,59.96611386857624,
0,parcelated_audio/14/14_23.ogg,,,,,,,,,0,0,0,0,0,0,0,0,0,0,0,0,,,,,,,,,0,0,0,0,0,22,22,22,,,,,,,,,,,,,,,,,,,,,,,,,,,,,,,,,,,,,,,,,,,,155.71126675300002,160.77879859300037,,,,,,,,,,,,,,,,,,,,,,,,,,,,,,,,,,,,,,,,,,,,,,,,,,,,,,,,,,,,,,,,,,030722,1,3,1,2,1,1,2,0,56,2022_Mar_07_1323,listening_fmri,3.2.4,59.96611386857624,
0,parcelated_audio/14/14_24.ogg,,,,,,,,,0,0,0,0,0,0,0,0,0,0,0,0,,,,,,,,,0,0,0,0,0,23,23,23,,,,,,,,,,,,,,,,,,,,,,,,,,,,,,,,,,,,,,,,,,,,160.7793983190004,171.68984918000024,,,,,,,,,,,,,,,,,,,,,,,,,,,,,,,,,,,,,,,,,,,,,,,,,,,,,,,,,,,,,,,,,,030722,1,3,1,2,1,1,2,0,56,2022_Mar_07_1323,listening_fmri,3.2.4,59.96611386857624,
0,parcelated_audio/14/14_25.ogg,,,,,,,,,0,0,0,0,0,0,0,0,0,0,0,0,,,,,,,,,0,0,0,0,0,24,24,24,,,,,,,,,,,,,,,,,,,,,,,,,,,,,,,,,,,,,,,,,,,,171.69011869800033,178.33433248500023,,,,,,,,,,,,,,,,,,,,,,,,,,,,,,,,,,,,,,,,,,,,,,,,,,,,,,,,,,,,,,,,,,030722,1,3,1,2,1,1,2,0,56,2022_Mar_07_1323,listening_fmri,3.2.4,59.96611386857624,
0,parcelated_audio/14/14_26.ogg,,,,,,,,,0,0,0,0,0,0,0,0,0,0,0,0,,,,,,,,,0,0,0,0,0,25,25,25,,,,,,,,,,,,,,,,,,,,,,,,,,,,,,,,,,,,,,,,,,,,178.33490471200003,180.51484664999998,,,,,,,,,,,,,,,,,,,,,,,,,,,,,,,,,,,,,,,,,,,,,,,,,,,,,,,,,,,,,,,,,,030722,1,3,1,2,1,1,2,0,56,2022_Mar_07_1323,listening_fmri,3.2.4,59.96611386857624,
0,parcelated_audio/14/14_27.ogg,,,,,,,,,0,0,0,0,0,0,0,0,0,0,0,0,,,,,,,,,0,0,0,0,0,26,26,26,,,,,,,,,,,,,,,,,,,,,,,,,,,,,,,,,,,,,,,,,,,,180.5151943660003,186.537844598,,,,,,,,,,,,,,,,,,,,,,,,,,,,,,,,,,,,,,,,,,,,,,,,,,,,,,,,,,,,,,,,,,030722,1,3,1,2,1,1,2,0,56,2022_Mar_07_1323,listening_fmri,3.2.4,59.96611386857624,
0,parcelated_audio/14/14_28.ogg,,,,,,,,,0,0,0,0,0,0,0,0,0,0,0,0,,,,,,,,,0,0,0,0,0,27,27,27,,,,,,,,,,,,,,,,,,,,,,,,,,,,,,,,,,,,,,,,,,,,186.5383552510002,189.51581657800034,,,,,,,,,,,,,,,,,,,,,,,,,,,,,,,,,,,,,,,,,,,,,,,,,,,,,,,,,,,,,,,,,,030722,1,3,1,2,1,1,2,0,56,2022_Mar_07_1323,listening_fmri,3.2.4,59.96611386857624,
0,parcelated_audio/14/14_29.ogg,,,,,,,,,0,0,0,0,0,0,0,0,0,0,0,0,,,,,,,,,0,0,0,0,0,28,28,28,,,,,,,,,,,,,,,,,,,,,,,,,,,,,,,,,,,,,,,,,,,,189.516416553,191.88274425999998,,,,,,,,,,,,,,,,,,,,,,,,,,,,,,,,,,,,,,,,,,,,,,,,,,,,,,,,,,,,,,,,,,030722,1,3,1,2,1,1,2,0,56,2022_Mar_07_1323,listening_fmri,3.2.4,59.96611386857624,
0,parcelated_audio/14/14_30.ogg,,,,,,,,,0,0,0,0,0,0,0,0,0,0,0,0,,,,,,,,,0,0,0,0,0,29,29,29,,,,,,,,,,,,,,,,,,,,,,,,,,,,,,,,,,,,,,,,,,,,191.88310518100025,196.14084543000035,,,,,,,,,,,,,,,,,,,,,,,,,,,,,,,,,,,,,,,,,,,,,,,,,,,,,,,,,,,,,,,,,,030722,1,3,1,2,1,1,2,0,56,2022_Mar_07_1323,listening_fmri,3.2.4,59.96611386857624,
0,parcelated_audio/14/14_31.ogg,,,,,,,,,0,0,0,0,0,0,0,0,0,0,0,0,,,,,,,,,0,0,0,0,0,30,30,30,,,,,,,,,,,,,,,,,,,,,,,,,,,,,,,,,,,,,,,,,,,,196.14133395800036,203.42279904700035,,,,,,,,,,,,,,,,,,,,,,,,,,,,,,,,,,,,,,,,,,,,,,,,,,,,,,,,,,,,,,,,,,030722,1,3,1,2,1,1,2,0,56,2022_Mar_07_1323,listening_fmri,3.2.4,59.96611386857624,
0,parcelated_audio/14/14_32.ogg,,,,,,,,,0,0,0,0,0,0,0,0,0,0,0,0,,,,,,,,,0,0,0,0,0,31,31,31,,,,,,,,,,,,,,,,,,,,,,,,,,,,,,,,,,,,,,,,,,,,203.4231591570001,210.57364864600004,,,,,,,,,,,,,,,,,,,,,,,,,,,,,,,,,,,,,,,,,,,,,,,,,,,,,,,,,,,,,,,,,,030722,1,3,1,2,1,1,2,0,56,2022_Mar_07_1323,listening_fmri,3.2.4,59.96611386857624,
0,parcelated_audio/14/14_33.ogg,,,,,,,,,0,0,0,0,0,0,0,0,0,0,0,0,,,,,,,,,0,0,0,0,0,32,32,32,,,,,,,,,,,,,,,,,,,,,,,,,,,,,,,,,,,,,,,,,,,,210.5742671930002,217.13473322300024,,,,,,,,,,,,,,,,,,,,,,,,,,,,,,,,,,,,,,,,,,,,,,,,,,,,,,,,,,,,,,,,,,030722,1,3,1,2,1,1,2,0,56,2022_Mar_07_1323,listening_fmri,3.2.4,59.96611386857624,
0,,,,,,,,,,0,0,0,0,0,0,0,0,0,0,0,0,,,,,,,,,0,0,0,0,,,,,,,,,,,,,,,,,,,,,,,,,,,,,,,,,,,,,,,,,,,,,,,,,,,,,,,,,,,,,,,,,,,,,,,,,,,,,,,,,,,,,,,,,,,,,,,,,,,,,,,,,,,,,,,,,,,030722,1,3,1,2,1,1,2,0,56,2022_Mar_07_1323,listening_fmri,3.2.4,59.96611386857624,
0,,,,,,,,,,0,0,0,0,0,0,0,0,0,0,0,0,,,,,,,,,,,,,,,,,,,,,,,,,,,,,,,,,,,,,,217.13529258200015,223.132334592,289.86178781599983,None,,,,,,,,,,,,,,,,,,,,,295.86209367799984,None,295.86209367799984,None,,,,,,,,,,,,,,,,,,,,,,,,,,,,,,,,,,,,,,,,,,,,,,,,,,,,,,,,,,,,,,030722,1,3,1,2,1,1,2,0,56,2022_Mar_07_1323,listening_fmri,3.2.4,59.96611386857624,
0,,,,,,,,,,0,0,0,0,0,0,0,0,,,,,,,,,,,,,,,,,,,,,,,,,,,,,,,,,,,,,,,,,,,,,,,,,,,,,,,,,,,,,,,,,,,,,,,,,,,,,,,,,,,,,,,,,,,,,,,,,,,,,,,,,,,,,,,,,,,,,,,,,,,,,,,,,,,030722,1,3,1,2,1,1,2,0,56,2022_Mar_07_1323,listening_fmri,3.2.4,59.96611386857624,
1,,,,,,,,,,0,0,0,0,0,1,1,1,,,,,,,,,,,,,,,,,,,,,,,,,,,,,,,,,,,,,,,,,,,,,,,,,,,,,,,,,,,,,,,,,,,,,,,,,,,,,,,,,,,,,,,,,,,,,,,,,,,,,,,,,,,,,,,,,,,,,,,,,,,,,,,,,,,030722,1,3,1,2,1,1,2,0,56,2022_Mar_07_1323,listening_fmri,3.2.4,59.96611386857624,
2,,,,,,,,,,0,0,0,0,0,2,2,2,0,0,0,0,0,0,0,0,,,,,,,,,,,,,,,,,0,0,0,0,,,,,,,,,,,,,,,,,,296.86167675399975,None,296.86167675399975,None,1,0.9998480630001723,296.86167675399975,None,296.86167675399975,None,,,,,,,,,,,,,,,297.879307834,None,1,1.524219973000072,297.879307834,None,297.879307834,None,299.4622947009998,None,299.4622947009998,None,299.4622947009998,None,1,3.4032526669998333,299.4622947009998,None,302.89498900399985,None,1,3.6086714389998633,302.89498900399985,None,302.89498900399985,None,306.6113147799997,None,306.6113147799997,None,306.6113147799997,None,306.6113147799997,None,306.6113147799997,None,306.6113147799997,None,306.6113147799997,None,None,306.6113147799997,None,,,,,,,,,,,,,,,,,,,030722,1,3,1,2,1,1,2,0,56,2022_Mar_07_1323,listening_fmri,3.2.4,59.96611386857624,
2,,,,,,,,,,0,0,0,0,0,2,2,2,0,0,0,0,0,0,0,0,,,,,,,,,,,,,,,,,1,0,1,0,,,,,,,,,,,,,,,,,,,,,,,,,,,,,,,,,,,,,,,,,,,,,,,,,,314.01213756499965,None,314.01213756499965,None,314.01213756499965,None,1,0.8694693649999863,314.01213756499965,None,314.9117801289999,None,1,0.5967550989998927,314.9117801289999,None,314.9117801289999,None,315.6120908329999,None,315.6120908329999,None,315.6120908329999,None,315.6120908329999,None,315.6120908329999,None,315.6120908329999,None,315.6120908329999,None,None,315.6120908329999,None,,,,,,,,,,,,,,,,,,,030722,1,3,1,2,1,1,2,0,56,2022_Mar_07_1323,listening_fmri,3.2.4,59.96611386857624,
2,,,,,,,,,,0,0,0,0,0,2,2,2,0,0,0,0,0,0,0,0,,,,,,,,,,,,,,,,,,,,,,,,,,,,,,,,,,,,,,,,,,,,,,,,,,,,,,,,,,,,,,,,,,,,,,,,,,,,,,,,,,,,,,,,,,,,,,,,,,,,,,,,,333.6622730269996,None,1,1.9142321030003586,333.6622730269996,None,333.6622730269996,None,335.63057598399973,None,335.63057598399973,None,335.63057598399973,None,1,3.1600745569999162,335.63057598399973,None,030722,1,3,1,2,1,1,2,0,56,2022_Mar_07_1323,listening_fmri,3.2.4,59.96611386857624,
2,parcelated_audio/32/32_1.ogg,,,,,,,,,0,0,0,0,0,2,2,2,0,0,0,0,,,,,,,,,0,0,0,0,0,0,0,0,,,,,,,,,,,,,,,,,,,,,,,,,,,,,,,,,,,,338.81241625699977,None,1,1.3222470460000295,338.81241625699977,None,267.46282068400023,270.46624242000007,270.47177209500023,281.8227438160002,,,,,,,,,,,,,,,,,,,,,,,,,,,,,,,,,,,,,,,,,,,,,,,,,,,,,,,,,,,,,,,,,,030722,1,3,1,2,1,1,2,0,56,2022_Mar_07_1323,listening_fmri,3.2.4,59.96611386857624,
2,parcelated_audio/32/32_2.ogg,,,,,,,,,0,0,0,0,0,2,2,2,0,0,0,0,,,,,,,,,0,0,0,0,0,1,1,1,,,,,,,,,,,,,,,,,,,,,,,,,,,,,,,,,,,,,,,,,,,,281.823195123,290.1367669690003,,,,,,,,,,,,,,,,,,,,,,,,,,,,,,,,,,,,,,,,,,,,,,,,,,,,,,,,,,,,,,,,,,030722,1,3,1,2,1,1,2,0,56,2022_Mar_07_1323,listening_fmri,3.2.4,59.96611386857624,
2,parcelated_audio/32/32_3.ogg,,,,,,,,,0,0,0,0,0,2,2,2,0,0,0,0,,,,,,,,,0,0,0,0,0,2,2,2,,,,,,,,,,,,,,,,,,,,,,,,,,,,,,,,,,,,,,,,,,,,290.1376631160001,295.71321491000026,,,,,,,,,,,,,,,,,,,,,,,,,,,,,,,,,,,,,,,,,,,,,,,,,,,,,,,,,,,,,,,,,,030722,1,3,1,2,1,1,2,0,56,2022_Mar_07_1323,listening_fmri,3.2.4,59.96611386857624,
2,parcelated_audio/32/32_4.ogg,,,,,,,,,0,0,0,0,0,2,2,2,0,0,0,0,,,,,,,,,0,0,0,0,0,3,3,3,,,,,,,,,,,,,,,,,,,,,,,,,,,,,,,,,,,,,,,,,,,,295.71375241700025,302.41171886200027,,,,,,,,,,,,,,,,,,,,,,,,,,,,,,,,,,,,,,,,,,,,,,,,,,,,,,,,,,,,,,,,,,030722,1,3,1,2,1,1,2,0,56,2022_Mar_07_1323,listening_fmri,3.2.4,59.96611386857624,
2,parcelated_audio/32/32_5.ogg,,,,,,,,,0,0,0,0,0,2,2,2,0,0,0,0,,,,,,,,,0,0,0,0,0,4,4,4,,,,,,,,,,,,,,,,,,,,,,,,,,,,,,,,,,,,,,,,,,,,302.412068655,314.0972575730002,,,,,,,,,,,,,,,,,,,,,,,,,,,,,,,,,,,,,,,,,,,,,,,,,,,,,,,,,,,,,,,,,,030722,1,3,1,2,1,1,2,0,56,2022_Mar_07_1323,listening_fmri,3.2.4,59.96611386857624,
2,parcelated_audio/32/32_6.ogg,,,,,,,,,0,0,0,0,0,2,2,2,0,0,0,0,,,,,,,,,0,0,0,0,0,5,5,5,,,,,,,,,,,,,,,,,,,,,,,,,,,,,,,,,,,,,,,,,,,,314.09761148100006,322.56791112500014,,,,,,,,,,,,,,,,,,,,,,,,,,,,,,,,,,,,,,,,,,,,,,,,,,,,,,,,,,,,,,,,,,030722,1,3,1,2,1,1,2,0,56,2022_Mar_07_1323,listening_fmri,3.2.4,59.96611386857624,
2,parcelated_audio/32/32_7.ogg,,,,,,,,,0,0,0,0,0,2,2,2,0,0,0,0,,,,,,,,,0,0,0,0,0,6,6,6,,,,,,,,,,,,,,,,,,,,,,,,,,,,,,,,,,,,,,,,,,,,322.56825953600037,325.94876241600014,,,,,,,,,,,,,,,,,,,,,,,,,,,,,,,,,,,,,,,,,,,,,,,,,,,,,,,,,,,,,,,,,,030722,1,3,1,2,1,1,2,0,56,2022_Mar_07_1323,listening_fmri,3.2.4,59.96611386857624,
2,parcelated_audio/32/32_8.ogg,,,,,,,,,0,0,0,0,0,2,2,2,0,0,0,0,,,,,,,,,0,0,0,0,0,7,7,7,,,,,,,,,,,,,,,,,,,,,,,,,,,,,,,,,,,,,,,,,,,,325.9491144670001,330.425226416,,,,,,,,,,,,,,,,,,,,,,,,,,,,,,,,,,,,,,,,,,,,,,,,,,,,,,,,,,,,,,,,,,030722,1,3,1,2,1,1,2,0,56,2022_Mar_07_1323,listening_fmri,3.2.4,59.96611386857624,
2,parcelated_audio/32/32_9.ogg,,,,,,,,,0,0,0,0,0,2,2,2,0,0,0,0,,,,,,,,,0,0,0,0,0,8,8,8,,,,,,,,,,,,,,,,,,,,,,,,,,,,,,,,,,,,,,,,,,,,330.42567825900005,339.10475095300035,,,,,,,,,,,,,,,,,,,,,,,,,,,,,,,,,,,,,,,,,,,,,,,,,,,,,,,,,,,,,,,,,,030722,1,3,1,2,1,1,2,0,56,2022_Mar_07_1323,listening_fmri,3.2.4,59.96611386857624,
2,parcelated_audio/32/32_10.ogg,,,,,,,,,0,0,0,0,0,2,2,2,0,0,0,0,,,,,,,,,0,0,0,0,0,9,9,9,,,,,,,,,,,,,,,,,,,,,,,,,,,,,,,,,,,,,,,,,,,,339.1053117800002,343.78377588700005,,,,,,,,,,,,,,,,,,,,,,,,,,,,,,,,,,,,,,,,,,,,,,,,,,,,,,,,,,,,,,,,,,030722,1,3,1,2,1,1,2,0,56,2022_Mar_07_1323,listening_fmri,3.2.4,59.96611386857624,
2,parcelated_audio/32/32_11.ogg,,,,,,,,,0,0,0,0,0,2,2,2,0,0,0,0,,,,,,,,,0,0,0,0,0,10,10,10,,,,,,,,,,,,,,,,,,,,,,,,,,,,,,,,,,,,,,,,,,,,343.7843639890002,349.8527283520002,,,,,,,,,,,,,,,,,,,,,,,,,,,,,,,,,,,,,,,,,,,,,,,,,,,,,,,,,,,,,,,,,,030722,1,3,1,2,1,1,2,0,56,2022_Mar_07_1323,listening_fmri,3.2.4,59.96611386857624,
2,parcelated_audio/32/32_12.ogg,,,,,,,,,0,0,0,0,0,2,2,2,0,0,0,0,,,,,,,,,0,0,0,0,0,11,11,11,,,,,,,,,,,,,,,,,,,,,,,,,,,,,,,,,,,,,,,,,,,,349.85612462200015,359.29623548100017,,,,,,,,,,,,,,,,,,,,,,,,,,,,,,,,,,,,,,,,,,,,,,,,,,,,,,,,,,,,,,,,,,030722,1,3,1,2,1,1,2,0,56,2022_Mar_07_1323,listening_fmri,3.2.4,59.96611386857624,
2,parcelated_audio/32/32_13.ogg,,,,,,,,,0,0,0,0,0,2,2,2,0,0,0,0,,,,,,,,,0,0,0,0,0,12,12,12,,,,,,,,,,,,,,,,,,,,,,,,,,,,,,,,,,,,,,,,,,,,359.29658671000016,368.90539134300025,,,,,,,,,,,,,,,,,,,,,,,,,,,,,,,,,,,,,,,,,,,,,,,,,,,,,,,,,,,,,,,,,,030722,1,3,1,2,1,1,2,0,56,2022_Mar_07_1323,listening_fmri,3.2.4,59.96611386857624,
2,parcelated_audio/32/32_14.ogg,,,,,,,,,0,0,0,0,0,2,2,2,0,0,0,0,,,,,,,,,0,0,0,0,0,13,13,13,,,,,,,,,,,,,,,,,,,,,,,,,,,,,,,,,,,,,,,,,,,,368.9058105510003,376.97071799000014,,,,,,,,,,,,,,,,,,,,,,,,,,,,,,,,,,,,,,,,,,,,,,,,,,,,,,,,,,,,,,,,,,030722,1,3,1,2,1,1,2,0,56,2022_Mar_07_1323,listening_fmri,3.2.4,59.96611386857624,
2,parcelated_audio/32/32_15.ogg,,,,,,,,,0,0,0,0,0,2,2,2,0,0,0,0,,,,,,,,,0,0,0,0,0,14,14,14,,,,,,,,,,,,,,,,,,,,,,,,,,,,,,,,,,,,,,,,,,,,376.971282127,383.8518012450004,,,,,,,,,,,,,,,,,,,,,,,,,,,,,,,,,,,,,,,,,,,,,,,,,,,,,,,,,,,,,,,,,,030722,1,3,1,2,1,1,2,0,56,2022_Mar_07_1323,listening_fmri,3.2.4,59.96611386857624,
2,parcelated_audio/32/32_16.ogg,,,,,,,,,0,0,0,0,0,2,2,2,0,0,0,0,,,,,,,,,0,0,0,0,0,15,15,15,,,,,,,,,,,,,,,,,,,,,,,,,,,,,,,,,,,,,,,,,,,,383.8521609090003,391.468711813,,,,,,,,,,,,,,,,,,,,,,,,,,,,,,,,,,,,,,,,,,,,,,,,,,,,,,,,,,,,,,,,,,030722,1,3,1,2,1,1,2,0,56,2022_Mar_07_1323,listening_fmri,3.2.4,59.96611386857624,
2,parcelated_audio/32/32_17.ogg,,,,,,,,,0,0,0,0,0,2,2,2,0,0,0,0,,,,,,,,,0,0,0,0,0,16,16,16,,,,,,,,,,,,,,,,,,,,,,,,,,,,,,,,,,,,,,,,,,,,391.4690686220001,399.7688086840003,,,,,,,,,,,,,,,,,,,,,,,,,,,,,,,,,,,,,,,,,,,,,,,,,,,,,,,,,,,,,,,,,,030722,1,3,1,2,1,1,2,0,56,2022_Mar_07_1323,listening_fmri,3.2.4,59.96611386857624,
2,parcelated_audio/32/32_18.ogg,,,,,,,,,0,0,0,0,0,2,2,2,0,0,0,0,,,,,,,,,0,0,0,0,0,17,17,17,,,,,,,,,,,,,,,,,,,,,,,,,,,,,,,,,,,,,,,,,,,,399.7691544410004,404.161314038,,,,,,,,,,,,,,,,,,,,,,,,,,,,,,,,,,,,,,,,,,,,,,,,,,,,,,,,,,,,,,,,,,030722,1,3,1,2,1,1,2,0,56,2022_Mar_07_1323,listening_fmri,3.2.4,59.96611386857624,
2,parcelated_audio/32/32_19.ogg,,,,,,,,,0,0,0,0,0,2,2,2,0,0,0,0,,,,,,,,,0,0,0,0,0,18,18,18,,,,,,,,,,,,,,,,,,,,,,,,,,,,,,,,,,,,,,,,,,,,404.16167602400037,412.2039735100002,,,,,,,,,,,,,,,,,,,,,,,,,,,,,,,,,,,,,,,,,,,,,,,,,,,,,,,,,,,,,,,,,,030722,1,3,1,2,1,1,2,0,56,2022_Mar_07_1323,listening_fmri,3.2.4,59.96611386857624,
