instructText,count,trials_5.thisRepN,trials_5.thisTrialN,trials_5.thisN,trials_5.thisIndex,trials_6.thisRepN,trials_6.thisTrialN,trials_6.thisN,trials_6.thisIndex,trials.thisRepN,trials.thisTrialN,trials.thisN,trials.thisIndex,trials_8.thisRepN,trials_8.thisTrialN,trials_8.thisN,trials_8.thisIndex,story_list_block1,action_list_block1,story_list_block2,action_list_block2,key_resp_3.keys,key_resp_3.rt,key_resp_3.started,key_resp_3.stopped,text_13.started,text_13.stopped,text_23.started,text_23.stopped,text_43.started,text_43.stopped,key_resp_11.keys,key_resp_11.rt,key_resp_11.started,key_resp_11.stopped,text_44.started,text_44.stopped,text_53.started,text_53.stopped,image_10.started,image_10.stopped,text_22.started,text_22.stopped,recall,question1_answer,order of question,text_14.started,text_14.stopped,text_15.started,text_15.stopped,image_6.started,image_6.stopped,polygon_3.started,polygon_3.stopped,bottom_line_3.started,bottom_line_3.stopped,right_line_3.started,right_line_3.stopped,left_line_3.started,left_line_3.stopped,question2_answer,text_16.started,text_16.stopped,text_17.started,text_17.stopped,image_7.started,image_7.stopped,polygon_4.started,polygon_4.stopped,bottom_line_4.started,bottom_line_4.stopped,right_line_4.started,right_line_4.stopped,left_line_4.started,left_line_4.stopped,question3_answer,text_18.started,text_18.stopped,text_19.started,text_19.stopped,image_8.started,image_8.stopped,polygon_5.started,polygon_5.stopped,bottom_line_5.started,bottom_line_5.stopped,right_line_5.started,right_line_5.stopped,left_line_5.started,left_line_5.stopped,question4_answer,text_20.started,text_20.stopped,text_21.started,text_21.stopped,image_9.started,image_9.stopped,polygon_6.started,polygon_6.stopped,bottom_line_6.started,bottom_line_6.stopped,right_line_6.started,right_line_6.stopped,left_line_6.started,left_line_6.stopped,question5_answer,text_25.started,text_25.stopped,text_26.started,text_26.stopped,image_11.started,image_11.stopped,polygon_7.started,polygon_7.stopped,bottom_line_7.started,bottom_line_7.stopped,right_line_7.started,right_line_7.stopped,left_line_7.started,left_line_7.stopped,question6_answer,text_27.started,text_27.stopped,text_28.started,text_28.stopped,image_12.started,image_12.stopped,polygon_8.started,polygon_8.stopped,bottom_line_8.started,bottom_line_8.stopped,right_line_8.started,right_line_8.stopped,left_line_8.started,left_line_8.stopped,question7_answer,text_29.started,text_29.stopped,text_30.started,text_30.stopped,image_13.started,image_13.stopped,polygon_9.started,polygon_9.stopped,bottom_line_9.started,bottom_line_9.stopped,right_line_9.started,right_line_9.stopped,left_line_9.started,left_line_9.stopped,question8_answer,text_31.started,text_31.stopped,text_32.started,text_32.stopped,image_14.started,image_14.stopped,polygon_10.started,polygon_10.stopped,bottom_line_10.started,bottom_line_10.stopped,right_line_10.started,right_line_10.stopped,left_line_10.started,left_line_10.stopped,text_36.started,text_36.stopped,participant,sA,sB,lA,lB,block_struct,random_seed,date,expName,psychopyVersion,frameRate,
"In the final part of the experiment, please answer 8 questions about each story.",,0,0,0,0,,,,,,,,,,,,,[13 44 42 24 22 11 31 33],[2 1 3 1 3 4 4 2],[14 23 32 21 12 34 41 43],[4 3 2 1 2 4 1 3],space,4.0349978200001715,6.495268140999542,None,6.495268140999542,None,6.495268140999542,None,,,,,,,,,,,,,,,,,,,,,,,,,,,,,,,,,,,,,,,,,,,,,,,,,,,,,,,,,,,,,,,,,,,,,,,,,,,,,,,,,,,,,,,,,,,,,,,,,,,,,,,,,,,,,,,,,,,,,,,,,,,,,,,,,,,,,,,,,,,030722,1,3,1,2,1,56,2022_Mar_07_1421,short_answer,3.2.4,60.32243038783524,
"We did not tell you to think of all or some of these questions during the story, but please do your best to answer them.",,0,1,1,1,,,,,,,,,,,,,,,,,space,5.373029758000484,10.577635848999307,None,10.577635848999307,None,10.577635848999307,None,,,,,,,,,,,,,,,,,,,,,,,,,,,,,,,,,,,,,,,,,,,,,,,,,,,,,,,,,,,,,,,,,,,,,,,,,,,,,,,,,,,,,,,,,,,,,,,,,,,,,,,,,,,,,,,,,,,,,,,,,,,,,,,,,,,,,,,,,,,030722,1,3,1,2,1,56,2022_Mar_07_1421,short_answer,3.2.4,60.32243038783524,
"Answer as much as you remember, and be specific and concrete in your answers. It is best to try to be as faithful as possible to what the story actually said.
",,0,2,2,2,,,,,,,,,,,,,,,,,space,8.009556302999954,15.993977531999917,None,15.993977531999917,None,15.993977531999917,None,,,,,,,,,,,,,,,,,,,,,,,,,,,,,,,,,,,,,,,,,,,,,,,,,,,,,,,,,,,,,,,,,,,,,,,,,,,,,,,,,,,,,,,,,,,,,,,,,,,,,,,,,,,,,,,,,,,,,,,,,,,,,,,,,,,,,,,,,,,030722,1,3,1,2,1,56,2022_Mar_07_1421,short_answer,3.2.4,60.32243038783524,
"When you have finished typing your answer, hit ‘return’ to submit your answer and move onto the next question. ",,0,3,3,3,,,,,,,,,,,,,,,,,space,12.32837614500022,24.044972112999858,None,24.044972112999858,None,24.044972112999858,None,,,,,,,,,,,,,,,,,,,,,,,,,,,,,,,,,,,,,,,,,,,,,,,,,,,,,,,,,,,,,,,,,,,,,,,,,,,,,,,,,,,,,,,,,,,,,,,,,,,,,,,,,,,,,,,,,,,,,,,,,,,,,,,,,,,,,,,,,,,030722,1,3,1,2,1,56,2022_Mar_07_1421,short_answer,3.2.4,60.32243038783524,
,0,,,,,0,0,0,0,0,0,0,0,,,,,,,,,,,,,,,,,36.41191333799998,None,space,17.54296304699983,36.41191333799998,None,36.41191333799998,None,36.41191333799998,None,54.04522499399991,None,54.04522499399991,None,$30 paid on emmanuella's credit card,Three months,"[1, 2]",55.69526619899989,None,55.69526619899989,None,55.69526619899989,None,55.69526619899989,None,55.69526619899989,None,55.69526619899989,None,55.69526619899989,None,"They fight so often, prompted by his never assisting her in cooking",80.36005664999993,None,80.36005664999993,None,80.36005664999993,None,80.36005664999993,None,80.36005664999993,None,80.36005664999993,None,80.36005664999993,None,Liam agrees that it is best to break up because the couple fights so often,153.4274314059994,None,153.4274314059994,None,153.4274314059994,None,153.4274314059994,None,153.4274314059994,None,153.4274314059994,None,153.4274314059994,None,"Two sets of something, polaroid comes to mind",177.6432628069997,None,177.6432628069997,None,177.6432628069997,None,177.6432628069997,None,177.6432628069997,None,177.6432628069997,None,177.6432628069997,None,"Smells of lavendar, open",224.49283796599957,None,224.49283796599957,None,224.49283796599957,None,224.49283796599957,None,224.49283796599957,None,224.49283796599957,None,224.49283796599957,None,"$30 worth of items, pasta",238.6256805819994,None,238.6256805819994,None,238.6256805819994,None,238.6256805819994,None,238.6256805819994,None,238.6256805819994,None,238.6256805819994,None,They step into lane two but i don't remember which are open,259.62564604899944,None,259.62564604899944,None,259.62564604899944,None,259.62564604899944,None,259.62564604899944,None,259.62564604899944,None,259.62564604899944,None,$30 paid on emmanuella's credit card,290.20871409699976,None,290.20871409699976,None,290.20871409699976,None,290.20871409699976,None,290.20871409699976,None,290.20871409699976,None,290.20871409699976,None,,,030722,1,3,1,2,1,56,2022_Mar_07_1421,short_answer,3.2.4,60.32243038783524,
,0,,,,,0,0,0,0,,,,,,,,,,,,,,,,,,,,,,,,,,,,,,,,,,,,,,,,,,,,,,,,,,,,,,,,,,,,,,,,,,,,,,,,,,,,,,,,,,,,,,,,,,,,,,,,,,,,,,,,,,,,,,,,,,,,,,,,,,,,,,,,,,,,,,,,,,,,,,,,,,,,,,,,,,,,,,,030722,1,3,1,2,1,56,2022_Mar_07_1421,short_answer,3.2.4,60.32243038783524,
,1,,,,,0,1,1,1,0,0,0,0,,,,,,,,,,,,,,,,,306.6244861899995,None,space,1.592862475000402,306.6244861899995,None,306.6244861899995,None,306.6244861899995,None,308.25810456399995,None,308.25810456399995,None,I think a paper due next tuesday,An eraser which he then drops,"[1, 2]",309.7423273349996,None,309.7423273349996,None,309.7423273349996,None,309.7423273349996,None,309.7423273349996,None,309.7423273349996,None,309.7423273349996,None,I think one recognizes the other,335.191769217,None,335.191769217,None,335.191769217,None,335.191769217,None,335.191769217,None,335.191769217,None,335.191769217,None,,351.6909652179993,None,351.6909652179993,None,351.6909652179993,None,351.6909652179993,None,351.6909652179993,None,351.6909652179993,None,351.6909652179993,None,"I remember the time being said but not registering in the monent wha tthe time was; i thought noon or four as the time, some sort of one-syllabic number",361.7572820739997,None,361.7572820739997,None,361.7572820739997,None,361.7572820739997,None,361.7572820739997,None,361.7572820739997,None,361.7572820739997,None,There are colorful desks and chalkboards,430.0237203309998,None,430.0237203309998,None,430.0237203309998,None,430.0237203309998,None,430.0237203309998,None,430.0237203309998,None,430.0237203309998,None,,469.0570807389995,None,469.0570807389995,None,469.0570807389995,None,469.0570807389995,None,469.0570807389995,None,469.0570807389995,None,469.0570807389995,None,,486.306376042,None,486.306376042,None,486.306376042,None,486.306376042,None,486.306376042,None,486.306376042,None,486.306376042,None,I think a paper due next tuesday,491.04012650000004,None,491.04012650000004,None,491.04012650000004,None,491.04012650000004,None,491.04012650000004,None,491.04012650000004,None,491.04012650000004,None,,,030722,1,3,1,2,1,56,2022_Mar_07_1421,short_answer,3.2.4,60.32243038783524,
,1,,,,,0,1,1,1,,,,,,,,,,,,,,,,,,,,,,,,,,,,,,,,,,,,,,,,,,,,,,,,,,,,,,,,,,,,,,,,,,,,,,,,,,,,,,,,,,,,,,,,,,,,,,,,,,,,,,,,,,,,,,,,,,,,,,,,,,,,,,,,,,,,,,,,,,,,,,,,,,,,,,,,,,,,,,,030722,1,3,1,2,1,56,2022_Mar_07_1421,short_answer,3.2.4,60.32243038783524,
,2,,,,,0,2,2,2,,,,,,,,,,,,,,,,,,,,,,,,,,,,,,,,,,,,,,,,,,,,,,,,,,,,,,,,,,,,,,,,,,,,,,,,,,,,,,,,,,,,,,,,,,,,,,,,,,,,,,,,,,,,,,,,,,,,,,,,,,,,,,,,,,,,,,,,,,,,,,,,,,,,,,,,,,,,,,,030722,1,3,1,2,1,56,2022_Mar_07_1421,short_answer,3.2.4,60.32243038783524,
,3,,,,,0,3,3,3,0,0,0,0,,,,,,,,,,,,,,,,,515.3715602729999,None,space,1.2486797109995678,515.3715602729999,None,515.3715602729999,None,515.3715602729999,None,516.6558548759995,None,516.6558548759995,None,Her sister,Chemistry lecture hall with desks and presentation area for a slideshow,"[2, 1]",517.7228975239996,None,517.7228975239996,None,517.7228975239996,None,517.7228975239996,None,517.7228975239996,None,517.7228975239996,None,517.7228975239996,None,"Chemistry, ionic bonds",552.0550810260002,None,552.0550810260002,None,552.0550810260002,None,552.0550810260002,None,552.0550810260002,None,552.0550810260002,None,552.0550810260002,None,Some c-named chemical/compound and its ionic bond,561.4715415370001,None,561.4715415370001,None,561.4715415370001,None,561.4715415370001,None,561.4715415370001,None,561.4715415370001,None,561.4715415370001,None,,587.0388424479997,None,587.0388424479997,None,587.0388424479997,None,587.0388424479997,None,587.0388424479997,None,587.0388424479997,None,587.0388424479997,None,,592.0054176929998,None,592.0054176929998,None,592.0054176929998,None,592.0054176929998,None,592.0054176929998,None,592.0054176929998,None,592.0054176929998,None,5 diamonds in a bright red,615.7046364419994,None,615.7046364419994,None,615.7046364419994,None,615.7046364419994,None,615.7046364419994,None,615.7046364419994,None,615.7046364419994,None,Aaron presents the ring,627.1550071969996,None,627.1550071969996,None,627.1550071969996,None,627.1550071969996,None,627.1550071969996,None,627.1550071969996,None,627.1550071969996,None,Her sister,656.2866827019998,None,656.2866827019998,None,656.2866827019998,None,656.2866827019998,None,656.2866827019998,None,656.2866827019998,None,656.2866827019998,None,,,030722,1,3,1,2,1,56,2022_Mar_07_1421,short_answer,3.2.4,60.32243038783524,
,3,,,,,0,3,3,3,,,,,,,,,,,,,,,,,,,,,,,,,,,,,,,,,,,,,,,,,,,,,,,,,,,,,,,,,,,,,,,,,,,,,,,,,,,,,,,,,,,,,,,,,,,,,,,,,,,,,,,,,,,,,,,,,,,,,,,,,,,,,,,,,,,,,,,,,,,,,,,,,,,,,,,,,,,,,,,030722,1,3,1,2,1,56,2022_Mar_07_1421,short_answer,3.2.4,60.32243038783524,
,4,,,,,0,4,4,4,,,,,,,,,,,,,,,,,,,,,,,,,,,,,,,,,,,,,,,,,,,,,,,,,,,,,,,,,,,,,,,,,,,,,,,,,,,,,,,,,,,,,,,,,,,,,,,,,,,,,,,,,,,,,,,,,,,,,,,,,,,,,,,,,,,,,,,,,,,,,,,,,,,,,,,,,,,,,,,030722,1,3,1,2,1,56,2022_Mar_07_1421,short_answer,3.2.4,60.32243038783524,
,5,,,,,0,5,5,5,0,0,0,0,,,,,,,,,,,,,,,,,662.6534289539995,None,space,1.077555974000461,662.6534289539995,None,662.6534289539995,None,662.6534289539995,None,663.769820517,None,663.769820517,None,I think they intially bothed enjoyed it and then only thomas enjoys the food,,"[1, 2]",665.2543255729997,None,665.2543255729997,None,665.2543255729997,None,665.2543255729997,None,665.2543255729997,None,665.2543255729997,None,665.2543255729997,None,,670.6380024229993,None,670.6380024229993,None,670.6380024229993,None,670.6380024229993,None,670.6380024229993,None,670.6380024229993,None,670.6380024229993,None,,674.8884793759999,None,674.8884793759999,None,674.8884793759999,None,674.8884793759999,None,674.8884793759999,None,674.8884793759999,None,674.8884793759999,None,,682.8869496569996,None,682.8869496569996,None,682.8869496569996,None,682.8869496569996,None,682.8869496569996,None,682.8869496569996,None,682.8869496569996,None,,689.2875645849999,None,689.2875645849999,None,689.2875645849999,None,689.2875645849999,None,689.2875645849999,None,689.2875645849999,None,689.2875645849999,None,,700.0535098279997,None,700.0535098279997,None,700.0535098279997,None,700.0535098279997,None,700.0535098279997,None,700.0535098279997,None,700.0535098279997,None,"I can't quite remember if this was the japanese restaraunt, but if so they each ordered two rolls where one person ordered a fish roll and a vegetable roll",702.4544917650001,None,702.4544917650001,None,702.4544917650001,None,702.4544917650001,None,702.4544917650001,None,702.4544917650001,None,702.4544917650001,None,I think they intially bothed enjoyed it and then only thomas enjoys the food,792.5526853619995,None,792.5526853619995,None,792.5526853619995,None,792.5526853619995,None,792.5526853619995,None,792.5526853619995,None,792.5526853619995,None,,,030722,1,3,1,2,1,56,2022_Mar_07_1421,short_answer,3.2.4,60.32243038783524,
,5,,,,,0,5,5,5,,,,,,,,,,,,,,,,,,,,,,,,,,,,,,,,,,,,,,,,,,,,,,,,,,,,,,,,,,,,,,,,,,,,,,,,,,,,,,,,,,,,,,,,,,,,,,,,,,,,,,,,,,,,,,,,,,,,,,,,,,,,,,,,,,,,,,,,,,,,,,,,,,,,,,,,,,,,,,,030722,1,3,1,2,1,56,2022_Mar_07_1421,short_answer,3.2.4,60.32243038783524,
,6,,,,,0,6,6,6,0,0,0,0,,,,,,,,,,,,,,,,,851.884324783,None,space,0.9769258859996626,851.884324783,None,851.884324783,None,851.884324783,None,852.9013194869995,None,852.9013194869995,None,A hug,"Nice, upperscale but casual","[2, 1]",854.3013867589998,None,854.3013867589998,None,854.3013867589998,None,854.3013867589998,None,854.3013867589998,None,854.3013867589998,None,854.3013867589998,None,,867.2671876269997,None,867.2671876269997,None,867.2671876269997,None,867.2671876269997,None,867.2671876269997,None,867.2671876269997,None,867.2671876269997,None,,869.4180628569993,None,869.4180628569993,None,869.4180628569993,None,869.4180628569993,None,869.4180628569993,None,869.4180628569993,None,869.4180628569993,None,,871.6687940619995,None,871.6687940619995,None,871.6687940619995,None,871.6687940619995,None,871.6687940619995,None,871.6687940619995,None,871.6687940619995,None,"Saome sort of corporate position, akin to an executive",912.4848665479994,None,912.4848665479994,None,912.4848665479994,None,912.4848665479994,None,912.4848665479994,None,912.4848665479994,None,912.4848665479994,None,,936.3511191099997,None,936.3511191099997,None,936.3511191099997,None,936.3511191099997,None,936.3511191099997,None,936.3511191099997,None,936.3511191099997,None,,946.5844450539998,None,946.5844450539998,None,946.5844450539998,None,946.5844450539998,None,946.5844450539998,None,946.5844450539998,None,946.5844450539998,None,A hug,950.4677958229995,None,950.4677958229995,None,950.4677958229995,None,950.4677958229995,None,950.4677958229995,None,950.4677958229995,None,950.4677958229995,None,,,030722,1,3,1,2,1,56,2022_Mar_07_1421,short_answer,3.2.4,60.32243038783524,
,6,,,,,0,6,6,6,,,,,,,,,,,,,,,,,,,,,,,,,,,,,,,,,,,,,,,,,,,,,,,,,,,,,,,,,,,,,,,,,,,,,,,,,,,,,,,,,,,,,,,,,,,,,,,,,,,,,,,,,,,,,,,,,,,,,,,,,,,,,,,,,,,,,,,,,,,,,,,,,,,,,,,,,,,,,,,030722,1,3,1,2,1,56,2022_Mar_07_1421,short_answer,3.2.4,60.32243038783524,
,7,,,,,0,7,7,7,0,0,0,0,,,,,,,,,,,,,,,,,955.7832103229994,None,space,1.1289108609998948,955.7832103229994,None,955.7832103229994,None,955.7832103229994,None,956.9502431179999,None,956.9502431179999,None,,,"[1, 2]",958.4835512889995,None,958.4835512889995,None,958.4835512889995,None,958.4835512889995,None,958.4835512889995,None,958.4835512889995,None,958.4835512889995,None,,961.4014119519998,None,961.4014119519998,None,961.4014119519998,None,961.4014119519998,None,961.4014119519998,None,961.4014119519998,None,961.4014119519998,None,,963.4007892849995,None,963.4007892849995,None,963.4007892849995,None,963.4007892849995,None,963.4007892849995,None,963.4007892849995,None,963.4007892849995,None,,965.3844801259993,None,965.3844801259993,None,965.3844801259993,None,965.3844801259993,None,965.3844801259993,None,965.3844801259993,None,965.3844801259993,None,,968.2515189770002,None,968.2515189770002,None,968.2515189770002,None,968.2515189770002,None,968.2515189770002,None,968.2515189770002,None,968.2515189770002,None,Cheese,976.0339907739999,None,976.0339907739999,None,976.0339907739999,None,976.0339907739999,None,976.0339907739999,None,976.0339907739999,None,976.0339907739999,None,,984.7510999030001,None,984.7510999030001,None,984.7510999030001,None,984.7510999030001,None,984.7510999030001,None,984.7510999030001,None,984.7510999030001,None,,992.5842757259998,None,992.5842757259998,None,992.5842757259998,None,992.5842757259998,None,992.5842757259998,None,992.5842757259998,None,992.5842757259998,None,,,030722,1,3,1,2,1,56,2022_Mar_07_1421,short_answer,3.2.4,60.32243038783524,
,7,,,,,0,7,7,7,,,,,,,,,,,,,,,,,,,,,,,,,,,,,,,,,,,,,,,,,,,,,,,,,,,,,,,,,,,,,,,,,,,,,,,,,,,,,,,,,,,,,,,,,,,,,,,,,,,,,,,,,,,,,,,,,,,,,,,,,,,,,,,,,,,,,,,,,,,,,,,,,,,,,,,,,,,,,,,030722,1,3,1,2,1,56,2022_Mar_07_1421,short_answer,3.2.4,60.32243038783524,
,8,,,,,0,8,8,8,0,0,0,0,,,,,,,,,,,,,,,,,998.5165208489998,None,space,19.57503306200033,998.5165208489998,None,998.5165208489998,None,998.5165208489998,None,1018.1328238429996,None,1018.1328238429996,None,Maria wants her alpaca sweater which she left at henry's place,,"[2, 1]",1019.4159090869998,None,1019.4159090869998,None,1019.4159090869998,None,1019.4159090869998,None,1019.4159090869998,None,1019.4159090869998,None,1019.4159090869998,None,Some sort of archaeology/art history lecture,1051.4990532539996,None,1051.4990532539996,None,1051.4990532539996,None,1051.4990532539996,None,1051.4990532539996,None,1051.4990532539996,None,1051.4990532539996,None,,1082.8494177069997,None,1082.8494177069997,None,1082.8494177069997,None,1082.8494177069997,None,1082.8494177069997,None,1082.8494177069997,None,1082.8494177069997,None,The final exam is the following week but the professor is open to changing the exam time on an individual basis for students who need ,1086.065726281,None,1086.065726281,None,1086.065726281,None,1086.065726281,None,1086.065726281,None,1086.065726281,None,1086.065726281,None,"For some time, but it seems to be much more of a lingering inevitable feeling rather than something deeper",1164.4979843419997,None,1164.4979843419997,None,1164.4979843419997,None,1164.4979843419997,None,1164.4979843419997,None,1164.4979843419997,None,1164.4979843419997,None,Its the end of term and maria does not want to do long distance as she thinks it is too difficult,1210.2645820179996,None,1210.2645820179996,None,1210.2645820179996,None,1210.2645820179996,None,1210.2645820179996,None,1210.2645820179996,None,1210.2645820179996,None,Henry does not want to break up because he does not want to be without her or for her ,1228.463871987,None,1228.463871987,None,1228.463871987,None,1228.463871987,None,1228.463871987,None,1228.463871987,None,1228.463871987,None,Maria wants her alpaca sweater which she left at henry's place,1267.3634433339994,None,1267.3634433339994,None,1267.3634433339994,None,1267.3634433339994,None,1267.3634433339994,None,1267.3634433339994,None,1267.3634433339994,None,,,030722,1,3,1,2,1,56,2022_Mar_07_1421,short_answer,3.2.4,60.32243038783524,
,8,,,,,0,8,8,8,,,,,,,,,,,,,,,,,,,,,,,,,,,,,,,,,,,,,,,,,,,,,,,,,,,,,,,,,,,,,,,,,,,,,,,,,,,,,,,,,,,,,,,,,,,,,,,,,,,,,,,,,,,,,,,,,,,,,,,,,,,,,,,,,,,,,,,,,,,,,,,,,,,,,,,,,,,,,,,030722,1,3,1,2,1,56,2022_Mar_07_1421,short_answer,3.2.4,60.32243038783524,
,9,,,,,0,9,9,9,,,,,,,,,,,,,,,,,,,,,,,,,,,,,,,,,,,,,,,,,,,,,,,,,,,,,,,,,,,,,,,,,,,,,,,,,,,,,,,,,,,,,,,,,,,,,,,,,,,,,,,,,,,,,,,,,,,,,,,,,,,,,,,,,,,,,,,,,,,,,,,,,,,,,,,,,,,,,,,030722,1,3,1,2,1,56,2022_Mar_07_1421,short_answer,3.2.4,60.32243038783524,
,10,,,,,0,10,10,10,0,0,0,0,,,,,,,,,,,,,,,,,1304.0456919999997,None,space,0.9414236749998963,1304.0456919999997,None,1304.0456919999997,None,1304.0456919999997,None,1305.029779824,None,1305.029779824,None,, ,"[2, 1]",1306.0132082949995,None,1306.0132082949995,None,1306.0132082949995,None,1306.0132082949995,None,1306.0132082949995,None,1306.0132082949995,None,1306.0132082949995,None,,1315.04585908,None,1315.04585908,None,1315.04585908,None,1315.04585908,None,1315.04585908,None,1315.04585908,None,1315.04585908,None,,1318.429974748,None,1318.429974748,None,1318.429974748,None,1318.429974748,None,1318.429974748,None,1318.429974748,None,1318.429974748,None,,1327.229409873,None,1327.229409873,None,1327.229409873,None,1327.229409873,None,1327.229409873,None,1327.229409873,None,1327.229409873,None,,1329.462680734,None,1329.462680734,None,1329.462680734,None,1329.462680734,None,1329.462680734,None,1329.462680734,None,1329.462680734,None,,1332.1963710229993,None,1332.1963710229993,None,1332.1963710229993,None,1332.1963710229993,None,1332.1963710229993,None,1332.1963710229993,None,1332.1963710229993,None,,1333.8628409459998,None,1333.8628409459998,None,1333.8628409459998,None,1333.8628409459998,None,1333.8628409459998,None,1333.8628409459998,None,1333.8628409459998,None,,1336.5292574710002,None,1336.5292574710002,None,1336.5292574710002,None,1336.5292574710002,None,1336.5292574710002,None,1336.5292574710002,None,1336.5292574710002,None,,,030722,1,3,1,2,1,56,2022_Mar_07_1421,short_answer,3.2.4,60.32243038783524,
,10,,,,,0,10,10,10,,,,,,,,,,,,,,,,,,,,,,,,,,,,,,,,,,,,,,,,,,,,,,,,,,,,,,,,,,,,,,,,,,,,,,,,,,,,,,,,,,,,,,,,,,,,,,,,,,,,,,,,,,,,,,,,,,,,,,,,,,,,,,,,,,,,,,,,,,,,,,,,,,,,,,,,,,,,,,,030722,1,3,1,2,1,56,2022_Mar_07_1421,short_answer,3.2.4,60.32243038783524,
,11,,,,,0,11,11,11,0,0,0,0,,,,,,,,,,,,,,,,,1342.0458389429996,None,space,2.973092530000031,1342.0458389429996,None,1342.0458389429996,None,1342.0458389429996,None,1345.0614103389998,None,1345.0614103389998,None,Her father,Very nice and classy,"[2, 1]",1346.296225694,None,1346.296225694,None,1346.296225694,None,1346.296225694,None,1346.296225694,None,1346.296225694,None,1346.296225694,None,Fancy,1364.811601669,None,1364.811601669,None,1364.811601669,None,1364.811601669,None,1364.811601669,None,1364.811601669,None,1364.811601669,None,"Oysters, i think",1370.3126175339994,None,1370.3126175339994,None,1370.3126175339994,None,1370.3126175339994,None,1370.3126175339994,None,1370.3126175339994,None,1370.3126175339994,None,Both people really like the food and alvira comments that the meal is too nice to celebrate her tomato harvest,1382.4284027079993,None,1382.4284027079993,None,1382.4284027079993,None,1382.4284027079993,None,1382.4284027079993,None,1382.4284027079993,None,1382.4284027079993,None,,1445.8115649799993,None,1445.8115649799993,None,1445.8115649799993,None,1445.8115649799993,None,1445.8115649799993,None,1445.8115649799993,None,1445.8115649799993,None,3 canary yellow diamonds,1447.9778802599994,None,1447.9778802599994,None,1447.9778802599994,None,1447.9778802599994,None,1447.9778802599994,None,1447.9778802599994,None,1447.9778802599994,None,,1474.9277097209997,None,1474.9277097209997,None,1474.9277097209997,None,1474.9277097209997,None,1474.9277097209997,None,1474.9277097209997,None,1474.9277097209997,None,Her father,1504.1111232929998,None,1504.1111232929998,None,1504.1111232929998,None,1504.1111232929998,None,1504.1111232929998,None,1504.1111232929998,None,1504.1111232929998,None,,,030722,1,3,1,2,1,56,2022_Mar_07_1421,short_answer,3.2.4,60.32243038783524,
,11,,,,,0,11,11,11,,,,,,,,,,,,,,,,,,,,,,,,,,,,,,,,,,,,,,,,,,,,,,,,,,,,,,,,,,,,,,,,,,,,,,,,,,,,,,,,,,,,,,,,,,,,,,,,,,,,,,,,,,,,,,,,,,,,,,,,,,,,,,,,,,,,,,,,,,,,,,,,,,,,,,,,,,,,,,,030722,1,3,1,2,1,56,2022_Mar_07_1421,short_answer,3.2.4,60.32243038783524,
,12,,,,,0,12,12,12,0,0,0,0,,,,,,,,,,,,,,,,,1508.7104828769998,None,space,1.3344689679997828,1508.7104828769998,None,1508.7104828769998,None,1508.7104828769998,None,1510.0938979759994,None,1510.0938979759994,None,"33a, 36f",Throughout the trip and even before the trip,"[1, 2]",1511.4942981529994,None,1511.4942981529994,None,1511.4942981529994,None,1511.4942981529994,None,1511.4942981529994,None,1511.4942981529994,None,1511.4942981529994,None,They are fed up with the others actions and silly antics,1522.994039694,None,1522.994039694,None,1522.994039694,None,1522.994039694,None,1522.994039694,None,1522.994039694,None,1522.994039694,None,"They seem to get defensive when broken up with stating that it should have happened before the trip, he seems a bit upset",1549.8437801310001,None,1549.8437801310001,None,1549.8437801310001,None,1549.8437801310001,None,1549.8437801310001,None,1549.8437801310001,None,1549.8437801310001,None,Jessie ased for items back ,1648.1088002059996,None,1648.1088002059996,None,1648.1088002059996,None,1648.1088002059996,None,1648.1088002059996,None,1648.1088002059996,None,1648.1088002059996,None,45 minutes,1678.1587809960001,None,1678.1587809960001,None,1678.1587809960001,None,1678.1587809960001,None,1678.1587809960001,None,1678.1587809960001,None,1678.1587809960001,None,,1687.3919192409994,None,1687.3919192409994,None,1687.3919192409994,None,1687.3919192409994,None,1687.3919192409994,None,1687.3919192409994,None,1687.3919192409994,None,,1692.2750972589993,None,1692.2750972589993,None,1692.2750972589993,None,1692.2750972589993,None,1692.2750972589993,None,1692.2750972589993,None,1692.2750972589993,None,"33a, 36f",1694.008961652,None,1694.008961652,None,1694.008961652,None,1694.008961652,None,1694.008961652,None,1694.008961652,None,1694.008961652,None,,,030722,1,3,1,2,1,56,2022_Mar_07_1421,short_answer,3.2.4,60.32243038783524,
,12,,,,,0,12,12,12,,,,,,,,,,,,,,,,,,,,,,,,,,,,,,,,,,,,,,,,,,,,,,,,,,,,,,,,,,,,,,,,,,,,,,,,,,,,,,,,,,,,,,,,,,,,,,,,,,,,,,,,,,,,,,,,,,,,,,,,,,,,,,,,,,,,,,,,,,,,,,,,,,,,,,,,,,,,,,,030722,1,3,1,2,1,56,2022_Mar_07_1421,short_answer,3.2.4,60.32243038783524,
,13,,,,,0,13,13,13,0,0,0,0,,,,,,,,,,,,,,,,,1701.1749003879995,None,space,1.217004991000067,1701.1749003879995,None,1701.1749003879995,None,1701.1749003879995,None,1702.4415118359993,None,1702.4415118359993,None,,,"[2, 1]",1705.824659975,None,1705.824659975,None,1705.824659975,None,1705.824659975,None,1705.824659975,None,1705.824659975,None,1705.824659975,None,Classics/archaeology about architecture and augustan impact,1711.3073205829996,None,1711.3073205829996,None,1711.3073205829996,None,1711.3073205829996,None,1711.3073205829996,None,1711.3073205829996,None,1711.3073205829996,None,Augustus caesar impact roman architecture a lot,1766.5739418939993,None,1766.5739418939993,None,1766.5739418939993,None,1766.5739418939993,None,1766.5739418939993,None,1766.5739418939993,None,1766.5739418939993,None, ,1789.1070613029997,None,1789.1070613029997,None,1789.1070613029997,None,1789.1070613029997,None,1789.1070613029997,None,1789.1070613029997,None,1789.1070613029997,None,,1808.7229161300002,None,1808.7229161300002,None,1808.7229161300002,None,1808.7229161300002,None,1808.7229161300002,None,1808.7229161300002,None,1808.7229161300002,None,112k,1820.9400001229997,None,1820.9400001229997,None,1820.9400001229997,None,1820.9400001229997,None,1820.9400001229997,None,1820.9400001229997,None,1820.9400001229997,None,,1842.5563181279995,None,1842.5563181279995,None,1842.5563181279995,None,1842.5563181279995,None,1842.5563181279995,None,1842.5563181279995,None,1842.5563181279995,None,,1845.289883728,None,1845.289883728,None,1845.289883728,None,1845.289883728,None,1845.289883728,None,1845.289883728,None,1845.289883728,None,,,030722,1,3,1,2,1,56,2022_Mar_07_1421,short_answer,3.2.4,60.32243038783524,
,13,,,,,0,13,13,13,,,,,,,,,,,,,,,,,,,,,,,,,,,,,,,,,,,,,,,,,,,,,,,,,,,,,,,,,,,,,,,,,,,,,,,,,,,,,,,,,,,,,,,,,,,,,,,,,,,,,,,,,,,,,,,,,,,,,,,,,,,,,,,,,,,,,,,,,,,,,,,,,,,,,,,,,,,,,,,030722,1,3,1,2,1,56,2022_Mar_07_1421,short_answer,3.2.4,60.32243038783524,
,14,,,,,0,14,14,14,0,0,0,0,,,,,,,,,,,,,,,,,1850.3223900269995,None,space,1.0445159359996978,1850.3223900269995,None,1850.3223900269995,None,1850.3223900269995,None,1851.4055661809998,None,1851.4055661809998,None,',"Bar, japanese theme","[2, 1]",1852.5737366529993,None,1852.5737366529993,None,1852.5737366529993,None,1852.5737366529993,None,1852.5737366529993,None,1852.5737366529993,None,1852.5737366529993,None,,1862.722547624,None,1862.722547624,None,1862.722547624,None,1862.722547624,None,1862.722547624,None,1862.722547624,None,1862.722547624,None,Rolls,1864.1060584509996,None,1864.1060584509996,None,1864.1060584509996,None,1864.1060584509996,None,1864.1060584509996,None,1864.1060584509996,None,1864.1060584509996,None,Enjoy the food a lot,1867.2059906949999,None,1867.2059906949999,None,1867.2059906949999,None,1867.2059906949999,None,1867.2059906949999,None,1867.2059906949999,None,1867.2059906949999,None,,1877.505620979,None,1877.505620979,None,1877.505620979,None,1877.505620979,None,1877.505620979,None,1877.505620979,None,1877.505620979,None,What happened to your foreheadquestion,1897.9051131679998,None,1897.9051131679998,None,1897.9051131679998,None,1897.9051131679998,None,1897.9051131679998,None,1897.9051131679998,None,1897.9051131679998,None,They go to an iundoor concert together,1911.1558808869995,None,1911.1558808869995,None,1911.1558808869995,None,1911.1558808869995,None,1911.1558808869995,None,1911.1558808869995,None,1911.1558808869995,None,',1921.2886494019995,None,1921.2886494019995,None,1921.2886494019995,None,1921.2886494019995,None,1921.2886494019995,None,1921.2886494019995,None,1921.2886494019995,None,,,030722,1,3,1,2,1,56,2022_Mar_07_1421,short_answer,3.2.4,60.32243038783524,
,14,,,,,0,14,14,14,,,,,,,,,,,,,,,,,,,,,,,,,,,,,,,,,,,,,,,,,,,,,,,,,,,,,,,,,,,,,,,,,,,,,,,,,,,,,,,,,,,,,,,,,,,,,,,,,,,,,,,,,,,,,,,,,,,,,,,,,,,,,,,,,,,,,,,,,,,,,,,,,,,,,,,,,,,,,,,030722,1,3,1,2,1,56,2022_Mar_07_1421,short_answer,3.2.4,60.32243038783524,
,15,,,,,0,15,15,15,,,,,,,,,,,,,,,,,,,,,,,,,,,,,,,,,,,,,,,,,,,,,,,,,,,,,,,,,,,,,,,,,,,,,,,,,,,,,,,,,,,,,,,,,,,,,,,,,,,,,,,,,,,,,,,,,,,,,,,,,,,,,,,,,,,,,,,,,,,,,,,,,,,,,,,,,,,,,,,030722,1,3,1,2,1,56,2022_Mar_07_1421,short_answer,3.2.4,60.32243038783524,
,,,,,,,,,,,,,,0,0,0,0,,,,,,,,,,,,,,,,,,,,,,,,,,,,,,,,,,,,,,,,,,,,,,,,,,,,,,,,,,,,,,,,,,,,,,,,,,,,,,,,,,,,,,,,,,,,,,,,,,,,,,,,,,,,,,,,,,,,,,,,,,,,,,,,,,,,,,,,,,,,,,,,,,,,,1939.3877383319996,None,030722,1,3,1,2,1,56,2022_Mar_07_1421,short_answer,3.2.4,60.32243038783524,
