count,audio,trials_14.thisRepN,trials_14.thisTrialN,trials_14.thisN,trials_14.thisIndex,trials_3.thisRepN,trials_3.thisTrialN,trials_3.thisN,trials_3.thisIndex,trials_4.thisRepN,trials_4.thisTrialN,trials_4.thisN,trials_4.thisIndex,trials_6.thisRepN,trials_6.thisTrialN,trials_6.thisN,trials_6.thisIndex,trials_9.thisRepN,trials_9.thisTrialN,trials_9.thisN,trials_9.thisIndex,trials_10.thisRepN,trials_10.thisTrialN,trials_10.thisN,trials_10.thisIndex,trials_11.thisRepN,trials_11.thisTrialN,trials_11.thisN,trials_11.thisIndex,trials_12.thisRepN,trials_12.thisTrialN,trials_12.thisN,trials_12.thisIndex,trials_25.thisRepN,trials_25.thisTrialN,trials_25.thisN,trials_25.thisIndex,trials_15.thisRepN,trials_15.thisTrialN,trials_15.thisN,trials_15.thisIndex,trials_26.thisRepN,trials_26.thisTrialN,trials_26.thisN,trials_26.thisIndex,story_list_block2,action_list_block2,textTrigger.started,textTrigger.stopped,getTrigger.keys,getTrigger.rt,getTrigger.started,getTrigger.stopped,triggerTime,text_76.started,text_76.stopped,text_77.started,text_77.stopped,startWait,endWait,image_23.started,image_23.stopped,text_55.started,text_55.stopped,text_56.started,text_56.stopped,key_resp_2.keys,key_resp_2.rt,key_resp_2.started,key_resp_2.stopped,text_82.started,text_82.stopped,text_57.started,text_57.stopped,key_resp_17.keys,key_resp_17.rt,key_resp_17.started,key_resp_17.stopped,text_83.started,text_83.stopped,text_60.started,text_60.stopped,image_2.started,image_2.stopped,text_58.started,text_58.stopped,key_resp_23.keys,key_resp_23.rt,key_resp_23.started,key_resp_23.stopped,text_62.started,text_62.stopped,key_resp_18.keys,key_resp_18.rt,key_resp_18.started,key_resp_18.stopped,text_84.started,text_84.stopped,question1_2.started,question1_2.stopped,question2_2.started,question2_2.stopped,question3_2.started,question3_2.stopped,question4_2.started,question4_2.stopped,question5_2.started,question5_2.stopped,question6_2.started,question6_2.stopped,image_15.started,image_15.stopped,text_59.started,text_59.stopped,key_resp_19.keys,key_resp_19.rt,key_resp_19.started,key_resp_19.stopped,text_85.started,text_85.stopped,text_61.started,text_61.stopped,image_17.started,image_17.stopped,text_63.started,text_63.stopped,key_resp_24.keys,key_resp_24.rt,key_resp_24.started,key_resp_24.stopped,text_64.started,text_64.stopped,key_resp_20.keys,key_resp_20.rt,key_resp_20.started,key_resp_20.stopped,storyImage_StartTime,storyImage_EndTime,clip_StartTime,clip_EndTime,text_67.started,text_67.stopped,text_68.started,text_68.stopped,participant,sA,sB,lA,lB,block_struct,play_stories,block,behavioral,random_seed,date,expName,psychopyVersion,frameRate,
0,,,,,,,,,,0,0,0,0,0,0,0,0,0,0,0,0,0,0,0,0,0,0,0,0,,,,,,,,,,,,,,,,,[22 33 11 42 24 13 31 44],[1 4 3 4 3 1 2 2],16.726008259999617,None,equal,59.19354418900002,16.726008259999617,None,59.22304168899973,16.726008259999617,None,16.726008259999617,None,0.00035244399987277575,5.998284612000134,75.94195802200011,None,81.95886361700013,None,81.95886361700013,None,5,0.9596483400000579,81.95886361700013,None,81.95886361700013,None,82.9411484329994,None,5,0.9773642930003916,82.9411484329994,None,82.9411484329994,None,83.958652454,None,83.958652454,None,83.958652454,None,5,0.9598591379999561,83.958652454,None,84.94142056799956,None,5,0.9770701919997009,84.94142056799956,None,84.94142056799956,None,86.02526484200007,None,86.02526484200007,None,86.02526484200007,None,86.02526484200007,None,86.02526484200007,None,86.02526484200007,None,86.02526484200007,None,,,,,,,,,,,,,,,,,,,,,,,,,,,,,,,,,101520,0,1,0,3,0,1,2,0,6,2020_Oct_15_1050,listening_fmri,3.2.4,59.595903539443405,
0,,,,,,,,,,0,0,0,0,0,0,0,0,0,0,0,0,0,0,0,0,,,,,,,,,,,,,,,,,,,,,,,,,,,,,,,,,,,,,,,,,,,,,,,,,,,,,,,,,,,,,,,,,,,,,,,,,,,,,,,,,,,,,,,,104.14178202999938,None,5,0.77665912700013,104.14178202999938,None,104.14178202999938,None,104.95842308299962,None,104.95842308299962,None,104.95842308299962,None,5,0.9599441330001355,104.95842308299962,None,,,,,,,,,,,,,,,101520,0,1,0,3,0,1,2,0,6,2020_Oct_15_1050,listening_fmri,3.2.4,59.595903539443405,
0,parcelated_audio/22/22_1.ogg,,,,,,,,,0,0,0,0,0,0,0,0,0,0,0,0,,,,,,,,,,,,,0,0,0,0,0,0,0,0,,,,,,,,,,,,,,,,,,,,,,,,,,,,,,,,,,,,,,,,,,,,,,,,,,,,,,,,,,,,,,,,,,,,,,,,,,,,,,,,,,,,,,,,,,105.94113281799946,None,5,0.9772603229994274,105.94113281799946,None,31.029037324000456,34.03244457999972,34.038071294000474,47.08418718400026,,,,,101520,0,1,0,3,0,1,2,0,6,2020_Oct_15_1050,listening_fmri,3.2.4,59.595903539443405,
0,parcelated_audio/22/22_2.ogg,,,,,,,,,0,0,0,0,0,0,0,0,0,0,0,0,,,,,,,,,,,,,0,0,0,0,0,1,1,1,,,,,,,,,,,,,,,,,,,,,,,,,,,,,,,,,,,,,,,,,,,,,,,,,,,,,,,,,,,,,,,,,,,,,,,,,,,,,,,,,,,,,,,,,,,,,,,,,,47.08531618899997,53.35015031900002,,,,,101520,0,1,0,3,0,1,2,0,6,2020_Oct_15_1050,listening_fmri,3.2.4,59.595903539443405,
0,parcelated_audio/22/22_3.ogg,,,,,,,,,0,0,0,0,0,0,0,0,0,0,0,0,,,,,,,,,,,,,0,0,0,0,0,2,2,2,,,,,,,,,,,,,,,,,,,,,,,,,,,,,,,,,,,,,,,,,,,,,,,,,,,,,,,,,,,,,,,,,,,,,,,,,,,,,,,,,,,,,,,,,,,,,,,,,,53.350570278000305,66.28100949600048,,,,,101520,0,1,0,3,0,1,2,0,6,2020_Oct_15_1050,listening_fmri,3.2.4,59.595903539443405,
0,parcelated_audio/22/22_4.ogg,,,,,,,,,0,0,0,0,0,0,0,0,0,0,0,0,,,,,,,,,,,,,0,0,0,0,0,3,3,3,,,,,,,,,,,,,,,,,,,,,,,,,,,,,,,,,,,,,,,,,,,,,,,,,,,,,,,,,,,,,,,,,,,,,,,,,,,,,,,,,,,,,,,,,,,,,,,,,,66.28421434400025,78.68297724400054,,,,,101520,0,1,0,3,0,1,2,0,6,2020_Oct_15_1050,listening_fmri,3.2.4,59.595903539443405,
0,parcelated_audio/22/22_5.ogg,,,,,,,,,0,0,0,0,0,0,0,0,0,0,0,0,,,,,,,,,,,,,0,0,0,0,0,4,4,4,,,,,,,,,,,,,,,,,,,,,,,,,,,,,,,,,,,,,,,,,,,,,,,,,,,,,,,,,,,,,,,,,,,,,,,,,,,,,,,,,,,,,,,,,,,,,,,,,,78.6841484180004,84.59848168999997,,,,,101520,0,1,0,3,0,1,2,0,6,2020_Oct_15_1050,listening_fmri,3.2.4,59.595903539443405,
0,parcelated_audio/22/22_6.ogg,,,,,,,,,0,0,0,0,0,0,0,0,0,0,0,0,,,,,,,,,,,,,0,0,0,0,0,5,5,5,,,,,,,,,,,,,,,,,,,,,,,,,,,,,,,,,,,,,,,,,,,,,,,,,,,,,,,,,,,,,,,,,,,,,,,,,,,,,,,,,,,,,,,,,,,,,,,,,,84.59882054500031,93.76889796799969,,,,,101520,0,1,0,3,0,1,2,0,6,2020_Oct_15_1050,listening_fmri,3.2.4,59.595903539443405,
0,parcelated_audio/22/22_7.ogg,,,,,,,,,0,0,0,0,0,0,0,0,0,0,0,0,,,,,,,,,,,,,0,0,0,0,0,6,6,6,,,,,,,,,,,,,,,,,,,,,,,,,,,,,,,,,,,,,,,,,,,,,,,,,,,,,,,,,,,,,,,,,,,,,,,,,,,,,,,,,,,,,,,,,,,,,,,,,,93.7692715459998,98.74932314800026,,,,,101520,0,1,0,3,0,1,2,0,6,2020_Oct_15_1050,listening_fmri,3.2.4,59.595903539443405,
0,parcelated_audio/22/22_8.ogg,,,,,,,,,0,0,0,0,0,0,0,0,0,0,0,0,,,,,,,,,,,,,0,0,0,0,0,7,7,7,,,,,,,,,,,,,,,,,,,,,,,,,,,,,,,,,,,,,,,,,,,,,,,,,,,,,,,,,,,,,,,,,,,,,,,,,,,,,,,,,,,,,,,,,,,,,,,,,,98.74966992500049,102.26986216600017,,,,,101520,0,1,0,3,0,1,2,0,6,2020_Oct_15_1050,listening_fmri,3.2.4,59.595903539443405,
0,parcelated_audio/22/22_9.ogg,,,,,,,,,0,0,0,0,0,0,0,0,0,0,0,0,,,,,,,,,,,,,0,0,0,0,0,8,8,8,,,,,,,,,,,,,,,,,,,,,,,,,,,,,,,,,,,,,,,,,,,,,,,,,,,,,,,,,,,,,,,,,,,,,,,,,,,,,,,,,,,,,,,,,,,,,,,,,,102.27153754400024,106.1633742160002,,,,,101520,0,1,0,3,0,1,2,0,6,2020_Oct_15_1050,listening_fmri,3.2.4,59.595903539443405,
0,parcelated_audio/22/22_10.ogg,,,,,,,,,0,0,0,0,0,0,0,0,0,0,0,0,,,,,,,,,,,,,0,0,0,0,0,9,9,9,,,,,,,,,,,,,,,,,,,,,,,,,,,,,,,,,,,,,,,,,,,,,,,,,,,,,,,,,,,,,,,,,,,,,,,,,,,,,,,,,,,,,,,,,,,,,,,,,,106.16385806000017,110.92141313800039,,,,,101520,0,1,0,3,0,1,2,0,6,2020_Oct_15_1050,listening_fmri,3.2.4,59.595903539443405,
0,parcelated_audio/22/22_11.ogg,,,,,,,,,0,0,0,0,0,0,0,0,0,0,0,0,,,,,,,,,,,,,0,0,0,0,0,10,10,10,,,,,,,,,,,,,,,,,,,,,,,,,,,,,,,,,,,,,,,,,,,,,,,,,,,,,,,,,,,,,,,,,,,,,,,,,,,,,,,,,,,,,,,,,,,,,,,,,,110.92177558399999,118.20346258100017,,,,,101520,0,1,0,3,0,1,2,0,6,2020_Oct_15_1050,listening_fmri,3.2.4,59.595903539443405,
0,parcelated_audio/22/22_12.ogg,,,,,,,,,0,0,0,0,0,0,0,0,0,0,0,0,,,,,,,,,,,,,0,0,0,0,0,11,11,11,,,,,,,,,,,,,,,,,,,,,,,,,,,,,,,,,,,,,,,,,,,,,,,,,,,,,,,,,,,,,,,,,,,,,,,,,,,,,,,,,,,,,,,,,,,,,,,,,,118.2039880530001,126.00317034900036,,,,,101520,0,1,0,3,0,1,2,0,6,2020_Oct_15_1050,listening_fmri,3.2.4,59.595903539443405,
0,parcelated_audio/22/22_13.ogg,,,,,,,,,0,0,0,0,0,0,0,0,0,0,0,0,,,,,,,,,,,,,0,0,0,0,0,12,12,12,,,,,,,,,,,,,,,,,,,,,,,,,,,,,,,,,,,,,,,,,,,,,,,,,,,,,,,,,,,,,,,,,,,,,,,,,,,,,,,,,,,,,,,,,,,,,,,,,,126.00363078800001,133.2636739239997,,,,,101520,0,1,0,3,0,1,2,0,6,2020_Oct_15_1050,listening_fmri,3.2.4,59.595903539443405,
0,parcelated_audio/22/22_14.ogg,,,,,,,,,0,0,0,0,0,0,0,0,0,0,0,0,,,,,,,,,,,,,0,0,0,0,0,13,13,13,,,,,,,,,,,,,,,,,,,,,,,,,,,,,,,,,,,,,,,,,,,,,,,,,,,,,,,,,,,,,,,,,,,,,,,,,,,,,,,,,,,,,,,,,,,,,,,,,,133.26406977700026,138.86344789299983,,,,,101520,0,1,0,3,0,1,2,0,6,2020_Oct_15_1050,listening_fmri,3.2.4,59.595903539443405,
0,parcelated_audio/22/22_15.ogg,,,,,,,,,0,0,0,0,0,0,0,0,0,0,0,0,,,,,,,,,,,,,0,0,0,0,0,14,14,14,,,,,,,,,,,,,,,,,,,,,,,,,,,,,,,,,,,,,,,,,,,,,,,,,,,,,,,,,,,,,,,,,,,,,,,,,,,,,,,,,,,,,,,,,,,,,,,,,,138.86376492700037,146.63197727900024,,,,,101520,0,1,0,3,0,1,2,0,6,2020_Oct_15_1050,listening_fmri,3.2.4,59.595903539443405,
0,parcelated_audio/22/22_16.ogg,,,,,,,,,0,0,0,0,0,0,0,0,0,0,0,0,,,,,,,,,,,,,0,0,0,0,0,15,15,15,,,,,,,,,,,,,,,,,,,,,,,,,,,,,,,,,,,,,,,,,,,,,,,,,,,,,,,,,,,,,,,,,,,,,,,,,,,,,,,,,,,,,,,,,,,,,,,,,,146.63240132700048,155.29671226200026,,,,,101520,0,1,0,3,0,1,2,0,6,2020_Oct_15_1050,listening_fmri,3.2.4,59.595903539443405,
0,parcelated_audio/22/22_17.ogg,,,,,,,,,0,0,0,0,0,0,0,0,0,0,0,0,,,,,,,,,,,,,0,0,0,0,0,16,16,16,,,,,,,,,,,,,,,,,,,,,,,,,,,,,,,,,,,,,,,,,,,,,,,,,,,,,,,,,,,,,,,,,,,,,,,,,,,,,,,,,,,,,,,,,,,,,,,,,,155.29704829000002,158.42844449699987,,,,,101520,0,1,0,3,0,1,2,0,6,2020_Oct_15_1050,listening_fmri,3.2.4,59.595903539443405,
0,parcelated_audio/22/22_18.ogg,,,,,,,,,0,0,0,0,0,0,0,0,0,0,0,0,,,,,,,,,,,,,0,0,0,0,0,17,17,17,,,,,,,,,,,,,,,,,,,,,,,,,,,,,,,,,,,,,,,,,,,,,,,,,,,,,,,,,,,,,,,,,,,,,,,,,,,,,,,,,,,,,,,,,,,,,,,,,,158.4294770460001,165.15354259000014,,,,,101520,0,1,0,3,0,1,2,0,6,2020_Oct_15_1050,listening_fmri,3.2.4,59.595903539443405,
0,parcelated_audio/22/22_19.ogg,,,,,,,,,0,0,0,0,0,0,0,0,0,0,0,0,,,,,,,,,,,,,0,0,0,0,0,18,18,18,,,,,,,,,,,,,,,,,,,,,,,,,,,,,,,,,,,,,,,,,,,,,,,,,,,,,,,,,,,,,,,,,,,,,,,,,,,,,,,,,,,,,,,,,,,,,,,,,,165.15390453500004,170.107637737,,,,,101520,0,1,0,3,0,1,2,0,6,2020_Oct_15_1050,listening_fmri,3.2.4,59.595903539443405,
0,parcelated_audio/22/22_20.ogg,,,,,,,,,0,0,0,0,0,0,0,0,0,0,0,0,,,,,,,,,,,,,0,0,0,0,0,19,19,19,,,,,,,,,,,,,,,,,,,,,,,,,,,,,,,,,,,,,,,,,,,,,,,,,,,,,,,,,,,,,,,,,,,,,,,,,,,,,,,,,,,,,,,,,,,,,,,,,,170.10813009499998,184.2257958070004,,,,,101520,0,1,0,3,0,1,2,0,6,2020_Oct_15_1050,listening_fmri,3.2.4,59.595903539443405,
0,parcelated_audio/22/22_21.ogg,,,,,,,,,0,0,0,0,0,0,0,0,0,0,0,0,,,,,,,,,,,,,0,0,0,0,0,20,20,20,,,,,,,,,,,,,,,,,,,,,,,,,,,,,,,,,,,,,,,,,,,,,,,,,,,,,,,,,,,,,,,,,,,,,,,,,,,,,,,,,,,,,,,,,,,,,,,,,,184.22746009000002,186.23276620199977,,,,,101520,0,1,0,3,0,1,2,0,6,2020_Oct_15_1050,listening_fmri,3.2.4,59.595903539443405,
0,parcelated_audio/22/22_22.ogg,,,,,,,,,0,0,0,0,0,0,0,0,0,0,0,0,,,,,,,,,,,,,0,0,0,0,0,21,21,21,,,,,,,,,,,,,,,,,,,,,,,,,,,,,,,,,,,,,,,,,,,,,,,,,,,,,,,,,,,,,,,,,,,,,,,,,,,,,,,,,,,,,,,,,,,,,,,,,,186.23318822800047,189.36707672900047,,,,,101520,0,1,0,3,0,1,2,0,6,2020_Oct_15_1050,listening_fmri,3.2.4,59.595903539443405,
0,parcelated_audio/22/22_23.ogg,,,,,,,,,0,0,0,0,0,0,0,0,0,0,0,0,,,,,,,,,,,,,0,0,0,0,0,22,22,22,,,,,,,,,,,,,,,,,,,,,,,,,,,,,,,,,,,,,,,,,,,,,,,,,,,,,,,,,,,,,,,,,,,,,,,,,,,,,,,,,,,,,,,,,,,,,,,,,,189.36741048899967,195.86841405799987,,,,,101520,0,1,0,3,0,1,2,0,6,2020_Oct_15_1050,listening_fmri,3.2.4,59.595903539443405,
0,parcelated_audio/22/22_24.ogg,,,,,,,,,0,0,0,0,0,0,0,0,0,0,0,0,,,,,,,,,,,,,0,0,0,0,0,23,23,23,,,,,,,,,,,,,,,,,,,,,,,,,,,,,,,,,,,,,,,,,,,,,,,,,,,,,,,,,,,,,,,,,,,,,,,,,,,,,,,,,,,,,,,,,,,,,,,,,,195.8688141140001,201.59803188499973,,,,,101520,0,1,0,3,0,1,2,0,6,2020_Oct_15_1050,listening_fmri,3.2.4,59.595903539443405,
0,parcelated_audio/22/22_25.ogg,,,,,,,,,0,0,0,0,0,0,0,0,0,0,0,0,,,,,,,,,,,,,0,0,0,0,0,24,24,24,,,,,,,,,,,,,,,,,,,,,,,,,,,,,,,,,,,,,,,,,,,,,,,,,,,,,,,,,,,,,,,,,,,,,,,,,,,,,,,,,,,,,,,,,,,,,,,,,,201.5983799100004,214.27104286699978,,,,,101520,0,1,0,3,0,1,2,0,6,2020_Oct_15_1050,listening_fmri,3.2.4,59.595903539443405,
0,parcelated_audio/22/22_26.ogg,,,,,,,,,0,0,0,0,0,0,0,0,0,0,0,0,,,,,,,,,,,,,0,0,0,0,0,25,25,25,,,,,,,,,,,,,,,,,,,,,,,,,,,,,,,,,,,,,,,,,,,,,,,,,,,,,,,,,,,,,,,,,,,,,,,,,,,,,,,,,,,,,,,,,,,,,,,,,,214.27138536300026,220.99845621700024,,,,,101520,0,1,0,3,0,1,2,0,6,2020_Oct_15_1050,listening_fmri,3.2.4,59.595903539443405,
0,parcelated_audio/22/22_27.ogg,,,,,,,,,0,0,0,0,0,0,0,0,0,0,0,0,,,,,,,,,,,,,0,0,0,0,0,26,26,26,,,,,,,,,,,,,,,,,,,,,,,,,,,,,,,,,,,,,,,,,,,,,,,,,,,,,,,,,,,,,,,,,,,,,,,,,,,,,,,,,,,,,,,,,,,,,,,,,,220.99893515300028,225.38730172000032,,,,,101520,0,1,0,3,0,1,2,0,6,2020_Oct_15_1050,listening_fmri,3.2.4,59.595903539443405,
0,parcelated_audio/22/22_28.ogg,,,,,,,,,0,0,0,0,0,0,0,0,0,0,0,0,,,,,,,,,,,,,0,0,0,0,0,27,27,27,,,,,,,,,,,,,,,,,,,,,,,,,,,,,,,,,,,,,,,,,,,,,,,,,,,,,,,,,,,,,,,,,,,,,,,,,,,,,,,,,,,,,,,,,,,,,,,,,,225.38780321600007,231.1126594970001,,,,,101520,0,1,0,3,0,1,2,0,6,2020_Oct_15_1050,listening_fmri,3.2.4,59.595903539443405,
0,parcelated_audio/22/22_29.ogg,,,,,,,,,0,0,0,0,0,0,0,0,0,0,0,0,,,,,,,,,,,,,0,0,0,0,0,28,28,28,,,,,,,,,,,,,,,,,,,,,,,,,,,,,,,,,,,,,,,,,,,,,,,,,,,,,,,,,,,,,,,,,,,,,,,,,,,,,,,,,,,,,,,,,,,,,,,,,,231.1129794690005,236.81269178300045,,,,,101520,0,1,0,3,0,1,2,0,6,2020_Oct_15_1050,listening_fmri,3.2.4,59.595903539443405,
0,parcelated_audio/22/22_30.ogg,,,,,,,,,0,0,0,0,0,0,0,0,0,0,0,0,,,,,,,,,,,,,0,0,0,0,0,29,29,29,,,,,,,,,,,,,,,,,,,,,,,,,,,,,,,,,,,,,,,,,,,,,,,,,,,,,,,,,,,,,,,,,,,,,,,,,,,,,,,,,,,,,,,,,,,,,,,,,,236.81304363399977,239.51017746700018,,,,,101520,0,1,0,3,0,1,2,0,6,2020_Oct_15_1050,listening_fmri,3.2.4,59.595903539443405,
0,parcelated_audio/22/22_31.ogg,,,,,,,,,0,0,0,0,0,0,0,0,0,0,0,0,,,,,,,,,,,,,0,0,0,0,0,30,30,30,,,,,,,,,,,,,,,,,,,,,,,,,,,,,,,,,,,,,,,,,,,,,,,,,,,,,,,,,,,,,,,,,,,,,,,,,,,,,,,,,,,,,,,,,,,,,,,,,,239.51076629599993,244.65657763800027,,,,,101520,0,1,0,3,0,1,2,0,6,2020_Oct_15_1050,listening_fmri,3.2.4,59.595903539443405,
0,parcelated_audio/22/22_32.ogg,,,,,,,,,0,0,0,0,0,0,0,0,0,0,0,0,,,,,,,,,,,,,0,0,0,0,0,31,31,31,,,,,,,,,,,,,,,,,,,,,,,,,,,,,,,,,,,,,,,,,,,,,,,,,,,,,,,,,,,,,,,,,,,,,,,,,,,,,,,,,,,,,,,,,,,,,,,,,,244.65703116300028,250.9786935130005,,,,,101520,0,1,0,3,0,1,2,0,6,2020_Oct_15_1050,listening_fmri,3.2.4,59.595903539443405,
0,parcelated_audio/22/22_33.ogg,,,,,,,,,0,0,0,0,0,0,0,0,0,0,0,0,,,,,,,,,,,,,0,0,0,0,0,32,32,32,,,,,,,,,,,,,,,,,,,,,,,,,,,,,,,,,,,,,,,,,,,,,,,,,,,,,,,,,,,,,,,,,,,,,,,,,,,,,,,,,,,,,,,,,,,,,,,,,,250.9791773019997,255.40264298500006,,,,,101520,0,1,0,3,0,1,2,0,6,2020_Oct_15_1050,listening_fmri,3.2.4,59.595903539443405,
0,parcelated_audio/22/22_34.ogg,,,,,,,,,0,0,0,0,0,0,0,0,0,0,0,0,,,,,,,,,,,,,0,0,0,0,0,33,33,33,,,,,,,,,,,,,,,,,,,,,,,,,,,,,,,,,,,,,,,,,,,,,,,,,,,,,,,,,,,,,,,,,,,,,,,,,,,,,,,,,,,,,,,,,,,,,,,,,,255.40321236,263.4280490399997,,,,,101520,0,1,0,3,0,1,2,0,6,2020_Oct_15_1050,listening_fmri,3.2.4,59.595903539443405,
0,parcelated_audio/22/22_35.ogg,,,,,,,,,0,0,0,0,0,0,0,0,0,0,0,0,,,,,,,,,,,,,0,0,0,0,0,34,34,34,,,,,,,,,,,,,,,,,,,,,,,,,,,,,,,,,,,,,,,,,,,,,,,,,,,,,,,,,,,,,,,,,,,,,,,,,,,,,,,,,,,,,,,,,,,,,,,,,,263.42851559800056,270.9384262700005,,,,,101520,0,1,0,3,0,1,2,0,6,2020_Oct_15_1050,listening_fmri,3.2.4,59.595903539443405,
0,parcelated_audio/22/22_36.ogg,,,,,,,,,0,0,0,0,0,0,0,0,0,0,0,0,,,,,,,,,,,,,0,0,0,0,0,35,35,35,,,,,,,,,,,,,,,,,,,,,,,,,,,,,,,,,,,,,,,,,,,,,,,,,,,,,,,,,,,,,,,,,,,,,,,,,,,,,,,,,,,,,,,,,,,,,,,,,,270.9388023829997,283.6465113940003,,,,,101520,0,1,0,3,0,1,2,0,6,2020_Oct_15_1050,listening_fmri,3.2.4,59.595903539443405,
0,parcelated_audio/22/22_37.ogg,,,,,,,,,0,0,0,0,0,0,0,0,0,0,0,0,,,,,,,,,,,,,0,0,0,0,0,36,36,36,,,,,,,,,,,,,,,,,,,,,,,,,,,,,,,,,,,,,,,,,,,,,,,,,,,,,,,,,,,,,,,,,,,,,,,,,,,,,,,,,,,,,,,,,,,,,,,,,,283.6492908959999,290.8066144730001,,,,,101520,0,1,0,3,0,1,2,0,6,2020_Oct_15_1050,listening_fmri,3.2.4,59.595903539443405,
0,,,,,,,,,,0,0,0,0,0,0,0,0,0,0,0,0,,,,,,,,,,,,,0,0,0,0,,,,,,,,,,,,,,,,,,,,,,,,,,,,,,,,,,,,,,,,,,,,,,,,,,,,,,,,,,,,,,,,,,,,,,,,,,,,,,,,,,,,,,,,,,,,,,,,,,,,,,,,,,,,101520,0,1,0,3,0,1,2,0,6,2020_Oct_15_1050,listening_fmri,3.2.4,59.595903539443405,
,,,,,,,,,,,,,,,,,,,,,,,,,,,,,,,,,,,,,,,,,,,,,,,,,,,,,,,,,,,290.8071076870001,296.7992107279997,366.73772950700004,None,,,,,,,,,,,,,,,,,,,,,,,,,,,,,,,,,,,,,,,,,,,,,,,,,,,,,,,,,,,,,,,,,,,,,,,,,,,,,,,372.7416073589993,None,372.7416073589993,None,,,,,,,,,,,,,,,
﻿count,audio,trials_14.thisRepN,trials_14.thisTrialN,trials_14.thisN,trials_14.thisIndex,trials_3.thisRepN,trials_3.thisTrialN,trials_3.thisN,trials_3.thisIndex,trials_4.thisRepN,trials_4.thisTrialN,trials_4.thisN,trials_4.thisIndex,trials_6.thisRepN,trials_6.thisTrialN,trials_6.thisN,trials_6.thisIndex,trials_9.thisRepN,trials_9.thisTrialN,trials_9.thisN,trials_9.thisIndex,trials_10.thisRepN,trials_10.thisTrialN,trials_10.thisN,trials_10.thisIndex,trials_11.thisRepN,trials_11.thisTrialN,trials_11.thisN,trials_11.thisIndex,trials_12.thisRepN,trials_12.thisTrialN,trials_12.thisN,trials_12.thisIndex,trials_25.thisRepN,trials_25.thisTrialN,trials_25.thisN,trials_25.thisIndex,trials_15.thisRepN,trials_15.thisTrialN,trials_15.thisN,trials_15.thisIndex,trials_26.thisRepN,trials_26.thisTrialN,trials_26.thisN,trials_26.thisIndex,story_list_block2,action_list_block2,textTrigger.started,textTrigger.stopped,getTrigger.keys,getTrigger.rt,getTrigger.started,getTrigger.stopped,triggerTime,text_76.started,text_76.stopped,text_77.started,text_77.stopped,startWait,endWait,image_23.started,image_23.stopped,text_55.started,text_55.stopped,text_56.started,text_56.stopped,key_resp_2.keys,key_resp_2.rt,key_resp_2.started,key_resp_2.stopped,text_82.started,text_82.stopped,text_57.started,text_57.stopped,key_resp_17.keys,key_resp_17.rt,key_resp_17.started,key_resp_17.stopped,text_83.started,text_83.stopped,text_60.started,text_60.stopped,image_2.started,image_2.stopped,text_58.started,text_58.stopped,key_resp_23.keys,key_resp_23.rt,key_resp_23.started,key_resp_23.stopped,text_62.started,text_62.stopped,key_resp_18.keys,key_resp_18.rt,key_resp_18.started,key_resp_18.stopped,text_84.started,text_84.stopped,question1_2.started,question1_2.stopped,question2_2.started,question2_2.stopped,question3_2.started,question3_2.stopped,question4_2.started,question4_2.stopped,question5_2.started,question5_2.stopped,question6_2.started,question6_2.stopped,image_15.started,image_15.stopped,text_59.started,text_59.stopped,key_resp_19.keys,key_resp_19.rt,key_resp_19.started,key_resp_19.stopped,text_85.started,text_85.stopped,text_61.started,text_61.stopped,image_17.started,image_17.stopped,text_63.started,text_63.stopped,key_resp_24.keys,key_resp_24.rt,key_resp_24.started,key_resp_24.stopped,text_64.started,text_64.stopped,key_resp_20.keys,key_resp_20.rt,key_resp_20.started,key_resp_20.stopped,storyImage_StartTime,storyImage_EndTime,clip_StartTime,clip_EndTime,text_67.started,text_67.stopped,text_68.started,text_68.stopped,participant,sA,sB,lA,lB,block_struct,play_stories,block,behavioral,random_seed,date,expName,psychopyVersion,frameRate,
0,,,,,,,,,,0,0,0,0,0,0,0,0,0,0,0,0,0,0,0,0,0,0,0,0,,,,,,,,,,,,,,,,,[22 33 11 42 24 13 31 44],[1 4 3 4 3 1 2 2],16.726008259999617,None,equal,59.19354418900002,16.726008259999617,None,59.22304168899973,16.726008259999617,None,16.726008259999617,None,0.00035244399987277575,5.998284612000134,75.94195802200011,None,81.95886361700013,None,81.95886361700013,None,5,0.9596483400000579,81.95886361700013,None,81.95886361700013,None,82.9411484329994,None,5,0.9773642930003916,82.9411484329994,None,82.9411484329994,None,83.958652454,None,83.958652454,None,83.958652454,None,5,0.9598591379999561,83.958652454,None,84.94142056799956,None,5,0.9770701919997009,84.94142056799956,None,84.94142056799956,None,86.02526484200007,None,86.02526484200007,None,86.02526484200007,None,86.02526484200007,None,86.02526484200007,None,86.02526484200007,None,86.02526484200007,None,,,,,,,,,,,,,,,,,,,,,,,,,,,,,,,,,101520,0,1,0,3,0,1,2,0,6,2020_Oct_15_1050,listening_fmri,3.2.4,59.595903539443405,
0,,,,,,,,,,0,0,0,0,0,0,0,0,0,0,0,0,0,0,0,0,,,,,,,,,,,,,,,,,,,,,,,,,,,,,,,,,,,,,,,,,,,,,,,,,,,,,,,,,,,,,,,,,,,,,,,,,,,,,,,,,,,,,,,,104.14178202999938,None,5,0.77665912700013,104.14178202999938,None,104.14178202999938,None,104.95842308299962,None,104.95842308299962,None,104.95842308299962,None,5,0.9599441330001355,104.95842308299962,None,,,,,,,,,,,,,,,101520,0,1,0,3,0,1,2,0,6,2020_Oct_15_1050,listening_fmri,3.2.4,59.595903539443405,
0,parcelated_audio/22/22_1.ogg,,,,,,,,,0,0,0,0,0,0,0,0,0,0,0,0,,,,,,,,,,,,,0,0,0,0,0,0,0,0,,,,,,,,,,,,,,,,,,,,,,,,,,,,,,,,,,,,,,,,,,,,,,,,,,,,,,,,,,,,,,,,,,,,,,,,,,,,,,,,,,,,,,,,,,105.94113281799946,None,5,0.9772603229994274,105.94113281799946,None,31.029037324000456,34.03244457999972,34.038071294000474,47.08418718400026,,,,,101520,0,1,0,3,0,1,2,0,6,2020_Oct_15_1050,listening_fmri,3.2.4,59.595903539443405,
0,parcelated_audio/22/22_2.ogg,,,,,,,,,0,0,0,0,0,0,0,0,0,0,0,0,,,,,,,,,,,,,0,0,0,0,0,1,1,1,,,,,,,,,,,,,,,,,,,,,,,,,,,,,,,,,,,,,,,,,,,,,,,,,,,,,,,,,,,,,,,,,,,,,,,,,,,,,,,,,,,,,,,,,,,,,,,,,,47.08531618899997,53.35015031900002,,,,,101520,0,1,0,3,0,1,2,0,6,2020_Oct_15_1050,listening_fmri,3.2.4,59.595903539443405,
0,parcelated_audio/22/22_3.ogg,,,,,,,,,0,0,0,0,0,0,0,0,0,0,0,0,,,,,,,,,,,,,0,0,0,0,0,2,2,2,,,,,,,,,,,,,,,,,,,,,,,,,,,,,,,,,,,,,,,,,,,,,,,,,,,,,,,,,,,,,,,,,,,,,,,,,,,,,,,,,,,,,,,,,,,,,,,,,,53.350570278000305,66.28100949600048,,,,,101520,0,1,0,3,0,1,2,0,6,2020_Oct_15_1050,listening_fmri,3.2.4,59.595903539443405,
0,parcelated_audio/22/22_4.ogg,,,,,,,,,0,0,0,0,0,0,0,0,0,0,0,0,,,,,,,,,,,,,0,0,0,0,0,3,3,3,,,,,,,,,,,,,,,,,,,,,,,,,,,,,,,,,,,,,,,,,,,,,,,,,,,,,,,,,,,,,,,,,,,,,,,,,,,,,,,,,,,,,,,,,,,,,,,,,,66.28421434400025,78.68297724400054,,,,,101520,0,1,0,3,0,1,2,0,6,2020_Oct_15_1050,listening_fmri,3.2.4,59.595903539443405,
0,parcelated_audio/22/22_5.ogg,,,,,,,,,0,0,0,0,0,0,0,0,0,0,0,0,,,,,,,,,,,,,0,0,0,0,0,4,4,4,,,,,,,,,,,,,,,,,,,,,,,,,,,,,,,,,,,,,,,,,,,,,,,,,,,,,,,,,,,,,,,,,,,,,,,,,,,,,,,,,,,,,,,,,,,,,,,,,,78.6841484180004,84.59848168999997,,,,,101520,0,1,0,3,0,1,2,0,6,2020_Oct_15_1050,listening_fmri,3.2.4,59.595903539443405,
0,parcelated_audio/22/22_6.ogg,,,,,,,,,0,0,0,0,0,0,0,0,0,0,0,0,,,,,,,,,,,,,0,0,0,0,0,5,5,5,,,,,,,,,,,,,,,,,,,,,,,,,,,,,,,,,,,,,,,,,,,,,,,,,,,,,,,,,,,,,,,,,,,,,,,,,,,,,,,,,,,,,,,,,,,,,,,,,,84.59882054500031,93.76889796799969,,,,,101520,0,1,0,3,0,1,2,0,6,2020_Oct_15_1050,listening_fmri,3.2.4,59.595903539443405,
0,parcelated_audio/22/22_7.ogg,,,,,,,,,0,0,0,0,0,0,0,0,0,0,0,0,,,,,,,,,,,,,0,0,0,0,0,6,6,6,,,,,,,,,,,,,,,,,,,,,,,,,,,,,,,,,,,,,,,,,,,,,,,,,,,,,,,,,,,,,,,,,,,,,,,,,,,,,,,,,,,,,,,,,,,,,,,,,,93.7692715459998,98.74932314800026,,,,,101520,0,1,0,3,0,1,2,0,6,2020_Oct_15_1050,listening_fmri,3.2.4,59.595903539443405,
0,parcelated_audio/22/22_8.ogg,,,,,,,,,0,0,0,0,0,0,0,0,0,0,0,0,,,,,,,,,,,,,0,0,0,0,0,7,7,7,,,,,,,,,,,,,,,,,,,,,,,,,,,,,,,,,,,,,,,,,,,,,,,,,,,,,,,,,,,,,,,,,,,,,,,,,,,,,,,,,,,,,,,,,,,,,,,,,,98.74966992500049,102.26986216600017,,,,,101520,0,1,0,3,0,1,2,0,6,2020_Oct_15_1050,listening_fmri,3.2.4,59.595903539443405,
0,parcelated_audio/22/22_9.ogg,,,,,,,,,0,0,0,0,0,0,0,0,0,0,0,0,,,,,,,,,,,,,0,0,0,0,0,8,8,8,,,,,,,,,,,,,,,,,,,,,,,,,,,,,,,,,,,,,,,,,,,,,,,,,,,,,,,,,,,,,,,,,,,,,,,,,,,,,,,,,,,,,,,,,,,,,,,,,,102.27153754400024,106.1633742160002,,,,,101520,0,1,0,3,0,1,2,0,6,2020_Oct_15_1050,listening_fmri,3.2.4,59.595903539443405,
0,parcelated_audio/22/22_10.ogg,,,,,,,,,0,0,0,0,0,0,0,0,0,0,0,0,,,,,,,,,,,,,0,0,0,0,0,9,9,9,,,,,,,,,,,,,,,,,,,,,,,,,,,,,,,,,,,,,,,,,,,,,,,,,,,,,,,,,,,,,,,,,,,,,,,,,,,,,,,,,,,,,,,,,,,,,,,,,,106.16385806000017,110.92141313800039,,,,,101520,0,1,0,3,0,1,2,0,6,2020_Oct_15_1050,listening_fmri,3.2.4,59.595903539443405,
0,parcelated_audio/22/22_11.ogg,,,,,,,,,0,0,0,0,0,0,0,0,0,0,0,0,,,,,,,,,,,,,0,0,0,0,0,10,10,10,,,,,,,,,,,,,,,,,,,,,,,,,,,,,,,,,,,,,,,,,,,,,,,,,,,,,,,,,,,,,,,,,,,,,,,,,,,,,,,,,,,,,,,,,,,,,,,,,,110.92177558399999,118.20346258100017,,,,,101520,0,1,0,3,0,1,2,0,6,2020_Oct_15_1050,listening_fmri,3.2.4,59.595903539443405,
0,parcelated_audio/22/22_12.ogg,,,,,,,,,0,0,0,0,0,0,0,0,0,0,0,0,,,,,,,,,,,,,0,0,0,0,0,11,11,11,,,,,,,,,,,,,,,,,,,,,,,,,,,,,,,,,,,,,,,,,,,,,,,,,,,,,,,,,,,,,,,,,,,,,,,,,,,,,,,,,,,,,,,,,,,,,,,,,,118.2039880530001,126.00317034900036,,,,,101520,0,1,0,3,0,1,2,0,6,2020_Oct_15_1050,listening_fmri,3.2.4,59.595903539443405,
0,parcelated_audio/22/22_13.ogg,,,,,,,,,0,0,0,0,0,0,0,0,0,0,0,0,,,,,,,,,,,,,0,0,0,0,0,12,12,12,,,,,,,,,,,,,,,,,,,,,,,,,,,,,,,,,,,,,,,,,,,,,,,,,,,,,,,,,,,,,,,,,,,,,,,,,,,,,,,,,,,,,,,,,,,,,,,,,,126.00363078800001,133.2636739239997,,,,,101520,0,1,0,3,0,1,2,0,6,2020_Oct_15_1050,listening_fmri,3.2.4,59.595903539443405,
0,parcelated_audio/22/22_14.ogg,,,,,,,,,0,0,0,0,0,0,0,0,0,0,0,0,,,,,,,,,,,,,0,0,0,0,0,13,13,13,,,,,,,,,,,,,,,,,,,,,,,,,,,,,,,,,,,,,,,,,,,,,,,,,,,,,,,,,,,,,,,,,,,,,,,,,,,,,,,,,,,,,,,,,,,,,,,,,,133.26406977700026,138.86344789299983,,,,,101520,0,1,0,3,0,1,2,0,6,2020_Oct_15_1050,listening_fmri,3.2.4,59.595903539443405,
0,parcelated_audio/22/22_15.ogg,,,,,,,,,0,0,0,0,0,0,0,0,0,0,0,0,,,,,,,,,,,,,0,0,0,0,0,14,14,14,,,,,,,,,,,,,,,,,,,,,,,,,,,,,,,,,,,,,,,,,,,,,,,,,,,,,,,,,,,,,,,,,,,,,,,,,,,,,,,,,,,,,,,,,,,,,,,,,,138.86376492700037,146.63197727900024,,,,,101520,0,1,0,3,0,1,2,0,6,2020_Oct_15_1050,listening_fmri,3.2.4,59.595903539443405,
0,parcelated_audio/22/22_16.ogg,,,,,,,,,0,0,0,0,0,0,0,0,0,0,0,0,,,,,,,,,,,,,0,0,0,0,0,15,15,15,,,,,,,,,,,,,,,,,,,,,,,,,,,,,,,,,,,,,,,,,,,,,,,,,,,,,,,,,,,,,,,,,,,,,,,,,,,,,,,,,,,,,,,,,,,,,,,,,,146.63240132700048,155.29671226200026,,,,,101520,0,1,0,3,0,1,2,0,6,2020_Oct_15_1050,listening_fmri,3.2.4,59.595903539443405,
0,parcelated_audio/22/22_17.ogg,,,,,,,,,0,0,0,0,0,0,0,0,0,0,0,0,,,,,,,,,,,,,0,0,0,0,0,16,16,16,,,,,,,,,,,,,,,,,,,,,,,,,,,,,,,,,,,,,,,,,,,,,,,,,,,,,,,,,,,,,,,,,,,,,,,,,,,,,,,,,,,,,,,,,,,,,,,,,,155.29704829000002,158.42844449699987,,,,,101520,0,1,0,3,0,1,2,0,6,2020_Oct_15_1050,listening_fmri,3.2.4,59.595903539443405,
0,parcelated_audio/22/22_18.ogg,,,,,,,,,0,0,0,0,0,0,0,0,0,0,0,0,,,,,,,,,,,,,0,0,0,0,0,17,17,17,,,,,,,,,,,,,,,,,,,,,,,,,,,,,,,,,,,,,,,,,,,,,,,,,,,,,,,,,,,,,,,,,,,,,,,,,,,,,,,,,,,,,,,,,,,,,,,,,,158.4294770460001,165.15354259000014,,,,,101520,0,1,0,3,0,1,2,0,6,2020_Oct_15_1050,listening_fmri,3.2.4,59.595903539443405,
0,parcelated_audio/22/22_19.ogg,,,,,,,,,0,0,0,0,0,0,0,0,0,0,0,0,,,,,,,,,,,,,0,0,0,0,0,18,18,18,,,,,,,,,,,,,,,,,,,,,,,,,,,,,,,,,,,,,,,,,,,,,,,,,,,,,,,,,,,,,,,,,,,,,,,,,,,,,,,,,,,,,,,,,,,,,,,,,,165.15390453500004,170.107637737,,,,,101520,0,1,0,3,0,1,2,0,6,2020_Oct_15_1050,listening_fmri,3.2.4,59.595903539443405,
0,parcelated_audio/22/22_20.ogg,,,,,,,,,0,0,0,0,0,0,0,0,0,0,0,0,,,,,,,,,,,,,0,0,0,0,0,19,19,19,,,,,,,,,,,,,,,,,,,,,,,,,,,,,,,,,,,,,,,,,,,,,,,,,,,,,,,,,,,,,,,,,,,,,,,,,,,,,,,,,,,,,,,,,,,,,,,,,,170.10813009499998,184.2257958070004,,,,,101520,0,1,0,3,0,1,2,0,6,2020_Oct_15_1050,listening_fmri,3.2.4,59.595903539443405,
0,parcelated_audio/22/22_21.ogg,,,,,,,,,0,0,0,0,0,0,0,0,0,0,0,0,,,,,,,,,,,,,0,0,0,0,0,20,20,20,,,,,,,,,,,,,,,,,,,,,,,,,,,,,,,,,,,,,,,,,,,,,,,,,,,,,,,,,,,,,,,,,,,,,,,,,,,,,,,,,,,,,,,,,,,,,,,,,,184.22746009000002,186.23276620199977,,,,,101520,0,1,0,3,0,1,2,0,6,2020_Oct_15_1050,listening_fmri,3.2.4,59.595903539443405,
0,parcelated_audio/22/22_22.ogg,,,,,,,,,0,0,0,0,0,0,0,0,0,0,0,0,,,,,,,,,,,,,0,0,0,0,0,21,21,21,,,,,,,,,,,,,,,,,,,,,,,,,,,,,,,,,,,,,,,,,,,,,,,,,,,,,,,,,,,,,,,,,,,,,,,,,,,,,,,,,,,,,,,,,,,,,,,,,,186.23318822800047,189.36707672900047,,,,,101520,0,1,0,3,0,1,2,0,6,2020_Oct_15_1050,listening_fmri,3.2.4,59.595903539443405,
0,parcelated_audio/22/22_23.ogg,,,,,,,,,0,0,0,0,0,0,0,0,0,0,0,0,,,,,,,,,,,,,0,0,0,0,0,22,22,22,,,,,,,,,,,,,,,,,,,,,,,,,,,,,,,,,,,,,,,,,,,,,,,,,,,,,,,,,,,,,,,,,,,,,,,,,,,,,,,,,,,,,,,,,,,,,,,,,,189.36741048899967,195.86841405799987,,,,,101520,0,1,0,3,0,1,2,0,6,2020_Oct_15_1050,listening_fmri,3.2.4,59.595903539443405,
0,parcelated_audio/22/22_24.ogg,,,,,,,,,0,0,0,0,0,0,0,0,0,0,0,0,,,,,,,,,,,,,0,0,0,0,0,23,23,23,,,,,,,,,,,,,,,,,,,,,,,,,,,,,,,,,,,,,,,,,,,,,,,,,,,,,,,,,,,,,,,,,,,,,,,,,,,,,,,,,,,,,,,,,,,,,,,,,,195.8688141140001,201.59803188499973,,,,,101520,0,1,0,3,0,1,2,0,6,2020_Oct_15_1050,listening_fmri,3.2.4,59.595903539443405,
0,parcelated_audio/22/22_25.ogg,,,,,,,,,0,0,0,0,0,0,0,0,0,0,0,0,,,,,,,,,,,,,0,0,0,0,0,24,24,24,,,,,,,,,,,,,,,,,,,,,,,,,,,,,,,,,,,,,,,,,,,,,,,,,,,,,,,,,,,,,,,,,,,,,,,,,,,,,,,,,,,,,,,,,,,,,,,,,,201.5983799100004,214.27104286699978,,,,,101520,0,1,0,3,0,1,2,0,6,2020_Oct_15_1050,listening_fmri,3.2.4,59.595903539443405,
0,parcelated_audio/22/22_26.ogg,,,,,,,,,0,0,0,0,0,0,0,0,0,0,0,0,,,,,,,,,,,,,0,0,0,0,0,25,25,25,,,,,,,,,,,,,,,,,,,,,,,,,,,,,,,,,,,,,,,,,,,,,,,,,,,,,,,,,,,,,,,,,,,,,,,,,,,,,,,,,,,,,,,,,,,,,,,,,,214.27138536300026,220.99845621700024,,,,,101520,0,1,0,3,0,1,2,0,6,2020_Oct_15_1050,listening_fmri,3.2.4,59.595903539443405,
0,parcelated_audio/22/22_27.ogg,,,,,,,,,0,0,0,0,0,0,0,0,0,0,0,0,,,,,,,,,,,,,0,0,0,0,0,26,26,26,,,,,,,,,,,,,,,,,,,,,,,,,,,,,,,,,,,,,,,,,,,,,,,,,,,,,,,,,,,,,,,,,,,,,,,,,,,,,,,,,,,,,,,,,,,,,,,,,,220.99893515300028,225.38730172000032,,,,,101520,0,1,0,3,0,1,2,0,6,2020_Oct_15_1050,listening_fmri,3.2.4,59.595903539443405,
0,parcelated_audio/22/22_28.ogg,,,,,,,,,0,0,0,0,0,0,0,0,0,0,0,0,,,,,,,,,,,,,0,0,0,0,0,27,27,27,,,,,,,,,,,,,,,,,,,,,,,,,,,,,,,,,,,,,,,,,,,,,,,,,,,,,,,,,,,,,,,,,,,,,,,,,,,,,,,,,,,,,,,,,,,,,,,,,,225.38780321600007,231.1126594970001,,,,,101520,0,1,0,3,0,1,2,0,6,2020_Oct_15_1050,listening_fmri,3.2.4,59.595903539443405,
0,parcelated_audio/22/22_29.ogg,,,,,,,,,0,0,0,0,0,0,0,0,0,0,0,0,,,,,,,,,,,,,0,0,0,0,0,28,28,28,,,,,,,,,,,,,,,,,,,,,,,,,,,,,,,,,,,,,,,,,,,,,,,,,,,,,,,,,,,,,,,,,,,,,,,,,,,,,,,,,,,,,,,,,,,,,,,,,,231.1129794690005,236.81269178300045,,,,,101520,0,1,0,3,0,1,2,0,6,2020_Oct_15_1050,listening_fmri,3.2.4,59.595903539443405,
0,parcelated_audio/22/22_30.ogg,,,,,,,,,0,0,0,0,0,0,0,0,0,0,0,0,,,,,,,,,,,,,0,0,0,0,0,29,29,29,,,,,,,,,,,,,,,,,,,,,,,,,,,,,,,,,,,,,,,,,,,,,,,,,,,,,,,,,,,,,,,,,,,,,,,,,,,,,,,,,,,,,,,,,,,,,,,,,,236.81304363399977,239.51017746700018,,,,,101520,0,1,0,3,0,1,2,0,6,2020_Oct_15_1050,listening_fmri,3.2.4,59.595903539443405,
0,parcelated_audio/22/22_31.ogg,,,,,,,,,0,0,0,0,0,0,0,0,0,0,0,0,,,,,,,,,,,,,0,0,0,0,0,30,30,30,,,,,,,,,,,,,,,,,,,,,,,,,,,,,,,,,,,,,,,,,,,,,,,,,,,,,,,,,,,,,,,,,,,,,,,,,,,,,,,,,,,,,,,,,,,,,,,,,,239.51076629599993,244.65657763800027,,,,,101520,0,1,0,3,0,1,2,0,6,2020_Oct_15_1050,listening_fmri,3.2.4,59.595903539443405,
0,parcelated_audio/22/22_32.ogg,,,,,,,,,0,0,0,0,0,0,0,0,0,0,0,0,,,,,,,,,,,,,0,0,0,0,0,31,31,31,,,,,,,,,,,,,,,,,,,,,,,,,,,,,,,,,,,,,,,,,,,,,,,,,,,,,,,,,,,,,,,,,,,,,,,,,,,,,,,,,,,,,,,,,,,,,,,,,,244.65703116300028,250.9786935130005,,,,,101520,0,1,0,3,0,1,2,0,6,2020_Oct_15_1050,listening_fmri,3.2.4,59.595903539443405,
0,parcelated_audio/22/22_33.ogg,,,,,,,,,0,0,0,0,0,0,0,0,0,0,0,0,,,,,,,,,,,,,0,0,0,0,0,32,32,32,,,,,,,,,,,,,,,,,,,,,,,,,,,,,,,,,,,,,,,,,,,,,,,,,,,,,,,,,,,,,,,,,,,,,,,,,,,,,,,,,,,,,,,,,,,,,,,,,,250.9791773019997,255.40264298500006,,,,,101520,0,1,0,3,0,1,2,0,6,2020_Oct_15_1050,listening_fmri,3.2.4,59.595903539443405,
0,parcelated_audio/22/22_34.ogg,,,,,,,,,0,0,0,0,0,0,0,0,0,0,0,0,,,,,,,,,,,,,0,0,0,0,0,33,33,33,,,,,,,,,,,,,,,,,,,,,,,,,,,,,,,,,,,,,,,,,,,,,,,,,,,,,,,,,,,,,,,,,,,,,,,,,,,,,,,,,,,,,,,,,,,,,,,,,,255.40321236,263.4280490399997,,,,,101520,0,1,0,3,0,1,2,0,6,2020_Oct_15_1050,listening_fmri,3.2.4,59.595903539443405,
0,parcelated_audio/22/22_35.ogg,,,,,,,,,0,0,0,0,0,0,0,0,0,0,0,0,,,,,,,,,,,,,0,0,0,0,0,34,34,34,,,,,,,,,,,,,,,,,,,,,,,,,,,,,,,,,,,,,,,,,,,,,,,,,,,,,,,,,,,,,,,,,,,,,,,,,,,,,,,,,,,,,,,,,,,,,,,,,,263.42851559800056,270.9384262700005,,,,,101520,0,1,0,3,0,1,2,0,6,2020_Oct_15_1050,listening_fmri,3.2.4,59.595903539443405,
0,parcelated_audio/22/22_36.ogg,,,,,,,,,0,0,0,0,0,0,0,0,0,0,0,0,,,,,,,,,,,,,0,0,0,0,0,35,35,35,,,,,,,,,,,,,,,,,,,,,,,,,,,,,,,,,,,,,,,,,,,,,,,,,,,,,,,,,,,,,,,,,,,,,,,,,,,,,,,,,,,,,,,,,,,,,,,,,,270.9388023829997,283.6465113940003,,,,,101520,0,1,0,3,0,1,2,0,6,2020_Oct_15_1050,listening_fmri,3.2.4,59.595903539443405,
0,parcelated_audio/22/22_37.ogg,,,,,,,,,0,0,0,0,0,0,0,0,0,0,0,0,,,,,,,,,,,,,0,0,0,0,0,36,36,36,,,,,,,,,,,,,,,,,,,,,,,,,,,,,,,,,,,,,,,,,,,,,,,,,,,,,,,,,,,,,,,,,,,,,,,,,,,,,,,,,,,,,,,,,,,,,,,,,,283.6492908959999,290.8066144730001,,,,,101520,0,1,0,3,0,1,2,0,6,2020_Oct_15_1050,listening_fmri,3.2.4,59.595903539443405,
0,,,,,,,,,,0,0,0,0,0,0,0,0,0,0,0,0,,,,,,,,,,,,,0,0,0,0,,,,,,,,,,,,,,,,,,,,,,,,,,,,,,,,,,,,,,,,,,,,,,,,,,,,,,,,,,,,,,,,,,,,,,,,,,,,,,,,,,,,,,,,,,,,,,,,,,,,,,,,,,,,101520,0,1,0,3,0,1,2,0,6,2020_Oct_15_1050,listening_fmri,3.2.4,59.595903539443405,
0,,,,,,,,,,0,0,0,0,0,0,0,0,0,0,0,0,,,,,,,,,,,,,,,,,,,,,,,,,,,,,,,,,,,,,,290.8071076870001,296.7992107279997,366.73772950700004,None,,,,,,,,,,,,,,,,,,,,,,,,,,,,,,,,,,,,,,,,,,,,,,,,,,,,,,,,,,,,,,,,,,,,,,,,,,,,,,,372.7416073589993,None,372.7416073589993,None,101520,0,1,0,3,0,1,2,0,6,2020_Oct_15_1050,listening_fmri,3.2.4,59.595903539443405,
0,,,,,,,,,,0,0,0,0,0,0,0,0,,,,,,,,,,,,,,,,,,,,,,,,,,,,,,,,,,,,,,,,,,,,,,,,,,,,,,,,,,,,,,,,,,,,,,,,,,,,,,,,,,,,,,,,,,,,,,,,,,,,,,,,,,,,,,,,,,,,,,,,,,,,,,,,101520,0,1,0,3,0,1,2,0,6,2020_Oct_15_1050,listening_fmri,3.2.4,59.595903539443405,
1,parcelated_audio/33/33_1.ogg,,,,,,,,,0,0,0,0,0,1,1,1,0,0,0,0,,,,,,,,,,,,,0,0,0,0,0,0,0,0,,,,,,,,,,,,,,,,,,,,,,373.7408384929995,None,373.7408384929995,None,5,0.1746789089993399,373.7408384929995,None,373.7408384929995,None,,,,,,,,,,,,,,,,,,,,,,,,,,,,,,,,,,,,,,,,,,,,,,,,,,,,,,,,,,,373.94236442500005,None,5,0.9731420380003328,373.94236442500005,None,299.0069434070001,302.01618177399996,302.0246372270003,311.9818551770004,,,,,101520,0,1,0,3,0,1,2,0,6,2020_Oct_15_1050,listening_fmri,3.2.4,59.595903539443405,
1,parcelated_audio/33/33_2.ogg,,,,,,,,,0,0,0,0,0,1,1,1,0,0,0,0,,,,,,,,,,,,,0,0,0,0,0,1,1,1,,,,,,,,,,,,,,,,,,,,,,,,,,,,,,,,,,,,,,,,,,,,,,,,,,,,,,,,,,,,,,,,,,,,,,,,,,,,,,,,,,,,,,,,,,,,,,,,,,311.982203173,322.5118519870002,,,,,101520,0,1,0,3,0,1,2,0,6,2020_Oct_15_1050,listening_fmri,3.2.4,59.595903539443405,
1,parcelated_audio/33/33_3.ogg,,,,,,,,,0,0,0,0,0,1,1,1,0,0,0,0,,,,,,,,,,,,,0,0,0,0,0,2,2,2,,,,,,,,,,,,,,,,,,,,,,,,,,,,,,,,,,,,,,,,,,,,,,,,,,,,,,,,,,,,,,,,,,,,,,,,,,,,,,,,,,,,,,,,,,,,,,,,,,322.5122042140001,329.0440622770002,,,,,101520,0,1,0,3,0,1,2,0,6,2020_Oct_15_1050,listening_fmri,3.2.4,59.595903539443405,
1,parcelated_audio/33/33_4.ogg,,,,,,,,,0,0,0,0,0,1,1,1,0,0,0,0,,,,,,,,,,,,,0,0,0,0,0,3,3,3,,,,,,,,,,,,,,,,,,,,,,,,,,,,,,,,,,,,,,,,,,,,,,,,,,,,,,,,,,,,,,,,,,,,,,,,,,,,,,,,,,,,,,,,,,,,,,,,,,329.04437988800055,332.6072594699999,,,,,101520,0,1,0,3,0,1,2,0,6,2020_Oct_15_1050,listening_fmri,3.2.4,59.595903539443405,
1,parcelated_audio/33/33_5.ogg,,,,,,,,,0,0,0,0,0,1,1,1,0,0,0,0,,,,,,,,,,,,,0,0,0,0,0,4,4,4,,,,,,,,,,,,,,,,,,,,,,,,,,,,,,,,,,,,,,,,,,,,,,,,,,,,,,,,,,,,,,,,,,,,,,,,,,,,,,,,,,,,,,,,,,,,,,,,,,332.60837402700054,343.8464002589999,,,,,101520,0,1,0,3,0,1,2,0,6,2020_Oct_15_1050,listening_fmri,3.2.4,59.595903539443405,
1,parcelated_audio/33/33_6.ogg,,,,,,,,,0,0,0,0,0,1,1,1,0,0,0,0,,,,,,,,,,,,,0,0,0,0,0,5,5,5,,,,,,,,,,,,,,,,,,,,,,,,,,,,,,,,,,,,,,,,,,,,,,,,,,,,,,,,,,,,,,,,,,,,,,,,,,,,,,,,,,,,,,,,,,,,,,,,,,343.8467422049998,355.5481837670004,,,,,101520,0,1,0,3,0,1,2,0,6,2020_Oct_15_1050,listening_fmri,3.2.4,59.595903539443405,
1,parcelated_audio/33/33_7.ogg,,,,,,,,,0,0,0,0,0,1,1,1,0,0,0,0,,,,,,,,,,,,,0,0,0,0,0,6,6,6,,,,,,,,,,,,,,,,,,,,,,,,,,,,,,,,,,,,,,,,,,,,,,,,,,,,,,,,,,,,,,,,,,,,,,,,,,,,,,,,,,,,,,,,,,,,,,,,,,355.5486134069997,370.09324942400053,,,,,101520,0,1,0,3,0,1,2,0,6,2020_Oct_15_1050,listening_fmri,3.2.4,59.595903539443405,
1,parcelated_audio/33/33_8.ogg,,,,,,,,,0,0,0,0,0,1,1,1,0,0,0,0,,,,,,,,,,,,,0,0,0,0,0,7,7,7,,,,,,,,,,,,,,,,,,,,,,,,,,,,,,,,,,,,,,,,,,,,,,,,,,,,,,,,,,,,,,,,,,,,,,,,,,,,,,,,,,,,,,,,,,,,,,,,,,370.09360114100036,376.32161933600037,,,,,101520,0,1,0,3,0,1,2,0,6,2020_Oct_15_1050,listening_fmri,3.2.4,59.595903539443405,
1,parcelated_audio/33/33_9.ogg,,,,,,,,,0,0,0,0,0,1,1,1,0,0,0,0,,,,,,,,,,,,,0,0,0,0,0,8,8,8,,,,,,,,,,,,,,,,,,,,,,,,,,,,,,,,,,,,,,,,,,,,,,,,,,,,,,,,,,,,,,,,,,,,,,,,,,,,,,,,,,,,,,,,,,,,,,,,,,376.3225271500005,380.035611669,,,,,101520,0,1,0,3,0,1,2,0,6,2020_Oct_15_1050,listening_fmri,3.2.4,59.595903539443405,
1,parcelated_audio/33/33_10.ogg,,,,,,,,,0,0,0,0,0,1,1,1,0,0,0,0,,,,,,,,,,,,,0,0,0,0,0,9,9,9,,,,,,,,,,,,,,,,,,,,,,,,,,,,,,,,,,,,,,,,,,,,,,,,,,,,,,,,,,,,,,,,,,,,,,,,,,,,,,,,,,,,,,,,,,,,,,,,,,380.0359289050002,385.3877701480005,,,,,101520,0,1,0,3,0,1,2,0,6,2020_Oct_15_1050,listening_fmri,3.2.4,59.595903539443405,
1,parcelated_audio/33/33_11.ogg,,,,,,,,,0,0,0,0,0,1,1,1,0,0,0,0,,,,,,,,,,,,,0,0,0,0,0,10,10,10,,,,,,,,,,,,,,,,,,,,,,,,,,,,,,,,,,,,,,,,,,,,,,,,,,,,,,,,,,,,,,,,,,,,,,,,,,,,,,,,,,,,,,,,,,,,,,,,,,385.388186098,399.79804809899997,,,,,101520,0,1,0,3,0,1,2,0,6,2020_Oct_15_1050,listening_fmri,3.2.4,59.595903539443405,
1,parcelated_audio/33/33_12.ogg,,,,,,,,,0,0,0,0,0,1,1,1,0,0,0,0,,,,,,,,,,,,,0,0,0,0,0,11,11,11,,,,,,,,,,,,,,,,,,,,,,,,,,,,,,,,,,,,,,,,,,,,,,,,,,,,,,,,,,,,,,,,,,,,,,,,,,,,,,,,,,,,,,,,,,,,,,,,,,399.801265993,405.8828976670002,,,,,101520,0,1,0,3,0,1,2,0,6,2020_Oct_15_1050,listening_fmri,3.2.4,59.595903539443405,
1,parcelated_audio/33/33_13.ogg,,,,,,,,,0,0,0,0,0,1,1,1,0,0,0,0,,,,,,,,,,,,,0,0,0,0,0,12,12,12,,,,,,,,,,,,,,,,,,,,,,,,,,,,,,,,,,,,,,,,,,,,,,,,,,,,,,,,,,,,,,,,,,,,,,,,,,,,,,,,,,,,,,,,,,,,,,,,,,405.8832465960004,413.26794373099983,,,,,101520,0,1,0,3,0,1,2,0,6,2020_Oct_15_1050,listening_fmri,3.2.4,59.595903539443405,
1,parcelated_audio/33/33_14.ogg,,,,,,,,,0,0,0,0,0,1,1,1,0,0,0,0,,,,,,,,,,,,,0,0,0,0,0,13,13,13,,,,,,,,,,,,,,,,,,,,,,,,,,,,,,,,,,,,,,,,,,,,,,,,,,,,,,,,,,,,,,,,,,,,,,,,,,,,,,,,,,,,,,,,,,,,,,,,,,413.268368862,425.71102148299997,,,,,101520,0,1,0,3,0,1,2,0,6,2020_Oct_15_1050,listening_fmri,3.2.4,59.595903539443405,
1,parcelated_audio/33/33_15.ogg,,,,,,,,,0,0,0,0,0,1,1,1,0,0,0,0,,,,,,,,,,,,,0,0,0,0,0,14,14,14,,,,,,,,,,,,,,,,,,,,,,,,,,,,,,,,,,,,,,,,,,,,,,,,,,,,,,,,,,,,,,,,,,,,,,,,,,,,,,,,,,,,,,,,,,,,,,,,,,425.71136609099995,444.26669572799983,,,,,101520,0,1,0,3,0,1,2,0,6,2020_Oct_15_1050,listening_fmri,3.2.4,59.595903539443405,
1,parcelated_audio/33/33_16.ogg,,,,,,,,,0,0,0,0,0,1,1,1,0,0,0,0,,,,,,,,,,,,,0,0,0,0,0,15,15,15,,,,,,,,,,,,,,,,,,,,,,,,,,,,,,,,,,,,,,,,,,,,,,,,,,,,,,,,,,,,,,,,,,,,,,,,,,,,,,,,,,,,,,,,,,,,,,,,,,444.2669692059999,456.493728423,,,,,101520,0,1,0,3,0,1,2,0,6,2020_Oct_15_1050,listening_fmri,3.2.4,59.595903539443405,
1,parcelated_audio/33/33_17.ogg,,,,,,,,,0,0,0,0,0,1,1,1,0,0,0,0,,,,,,,,,,,,,0,0,0,0,0,16,16,16,,,,,,,,,,,,,,,,,,,,,,,,,,,,,,,,,,,,,,,,,,,,,,,,,,,,,,,,,,,,,,,,,,,,,,,,,,,,,,,,,,,,,,,,,,,,,,,,,,456.49539462600023,467.6890070340005,,,,,101520,0,1,0,3,0,1,2,0,6,2020_Oct_15_1050,listening_fmri,3.2.4,59.595903539443405,
1,parcelated_audio/33/33_18.ogg,,,,,,,,,0,0,0,0,0,1,1,1,0,0,0,0,,,,,,,,,,,,,0,0,0,0,0,17,17,17,,,,,,,,,,,,,,,,,,,,,,,,,,,,,,,,,,,,,,,,,,,,,,,,,,,,,,,,,,,,,,,,,,,,,,,,,,,,,,,,,,,,,,,,,,,,,,,,,,467.690077579,476.2369041259999,,,,,101520,0,1,0,3,0,1,2,0,6,2020_Oct_15_1050,listening_fmri,3.2.4,59.595903539443405,
1,parcelated_audio/33/33_19.ogg,,,,,,,,,0,0,0,0,0,1,1,1,0,0,0,0,,,,,,,,,,,,,0,0,0,0,0,18,18,18,,,,,,,,,,,,,,,,,,,,,,,,,,,,,,,,,,,,,,,,,,,,,,,,,,,,,,,,,,,,,,,,,,,,,,,,,,,,,,,,,,,,,,,,,,,,,,,,,,476.23725833200024,479.6724723460002,,,,,101520,0,1,0,3,0,1,2,0,6,2020_Oct_15_1050,listening_fmri,3.2.4,59.595903539443405,
1,parcelated_audio/33/33_20.ogg,,,,,,,,,0,0,0,0,0,1,1,1,0,0,0,0,,,,,,,,,,,,,0,0,0,0,0,19,19,19,,,,,,,,,,,,,,,,,,,,,,,,,,,,,,,,,,,,,,,,,,,,,,,,,,,,,,,,,,,,,,,,,,,,,,,,,,,,,,,,,,,,,,,,,,,,,,,,,,479.6729545779999,486.5496971140001,,,,,101520,0,1,0,3,0,1,2,0,6,2020_Oct_15_1050,listening_fmri,3.2.4,59.595903539443405,
1,parcelated_audio/33/33_21.ogg,,,,,,,,,0,0,0,0,0,1,1,1,0,0,0,0,,,,,,,,,,,,,0,0,0,0,0,20,20,20,,,,,,,,,,,,,,,,,,,,,,,,,,,,,,,,,,,,,,,,,,,,,,,,,,,,,,,,,,,,,,,,,,,,,,,,,,,,,,,,,,,,,,,,,,,,,,,,,,486.5501472060005,490.5806482799999,,,,,101520,0,1,0,3,0,1,2,0,6,2020_Oct_15_1050,listening_fmri,3.2.4,59.595903539443405,
1,parcelated_audio/33/33_22.ogg,,,,,,,,,0,0,0,0,0,1,1,1,0,0,0,0,,,,,,,,,,,,,0,0,0,0,0,21,21,21,,,,,,,,,,,,,,,,,,,,,,,,,,,,,,,,,,,,,,,,,,,,,,,,,,,,,,,,,,,,,,,,,,,,,,,,,,,,,,,,,,,,,,,,,,,,,,,,,,490.5810014560002,502.41493863100004,,,,,101520,0,1,0,3,0,1,2,0,6,2020_Oct_15_1050,listening_fmri,3.2.4,59.595903539443405,
1,parcelated_audio/33/33_23.ogg,,,,,,,,,0,0,0,0,0,1,1,1,0,0,0,0,,,,,,,,,,,,,0,0,0,0,0,22,22,22,,,,,,,,,,,,,,,,,,,,,,,,,,,,,,,,,,,,,,,,,,,,,,,,,,,,,,,,,,,,,,,,,,,,,,,,,,,,,,,,,,,,,,,,,,,,,,,,,,502.416759617,512.8993317350005,,,,,101520,0,1,0,3,0,1,2,0,6,2020_Oct_15_1050,listening_fmri,3.2.4,59.595903539443405,
1,parcelated_audio/33/33_24.ogg,,,,,,,,,0,0,0,0,0,1,1,1,0,0,0,0,,,,,,,,,,,,,0,0,0,0,0,23,23,23,,,,,,,,,,,,,,,,,,,,,,,,,,,,,,,,,,,,,,,,,,,,,,,,,,,,,,,,,,,,,,,,,,,,,,,,,,,,,,,,,,,,,,,,,,,,,,,,,,512.89972984,519.1531936470001,,,,,101520,0,1,0,3,0,1,2,0,6,2020_Oct_15_1050,listening_fmri,3.2.4,59.595903539443405,
1,parcelated_audio/33/33_25.ogg,,,,,,,,,0,0,0,0,0,1,1,1,0,0,0,0,,,,,,,,,,,,,0,0,0,0,0,24,24,24,,,,,,,,,,,,,,,,,,,,,,,,,,,,,,,,,,,,,,,,,,,,,,,,,,,,,,,,,,,,,,,,,,,,,,,,,,,,,,,,,,,,,,,,,,,,,,,,,,519.153546822,527.3447947209997,,,,,101520,0,1,0,3,0,1,2,0,6,2020_Oct_15_1050,listening_fmri,3.2.4,59.595903539443405,
1,parcelated_audio/33/33_26.ogg,,,,,,,,,0,0,0,0,0,1,1,1,0,0,0,0,,,,,,,,,,,,,0,0,0,0,0,25,25,25,,,,,,,,,,,,,,,,,,,,,,,,,,,,,,,,,,,,,,,,,,,,,,,,,,,,,,,,,,,,,,,,,,,,,,,,,,,,,,,,,,,,,,,,,,,,,,,,,,527.3485066330004,534.4238209060004,,,,,101520,0,1,0,3,0,1,2,0,6,2020_Oct_15_1050,listening_fmri,3.2.4,59.595903539443405,
1,parcelated_audio/33/33_27.ogg,,,,,,,,,0,0,0,0,0,1,1,1,0,0,0,0,,,,,,,,,,,,,0,0,0,0,0,26,26,26,,,,,,,,,,,,,,,,,,,,,,,,,,,,,,,,,,,,,,,,,,,,,,,,,,,,,,,,,,,,,,,,,,,,,,,,,,,,,,,,,,,,,,,,,,,,,,,,,,534.4242216170005,541.9561197060002,,,,,101520,0,1,0,3,0,1,2,0,6,2020_Oct_15_1050,listening_fmri,3.2.4,59.595903539443405,
1,parcelated_audio/33/33_28.ogg,,,,,,,,,0,0,0,0,0,1,1,1,0,0,0,0,,,,,,,,,,,,,0,0,0,0,0,27,27,27,,,,,,,,,,,,,,,,,,,,,,,,,,,,,,,,,,,,,,,,,,,,,,,,,,,,,,,,,,,,,,,,,,,,,,,,,,,,,,,,,,,,,,,,,,,,,,,,,,541.9572865600003,547.6288185040003,,,,,101520,0,1,0,3,0,1,2,0,6,2020_Oct_15_1050,listening_fmri,3.2.4,59.595903539443405,
1,parcelated_audio/33/33_29.ogg,,,,,,,,,0,0,0,0,0,1,1,1,0,0,0,0,,,,,,,,,,,,,0,0,0,0,0,28,28,28,,,,,,,,,,,,,,,,,,,,,,,,,,,,,,,,,,,,,,,,,,,,,,,,,,,,,,,,,,,,,,,,,,,,,,,,,,,,,,,,,,,,,,,,,,,,,,,,,,547.6291693100002,555.5426371399999,,,,,101520,0,1,0,3,0,1,2,0,6,2020_Oct_15_1050,listening_fmri,3.2.4,59.595903539443405,
1,parcelated_audio/33/33_30.ogg,,,,,,,,,0,0,0,0,0,1,1,1,0,0,0,0,,,,,,,,,,,,,0,0,0,0,0,29,29,29,,,,,,,,,,,,,,,,,,,,,,,,,,,,,,,,,,,,,,,,,,,,,,,,,,,,,,,,,,,,,,,,,,,,,,,,,,,,,,,,,,,,,,,,,,,,,,,,,,555.5430728379997,570.4871175520002,,,,,101520,0,1,0,3,0,1,2,0,6,2020_Oct_15_1050,listening_fmri,3.2.4,59.595903539443405,
1,parcelated_audio/33/33_31.ogg,,,,,,,,,0,0,0,0,0,1,1,1,0,0,0,0,,,,,,,,,,,,,0,0,0,0,0,30,30,30,,,,,,,,,,,,,,,,,,,,,,,,,,,,,,,,,,,,,,,,,,,,,,,,,,,,,,,,,,,,,,,,,,,,,,,,,,,,,,,,,,,,,,,,,,,,,,,,,,570.4874911500001,580.2040371610001,,,,,101520,0,1,0,3,0,1,2,0,6,2020_Oct_15_1050,listening_fmri,3.2.4,59.595903539443405,
1,parcelated_audio/33/33_32.ogg,,,,,,,,,0,0,0,0,0,1,1,1,0,0,0,0,,,,,,,,,,,,,0,0,0,0,0,31,31,31,,,,,,,,,,,,,,,,,,,,,,,,,,,,,,,,,,,,,,,,,,,,,,,,,,,,,,,,,,,,,,,,,,,,,,,,,,,,,,,,,,,,,,,,,,,,,,,,,,580.204386073,585.8384966370004,,,,,101520,0,1,0,3,0,1,2,0,6,2020_Oct_15_1050,listening_fmri,3.2.4,59.595903539443405,
1,,,,,,,,,,0,0,0,0,0,1,1,1,0,0,0,0,,,,,,,,,,,,,0,0,0,0,,,,,,,,,,,,,,,,,,,,,,,,,,,,,,,,,,,,,,,,,,,,,,,,,,,,,,,,,,,,,,,,,,,,,,,,,,,,,,,,,,,,,,,,,,,,,,,,,,,,,,,,,,,,101520,0,1,0,3,0,1,2,0,6,2020_Oct_15_1050,listening_fmri,3.2.4,59.595903539443405,
,,,,,,,,,,,,,,,,,,,,,,,,,,,,,,,,,,,,,,,,,,,,,,,,,,,,,,,,,,,585.838983056,591.8326929229997,661.7756584469998,None,,,,,,,,,,,,,,,,,,,,,,,,,,,,,,,,,,,,,,,,,,,,,,,,,,,,,,,,,,,,,,,,,,,,,,,,,,,,,,,667.7842149600001,None,667.7842149600001,None,,,,,,,,,,,,,,,
﻿count,audio,trials_14.thisRepN,trials_14.thisTrialN,trials_14.thisN,trials_14.thisIndex,trials_3.thisRepN,trials_3.thisTrialN,trials_3.thisN,trials_3.thisIndex,trials_4.thisRepN,trials_4.thisTrialN,trials_4.thisN,trials_4.thisIndex,trials_6.thisRepN,trials_6.thisTrialN,trials_6.thisN,trials_6.thisIndex,trials_9.thisRepN,trials_9.thisTrialN,trials_9.thisN,trials_9.thisIndex,trials_10.thisRepN,trials_10.thisTrialN,trials_10.thisN,trials_10.thisIndex,trials_11.thisRepN,trials_11.thisTrialN,trials_11.thisN,trials_11.thisIndex,trials_12.thisRepN,trials_12.thisTrialN,trials_12.thisN,trials_12.thisIndex,trials_25.thisRepN,trials_25.thisTrialN,trials_25.thisN,trials_25.thisIndex,trials_15.thisRepN,trials_15.thisTrialN,trials_15.thisN,trials_15.thisIndex,trials_26.thisRepN,trials_26.thisTrialN,trials_26.thisN,trials_26.thisIndex,story_list_block2,action_list_block2,textTrigger.started,textTrigger.stopped,getTrigger.keys,getTrigger.rt,getTrigger.started,getTrigger.stopped,triggerTime,text_76.started,text_76.stopped,text_77.started,text_77.stopped,startWait,endWait,image_23.started,image_23.stopped,text_55.started,text_55.stopped,text_56.started,text_56.stopped,key_resp_2.keys,key_resp_2.rt,key_resp_2.started,key_resp_2.stopped,text_82.started,text_82.stopped,text_57.started,text_57.stopped,key_resp_17.keys,key_resp_17.rt,key_resp_17.started,key_resp_17.stopped,text_83.started,text_83.stopped,text_60.started,text_60.stopped,image_2.started,image_2.stopped,text_58.started,text_58.stopped,key_resp_23.keys,key_resp_23.rt,key_resp_23.started,key_resp_23.stopped,text_62.started,text_62.stopped,key_resp_18.keys,key_resp_18.rt,key_resp_18.started,key_resp_18.stopped,text_84.started,text_84.stopped,question1_2.started,question1_2.stopped,question2_2.started,question2_2.stopped,question3_2.started,question3_2.stopped,question4_2.started,question4_2.stopped,question5_2.started,question5_2.stopped,question6_2.started,question6_2.stopped,image_15.started,image_15.stopped,text_59.started,text_59.stopped,key_resp_19.keys,key_resp_19.rt,key_resp_19.started,key_resp_19.stopped,text_85.started,text_85.stopped,text_61.started,text_61.stopped,image_17.started,image_17.stopped,text_63.started,text_63.stopped,key_resp_24.keys,key_resp_24.rt,key_resp_24.started,key_resp_24.stopped,text_64.started,text_64.stopped,key_resp_20.keys,key_resp_20.rt,key_resp_20.started,key_resp_20.stopped,storyImage_StartTime,storyImage_EndTime,clip_StartTime,clip_EndTime,text_67.started,text_67.stopped,text_68.started,text_68.stopped,participant,sA,sB,lA,lB,block_struct,play_stories,block,behavioral,random_seed,date,expName,psychopyVersion,frameRate,
0,,,,,,,,,,0,0,0,0,0,0,0,0,0,0,0,0,0,0,0,0,0,0,0,0,,,,,,,,,,,,,,,,,[22 33 11 42 24 13 31 44],[1 4 3 4 3 1 2 2],16.726008259999617,None,equal,59.19354418900002,16.726008259999617,None,59.22304168899973,16.726008259999617,None,16.726008259999617,None,0.00035244399987277575,5.998284612000134,75.94195802200011,None,81.95886361700013,None,81.95886361700013,None,5,0.9596483400000579,81.95886361700013,None,81.95886361700013,None,82.9411484329994,None,5,0.9773642930003916,82.9411484329994,None,82.9411484329994,None,83.958652454,None,83.958652454,None,83.958652454,None,5,0.9598591379999561,83.958652454,None,84.94142056799956,None,5,0.9770701919997009,84.94142056799956,None,84.94142056799956,None,86.02526484200007,None,86.02526484200007,None,86.02526484200007,None,86.02526484200007,None,86.02526484200007,None,86.02526484200007,None,86.02526484200007,None,,,,,,,,,,,,,,,,,,,,,,,,,,,,,,,,,101520,0,1,0,3,0,1,2,0,6,2020_Oct_15_1050,listening_fmri,3.2.4,59.595903539443405,
0,,,,,,,,,,0,0,0,0,0,0,0,0,0,0,0,0,0,0,0,0,,,,,,,,,,,,,,,,,,,,,,,,,,,,,,,,,,,,,,,,,,,,,,,,,,,,,,,,,,,,,,,,,,,,,,,,,,,,,,,,,,,,,,,,104.14178202999938,None,5,0.77665912700013,104.14178202999938,None,104.14178202999938,None,104.95842308299962,None,104.95842308299962,None,104.95842308299962,None,5,0.9599441330001355,104.95842308299962,None,,,,,,,,,,,,,,,101520,0,1,0,3,0,1,2,0,6,2020_Oct_15_1050,listening_fmri,3.2.4,59.595903539443405,
0,parcelated_audio/22/22_1.ogg,,,,,,,,,0,0,0,0,0,0,0,0,0,0,0,0,,,,,,,,,,,,,0,0,0,0,0,0,0,0,,,,,,,,,,,,,,,,,,,,,,,,,,,,,,,,,,,,,,,,,,,,,,,,,,,,,,,,,,,,,,,,,,,,,,,,,,,,,,,,,,,,,,,,,,105.94113281799946,None,5,0.9772603229994274,105.94113281799946,None,31.029037324000456,34.03244457999972,34.038071294000474,47.08418718400026,,,,,101520,0,1,0,3,0,1,2,0,6,2020_Oct_15_1050,listening_fmri,3.2.4,59.595903539443405,
0,parcelated_audio/22/22_2.ogg,,,,,,,,,0,0,0,0,0,0,0,0,0,0,0,0,,,,,,,,,,,,,0,0,0,0,0,1,1,1,,,,,,,,,,,,,,,,,,,,,,,,,,,,,,,,,,,,,,,,,,,,,,,,,,,,,,,,,,,,,,,,,,,,,,,,,,,,,,,,,,,,,,,,,,,,,,,,,,47.08531618899997,53.35015031900002,,,,,101520,0,1,0,3,0,1,2,0,6,2020_Oct_15_1050,listening_fmri,3.2.4,59.595903539443405,
0,parcelated_audio/22/22_3.ogg,,,,,,,,,0,0,0,0,0,0,0,0,0,0,0,0,,,,,,,,,,,,,0,0,0,0,0,2,2,2,,,,,,,,,,,,,,,,,,,,,,,,,,,,,,,,,,,,,,,,,,,,,,,,,,,,,,,,,,,,,,,,,,,,,,,,,,,,,,,,,,,,,,,,,,,,,,,,,,53.350570278000305,66.28100949600048,,,,,101520,0,1,0,3,0,1,2,0,6,2020_Oct_15_1050,listening_fmri,3.2.4,59.595903539443405,
0,parcelated_audio/22/22_4.ogg,,,,,,,,,0,0,0,0,0,0,0,0,0,0,0,0,,,,,,,,,,,,,0,0,0,0,0,3,3,3,,,,,,,,,,,,,,,,,,,,,,,,,,,,,,,,,,,,,,,,,,,,,,,,,,,,,,,,,,,,,,,,,,,,,,,,,,,,,,,,,,,,,,,,,,,,,,,,,,66.28421434400025,78.68297724400054,,,,,101520,0,1,0,3,0,1,2,0,6,2020_Oct_15_1050,listening_fmri,3.2.4,59.595903539443405,
0,parcelated_audio/22/22_5.ogg,,,,,,,,,0,0,0,0,0,0,0,0,0,0,0,0,,,,,,,,,,,,,0,0,0,0,0,4,4,4,,,,,,,,,,,,,,,,,,,,,,,,,,,,,,,,,,,,,,,,,,,,,,,,,,,,,,,,,,,,,,,,,,,,,,,,,,,,,,,,,,,,,,,,,,,,,,,,,,78.6841484180004,84.59848168999997,,,,,101520,0,1,0,3,0,1,2,0,6,2020_Oct_15_1050,listening_fmri,3.2.4,59.595903539443405,
0,parcelated_audio/22/22_6.ogg,,,,,,,,,0,0,0,0,0,0,0,0,0,0,0,0,,,,,,,,,,,,,0,0,0,0,0,5,5,5,,,,,,,,,,,,,,,,,,,,,,,,,,,,,,,,,,,,,,,,,,,,,,,,,,,,,,,,,,,,,,,,,,,,,,,,,,,,,,,,,,,,,,,,,,,,,,,,,,84.59882054500031,93.76889796799969,,,,,101520,0,1,0,3,0,1,2,0,6,2020_Oct_15_1050,listening_fmri,3.2.4,59.595903539443405,
0,parcelated_audio/22/22_7.ogg,,,,,,,,,0,0,0,0,0,0,0,0,0,0,0,0,,,,,,,,,,,,,0,0,0,0,0,6,6,6,,,,,,,,,,,,,,,,,,,,,,,,,,,,,,,,,,,,,,,,,,,,,,,,,,,,,,,,,,,,,,,,,,,,,,,,,,,,,,,,,,,,,,,,,,,,,,,,,,93.7692715459998,98.74932314800026,,,,,101520,0,1,0,3,0,1,2,0,6,2020_Oct_15_1050,listening_fmri,3.2.4,59.595903539443405,
0,parcelated_audio/22/22_8.ogg,,,,,,,,,0,0,0,0,0,0,0,0,0,0,0,0,,,,,,,,,,,,,0,0,0,0,0,7,7,7,,,,,,,,,,,,,,,,,,,,,,,,,,,,,,,,,,,,,,,,,,,,,,,,,,,,,,,,,,,,,,,,,,,,,,,,,,,,,,,,,,,,,,,,,,,,,,,,,,98.74966992500049,102.26986216600017,,,,,101520,0,1,0,3,0,1,2,0,6,2020_Oct_15_1050,listening_fmri,3.2.4,59.595903539443405,
0,parcelated_audio/22/22_9.ogg,,,,,,,,,0,0,0,0,0,0,0,0,0,0,0,0,,,,,,,,,,,,,0,0,0,0,0,8,8,8,,,,,,,,,,,,,,,,,,,,,,,,,,,,,,,,,,,,,,,,,,,,,,,,,,,,,,,,,,,,,,,,,,,,,,,,,,,,,,,,,,,,,,,,,,,,,,,,,,102.27153754400024,106.1633742160002,,,,,101520,0,1,0,3,0,1,2,0,6,2020_Oct_15_1050,listening_fmri,3.2.4,59.595903539443405,
0,parcelated_audio/22/22_10.ogg,,,,,,,,,0,0,0,0,0,0,0,0,0,0,0,0,,,,,,,,,,,,,0,0,0,0,0,9,9,9,,,,,,,,,,,,,,,,,,,,,,,,,,,,,,,,,,,,,,,,,,,,,,,,,,,,,,,,,,,,,,,,,,,,,,,,,,,,,,,,,,,,,,,,,,,,,,,,,,106.16385806000017,110.92141313800039,,,,,101520,0,1,0,3,0,1,2,0,6,2020_Oct_15_1050,listening_fmri,3.2.4,59.595903539443405,
0,parcelated_audio/22/22_11.ogg,,,,,,,,,0,0,0,0,0,0,0,0,0,0,0,0,,,,,,,,,,,,,0,0,0,0,0,10,10,10,,,,,,,,,,,,,,,,,,,,,,,,,,,,,,,,,,,,,,,,,,,,,,,,,,,,,,,,,,,,,,,,,,,,,,,,,,,,,,,,,,,,,,,,,,,,,,,,,,110.92177558399999,118.20346258100017,,,,,101520,0,1,0,3,0,1,2,0,6,2020_Oct_15_1050,listening_fmri,3.2.4,59.595903539443405,
0,parcelated_audio/22/22_12.ogg,,,,,,,,,0,0,0,0,0,0,0,0,0,0,0,0,,,,,,,,,,,,,0,0,0,0,0,11,11,11,,,,,,,,,,,,,,,,,,,,,,,,,,,,,,,,,,,,,,,,,,,,,,,,,,,,,,,,,,,,,,,,,,,,,,,,,,,,,,,,,,,,,,,,,,,,,,,,,,118.2039880530001,126.00317034900036,,,,,101520,0,1,0,3,0,1,2,0,6,2020_Oct_15_1050,listening_fmri,3.2.4,59.595903539443405,
0,parcelated_audio/22/22_13.ogg,,,,,,,,,0,0,0,0,0,0,0,0,0,0,0,0,,,,,,,,,,,,,0,0,0,0,0,12,12,12,,,,,,,,,,,,,,,,,,,,,,,,,,,,,,,,,,,,,,,,,,,,,,,,,,,,,,,,,,,,,,,,,,,,,,,,,,,,,,,,,,,,,,,,,,,,,,,,,,126.00363078800001,133.2636739239997,,,,,101520,0,1,0,3,0,1,2,0,6,2020_Oct_15_1050,listening_fmri,3.2.4,59.595903539443405,
0,parcelated_audio/22/22_14.ogg,,,,,,,,,0,0,0,0,0,0,0,0,0,0,0,0,,,,,,,,,,,,,0,0,0,0,0,13,13,13,,,,,,,,,,,,,,,,,,,,,,,,,,,,,,,,,,,,,,,,,,,,,,,,,,,,,,,,,,,,,,,,,,,,,,,,,,,,,,,,,,,,,,,,,,,,,,,,,,133.26406977700026,138.86344789299983,,,,,101520,0,1,0,3,0,1,2,0,6,2020_Oct_15_1050,listening_fmri,3.2.4,59.595903539443405,
0,parcelated_audio/22/22_15.ogg,,,,,,,,,0,0,0,0,0,0,0,0,0,0,0,0,,,,,,,,,,,,,0,0,0,0,0,14,14,14,,,,,,,,,,,,,,,,,,,,,,,,,,,,,,,,,,,,,,,,,,,,,,,,,,,,,,,,,,,,,,,,,,,,,,,,,,,,,,,,,,,,,,,,,,,,,,,,,,138.86376492700037,146.63197727900024,,,,,101520,0,1,0,3,0,1,2,0,6,2020_Oct_15_1050,listening_fmri,3.2.4,59.595903539443405,
0,parcelated_audio/22/22_16.ogg,,,,,,,,,0,0,0,0,0,0,0,0,0,0,0,0,,,,,,,,,,,,,0,0,0,0,0,15,15,15,,,,,,,,,,,,,,,,,,,,,,,,,,,,,,,,,,,,,,,,,,,,,,,,,,,,,,,,,,,,,,,,,,,,,,,,,,,,,,,,,,,,,,,,,,,,,,,,,,146.63240132700048,155.29671226200026,,,,,101520,0,1,0,3,0,1,2,0,6,2020_Oct_15_1050,listening_fmri,3.2.4,59.595903539443405,
0,parcelated_audio/22/22_17.ogg,,,,,,,,,0,0,0,0,0,0,0,0,0,0,0,0,,,,,,,,,,,,,0,0,0,0,0,16,16,16,,,,,,,,,,,,,,,,,,,,,,,,,,,,,,,,,,,,,,,,,,,,,,,,,,,,,,,,,,,,,,,,,,,,,,,,,,,,,,,,,,,,,,,,,,,,,,,,,,155.29704829000002,158.42844449699987,,,,,101520,0,1,0,3,0,1,2,0,6,2020_Oct_15_1050,listening_fmri,3.2.4,59.595903539443405,
0,parcelated_audio/22/22_18.ogg,,,,,,,,,0,0,0,0,0,0,0,0,0,0,0,0,,,,,,,,,,,,,0,0,0,0,0,17,17,17,,,,,,,,,,,,,,,,,,,,,,,,,,,,,,,,,,,,,,,,,,,,,,,,,,,,,,,,,,,,,,,,,,,,,,,,,,,,,,,,,,,,,,,,,,,,,,,,,,158.4294770460001,165.15354259000014,,,,,101520,0,1,0,3,0,1,2,0,6,2020_Oct_15_1050,listening_fmri,3.2.4,59.595903539443405,
0,parcelated_audio/22/22_19.ogg,,,,,,,,,0,0,0,0,0,0,0,0,0,0,0,0,,,,,,,,,,,,,0,0,0,0,0,18,18,18,,,,,,,,,,,,,,,,,,,,,,,,,,,,,,,,,,,,,,,,,,,,,,,,,,,,,,,,,,,,,,,,,,,,,,,,,,,,,,,,,,,,,,,,,,,,,,,,,,165.15390453500004,170.107637737,,,,,101520,0,1,0,3,0,1,2,0,6,2020_Oct_15_1050,listening_fmri,3.2.4,59.595903539443405,
0,parcelated_audio/22/22_20.ogg,,,,,,,,,0,0,0,0,0,0,0,0,0,0,0,0,,,,,,,,,,,,,0,0,0,0,0,19,19,19,,,,,,,,,,,,,,,,,,,,,,,,,,,,,,,,,,,,,,,,,,,,,,,,,,,,,,,,,,,,,,,,,,,,,,,,,,,,,,,,,,,,,,,,,,,,,,,,,,170.10813009499998,184.2257958070004,,,,,101520,0,1,0,3,0,1,2,0,6,2020_Oct_15_1050,listening_fmri,3.2.4,59.595903539443405,
0,parcelated_audio/22/22_21.ogg,,,,,,,,,0,0,0,0,0,0,0,0,0,0,0,0,,,,,,,,,,,,,0,0,0,0,0,20,20,20,,,,,,,,,,,,,,,,,,,,,,,,,,,,,,,,,,,,,,,,,,,,,,,,,,,,,,,,,,,,,,,,,,,,,,,,,,,,,,,,,,,,,,,,,,,,,,,,,,184.22746009000002,186.23276620199977,,,,,101520,0,1,0,3,0,1,2,0,6,2020_Oct_15_1050,listening_fmri,3.2.4,59.595903539443405,
0,parcelated_audio/22/22_22.ogg,,,,,,,,,0,0,0,0,0,0,0,0,0,0,0,0,,,,,,,,,,,,,0,0,0,0,0,21,21,21,,,,,,,,,,,,,,,,,,,,,,,,,,,,,,,,,,,,,,,,,,,,,,,,,,,,,,,,,,,,,,,,,,,,,,,,,,,,,,,,,,,,,,,,,,,,,,,,,,186.23318822800047,189.36707672900047,,,,,101520,0,1,0,3,0,1,2,0,6,2020_Oct_15_1050,listening_fmri,3.2.4,59.595903539443405,
0,parcelated_audio/22/22_23.ogg,,,,,,,,,0,0,0,0,0,0,0,0,0,0,0,0,,,,,,,,,,,,,0,0,0,0,0,22,22,22,,,,,,,,,,,,,,,,,,,,,,,,,,,,,,,,,,,,,,,,,,,,,,,,,,,,,,,,,,,,,,,,,,,,,,,,,,,,,,,,,,,,,,,,,,,,,,,,,,189.36741048899967,195.86841405799987,,,,,101520,0,1,0,3,0,1,2,0,6,2020_Oct_15_1050,listening_fmri,3.2.4,59.595903539443405,
0,parcelated_audio/22/22_24.ogg,,,,,,,,,0,0,0,0,0,0,0,0,0,0,0,0,,,,,,,,,,,,,0,0,0,0,0,23,23,23,,,,,,,,,,,,,,,,,,,,,,,,,,,,,,,,,,,,,,,,,,,,,,,,,,,,,,,,,,,,,,,,,,,,,,,,,,,,,,,,,,,,,,,,,,,,,,,,,,195.8688141140001,201.59803188499973,,,,,101520,0,1,0,3,0,1,2,0,6,2020_Oct_15_1050,listening_fmri,3.2.4,59.595903539443405,
0,parcelated_audio/22/22_25.ogg,,,,,,,,,0,0,0,0,0,0,0,0,0,0,0,0,,,,,,,,,,,,,0,0,0,0,0,24,24,24,,,,,,,,,,,,,,,,,,,,,,,,,,,,,,,,,,,,,,,,,,,,,,,,,,,,,,,,,,,,,,,,,,,,,,,,,,,,,,,,,,,,,,,,,,,,,,,,,,201.5983799100004,214.27104286699978,,,,,101520,0,1,0,3,0,1,2,0,6,2020_Oct_15_1050,listening_fmri,3.2.4,59.595903539443405,
0,parcelated_audio/22/22_26.ogg,,,,,,,,,0,0,0,0,0,0,0,0,0,0,0,0,,,,,,,,,,,,,0,0,0,0,0,25,25,25,,,,,,,,,,,,,,,,,,,,,,,,,,,,,,,,,,,,,,,,,,,,,,,,,,,,,,,,,,,,,,,,,,,,,,,,,,,,,,,,,,,,,,,,,,,,,,,,,,214.27138536300026,220.99845621700024,,,,,101520,0,1,0,3,0,1,2,0,6,2020_Oct_15_1050,listening_fmri,3.2.4,59.595903539443405,
0,parcelated_audio/22/22_27.ogg,,,,,,,,,0,0,0,0,0,0,0,0,0,0,0,0,,,,,,,,,,,,,0,0,0,0,0,26,26,26,,,,,,,,,,,,,,,,,,,,,,,,,,,,,,,,,,,,,,,,,,,,,,,,,,,,,,,,,,,,,,,,,,,,,,,,,,,,,,,,,,,,,,,,,,,,,,,,,,220.99893515300028,225.38730172000032,,,,,101520,0,1,0,3,0,1,2,0,6,2020_Oct_15_1050,listening_fmri,3.2.4,59.595903539443405,
0,parcelated_audio/22/22_28.ogg,,,,,,,,,0,0,0,0,0,0,0,0,0,0,0,0,,,,,,,,,,,,,0,0,0,0,0,27,27,27,,,,,,,,,,,,,,,,,,,,,,,,,,,,,,,,,,,,,,,,,,,,,,,,,,,,,,,,,,,,,,,,,,,,,,,,,,,,,,,,,,,,,,,,,,,,,,,,,,225.38780321600007,231.1126594970001,,,,,101520,0,1,0,3,0,1,2,0,6,2020_Oct_15_1050,listening_fmri,3.2.4,59.595903539443405,
0,parcelated_audio/22/22_29.ogg,,,,,,,,,0,0,0,0,0,0,0,0,0,0,0,0,,,,,,,,,,,,,0,0,0,0,0,28,28,28,,,,,,,,,,,,,,,,,,,,,,,,,,,,,,,,,,,,,,,,,,,,,,,,,,,,,,,,,,,,,,,,,,,,,,,,,,,,,,,,,,,,,,,,,,,,,,,,,,231.1129794690005,236.81269178300045,,,,,101520,0,1,0,3,0,1,2,0,6,2020_Oct_15_1050,listening_fmri,3.2.4,59.595903539443405,
0,parcelated_audio/22/22_30.ogg,,,,,,,,,0,0,0,0,0,0,0,0,0,0,0,0,,,,,,,,,,,,,0,0,0,0,0,29,29,29,,,,,,,,,,,,,,,,,,,,,,,,,,,,,,,,,,,,,,,,,,,,,,,,,,,,,,,,,,,,,,,,,,,,,,,,,,,,,,,,,,,,,,,,,,,,,,,,,,236.81304363399977,239.51017746700018,,,,,101520,0,1,0,3,0,1,2,0,6,2020_Oct_15_1050,listening_fmri,3.2.4,59.595903539443405,
0,parcelated_audio/22/22_31.ogg,,,,,,,,,0,0,0,0,0,0,0,0,0,0,0,0,,,,,,,,,,,,,0,0,0,0,0,30,30,30,,,,,,,,,,,,,,,,,,,,,,,,,,,,,,,,,,,,,,,,,,,,,,,,,,,,,,,,,,,,,,,,,,,,,,,,,,,,,,,,,,,,,,,,,,,,,,,,,,239.51076629599993,244.65657763800027,,,,,101520,0,1,0,3,0,1,2,0,6,2020_Oct_15_1050,listening_fmri,3.2.4,59.595903539443405,
0,parcelated_audio/22/22_32.ogg,,,,,,,,,0,0,0,0,0,0,0,0,0,0,0,0,,,,,,,,,,,,,0,0,0,0,0,31,31,31,,,,,,,,,,,,,,,,,,,,,,,,,,,,,,,,,,,,,,,,,,,,,,,,,,,,,,,,,,,,,,,,,,,,,,,,,,,,,,,,,,,,,,,,,,,,,,,,,,244.65703116300028,250.9786935130005,,,,,101520,0,1,0,3,0,1,2,0,6,2020_Oct_15_1050,listening_fmri,3.2.4,59.595903539443405,
0,parcelated_audio/22/22_33.ogg,,,,,,,,,0,0,0,0,0,0,0,0,0,0,0,0,,,,,,,,,,,,,0,0,0,0,0,32,32,32,,,,,,,,,,,,,,,,,,,,,,,,,,,,,,,,,,,,,,,,,,,,,,,,,,,,,,,,,,,,,,,,,,,,,,,,,,,,,,,,,,,,,,,,,,,,,,,,,,250.9791773019997,255.40264298500006,,,,,101520,0,1,0,3,0,1,2,0,6,2020_Oct_15_1050,listening_fmri,3.2.4,59.595903539443405,
0,parcelated_audio/22/22_34.ogg,,,,,,,,,0,0,0,0,0,0,0,0,0,0,0,0,,,,,,,,,,,,,0,0,0,0,0,33,33,33,,,,,,,,,,,,,,,,,,,,,,,,,,,,,,,,,,,,,,,,,,,,,,,,,,,,,,,,,,,,,,,,,,,,,,,,,,,,,,,,,,,,,,,,,,,,,,,,,,255.40321236,263.4280490399997,,,,,101520,0,1,0,3,0,1,2,0,6,2020_Oct_15_1050,listening_fmri,3.2.4,59.595903539443405,
0,parcelated_audio/22/22_35.ogg,,,,,,,,,0,0,0,0,0,0,0,0,0,0,0,0,,,,,,,,,,,,,0,0,0,0,0,34,34,34,,,,,,,,,,,,,,,,,,,,,,,,,,,,,,,,,,,,,,,,,,,,,,,,,,,,,,,,,,,,,,,,,,,,,,,,,,,,,,,,,,,,,,,,,,,,,,,,,,263.42851559800056,270.9384262700005,,,,,101520,0,1,0,3,0,1,2,0,6,2020_Oct_15_1050,listening_fmri,3.2.4,59.595903539443405,
0,parcelated_audio/22/22_36.ogg,,,,,,,,,0,0,0,0,0,0,0,0,0,0,0,0,,,,,,,,,,,,,0,0,0,0,0,35,35,35,,,,,,,,,,,,,,,,,,,,,,,,,,,,,,,,,,,,,,,,,,,,,,,,,,,,,,,,,,,,,,,,,,,,,,,,,,,,,,,,,,,,,,,,,,,,,,,,,,270.9388023829997,283.6465113940003,,,,,101520,0,1,0,3,0,1,2,0,6,2020_Oct_15_1050,listening_fmri,3.2.4,59.595903539443405,
0,parcelated_audio/22/22_37.ogg,,,,,,,,,0,0,0,0,0,0,0,0,0,0,0,0,,,,,,,,,,,,,0,0,0,0,0,36,36,36,,,,,,,,,,,,,,,,,,,,,,,,,,,,,,,,,,,,,,,,,,,,,,,,,,,,,,,,,,,,,,,,,,,,,,,,,,,,,,,,,,,,,,,,,,,,,,,,,,283.6492908959999,290.8066144730001,,,,,101520,0,1,0,3,0,1,2,0,6,2020_Oct_15_1050,listening_fmri,3.2.4,59.595903539443405,
0,,,,,,,,,,0,0,0,0,0,0,0,0,0,0,0,0,,,,,,,,,,,,,0,0,0,0,,,,,,,,,,,,,,,,,,,,,,,,,,,,,,,,,,,,,,,,,,,,,,,,,,,,,,,,,,,,,,,,,,,,,,,,,,,,,,,,,,,,,,,,,,,,,,,,,,,,,,,,,,,,101520,0,1,0,3,0,1,2,0,6,2020_Oct_15_1050,listening_fmri,3.2.4,59.595903539443405,
0,,,,,,,,,,0,0,0,0,0,0,0,0,0,0,0,0,,,,,,,,,,,,,,,,,,,,,,,,,,,,,,,,,,,,,,290.8071076870001,296.7992107279997,366.73772950700004,None,,,,,,,,,,,,,,,,,,,,,,,,,,,,,,,,,,,,,,,,,,,,,,,,,,,,,,,,,,,,,,,,,,,,,,,,,,,,,,,372.7416073589993,None,372.7416073589993,None,101520,0,1,0,3,0,1,2,0,6,2020_Oct_15_1050,listening_fmri,3.2.4,59.595903539443405,
0,,,,,,,,,,0,0,0,0,0,0,0,0,,,,,,,,,,,,,,,,,,,,,,,,,,,,,,,,,,,,,,,,,,,,,,,,,,,,,,,,,,,,,,,,,,,,,,,,,,,,,,,,,,,,,,,,,,,,,,,,,,,,,,,,,,,,,,,,,,,,,,,,,,,,,,,,101520,0,1,0,3,0,1,2,0,6,2020_Oct_15_1050,listening_fmri,3.2.4,59.595903539443405,
1,parcelated_audio/33/33_1.ogg,,,,,,,,,0,0,0,0,0,1,1,1,0,0,0,0,,,,,,,,,,,,,0,0,0,0,0,0,0,0,,,,,,,,,,,,,,,,,,,,,,373.7408384929995,None,373.7408384929995,None,5,0.1746789089993399,373.7408384929995,None,373.7408384929995,None,,,,,,,,,,,,,,,,,,,,,,,,,,,,,,,,,,,,,,,,,,,,,,,,,,,,,,,,,,,373.94236442500005,None,5,0.9731420380003328,373.94236442500005,None,299.0069434070001,302.01618177399996,302.0246372270003,311.9818551770004,,,,,101520,0,1,0,3,0,1,2,0,6,2020_Oct_15_1050,listening_fmri,3.2.4,59.595903539443405,
1,parcelated_audio/33/33_2.ogg,,,,,,,,,0,0,0,0,0,1,1,1,0,0,0,0,,,,,,,,,,,,,0,0,0,0,0,1,1,1,,,,,,,,,,,,,,,,,,,,,,,,,,,,,,,,,,,,,,,,,,,,,,,,,,,,,,,,,,,,,,,,,,,,,,,,,,,,,,,,,,,,,,,,,,,,,,,,,,311.982203173,322.5118519870002,,,,,101520,0,1,0,3,0,1,2,0,6,2020_Oct_15_1050,listening_fmri,3.2.4,59.595903539443405,
1,parcelated_audio/33/33_3.ogg,,,,,,,,,0,0,0,0,0,1,1,1,0,0,0,0,,,,,,,,,,,,,0,0,0,0,0,2,2,2,,,,,,,,,,,,,,,,,,,,,,,,,,,,,,,,,,,,,,,,,,,,,,,,,,,,,,,,,,,,,,,,,,,,,,,,,,,,,,,,,,,,,,,,,,,,,,,,,,322.5122042140001,329.0440622770002,,,,,101520,0,1,0,3,0,1,2,0,6,2020_Oct_15_1050,listening_fmri,3.2.4,59.595903539443405,
1,parcelated_audio/33/33_4.ogg,,,,,,,,,0,0,0,0,0,1,1,1,0,0,0,0,,,,,,,,,,,,,0,0,0,0,0,3,3,3,,,,,,,,,,,,,,,,,,,,,,,,,,,,,,,,,,,,,,,,,,,,,,,,,,,,,,,,,,,,,,,,,,,,,,,,,,,,,,,,,,,,,,,,,,,,,,,,,,329.04437988800055,332.6072594699999,,,,,101520,0,1,0,3,0,1,2,0,6,2020_Oct_15_1050,listening_fmri,3.2.4,59.595903539443405,
1,parcelated_audio/33/33_5.ogg,,,,,,,,,0,0,0,0,0,1,1,1,0,0,0,0,,,,,,,,,,,,,0,0,0,0,0,4,4,4,,,,,,,,,,,,,,,,,,,,,,,,,,,,,,,,,,,,,,,,,,,,,,,,,,,,,,,,,,,,,,,,,,,,,,,,,,,,,,,,,,,,,,,,,,,,,,,,,,332.60837402700054,343.8464002589999,,,,,101520,0,1,0,3,0,1,2,0,6,2020_Oct_15_1050,listening_fmri,3.2.4,59.595903539443405,
1,parcelated_audio/33/33_6.ogg,,,,,,,,,0,0,0,0,0,1,1,1,0,0,0,0,,,,,,,,,,,,,0,0,0,0,0,5,5,5,,,,,,,,,,,,,,,,,,,,,,,,,,,,,,,,,,,,,,,,,,,,,,,,,,,,,,,,,,,,,,,,,,,,,,,,,,,,,,,,,,,,,,,,,,,,,,,,,,343.8467422049998,355.5481837670004,,,,,101520,0,1,0,3,0,1,2,0,6,2020_Oct_15_1050,listening_fmri,3.2.4,59.595903539443405,
1,parcelated_audio/33/33_7.ogg,,,,,,,,,0,0,0,0,0,1,1,1,0,0,0,0,,,,,,,,,,,,,0,0,0,0,0,6,6,6,,,,,,,,,,,,,,,,,,,,,,,,,,,,,,,,,,,,,,,,,,,,,,,,,,,,,,,,,,,,,,,,,,,,,,,,,,,,,,,,,,,,,,,,,,,,,,,,,,355.5486134069997,370.09324942400053,,,,,101520,0,1,0,3,0,1,2,0,6,2020_Oct_15_1050,listening_fmri,3.2.4,59.595903539443405,
1,parcelated_audio/33/33_8.ogg,,,,,,,,,0,0,0,0,0,1,1,1,0,0,0,0,,,,,,,,,,,,,0,0,0,0,0,7,7,7,,,,,,,,,,,,,,,,,,,,,,,,,,,,,,,,,,,,,,,,,,,,,,,,,,,,,,,,,,,,,,,,,,,,,,,,,,,,,,,,,,,,,,,,,,,,,,,,,,370.09360114100036,376.32161933600037,,,,,101520,0,1,0,3,0,1,2,0,6,2020_Oct_15_1050,listening_fmri,3.2.4,59.595903539443405,
1,parcelated_audio/33/33_9.ogg,,,,,,,,,0,0,0,0,0,1,1,1,0,0,0,0,,,,,,,,,,,,,0,0,0,0,0,8,8,8,,,,,,,,,,,,,,,,,,,,,,,,,,,,,,,,,,,,,,,,,,,,,,,,,,,,,,,,,,,,,,,,,,,,,,,,,,,,,,,,,,,,,,,,,,,,,,,,,,376.3225271500005,380.035611669,,,,,101520,0,1,0,3,0,1,2,0,6,2020_Oct_15_1050,listening_fmri,3.2.4,59.595903539443405,
1,parcelated_audio/33/33_10.ogg,,,,,,,,,0,0,0,0,0,1,1,1,0,0,0,0,,,,,,,,,,,,,0,0,0,0,0,9,9,9,,,,,,,,,,,,,,,,,,,,,,,,,,,,,,,,,,,,,,,,,,,,,,,,,,,,,,,,,,,,,,,,,,,,,,,,,,,,,,,,,,,,,,,,,,,,,,,,,,380.0359289050002,385.3877701480005,,,,,101520,0,1,0,3,0,1,2,0,6,2020_Oct_15_1050,listening_fmri,3.2.4,59.595903539443405,
1,parcelated_audio/33/33_11.ogg,,,,,,,,,0,0,0,0,0,1,1,1,0,0,0,0,,,,,,,,,,,,,0,0,0,0,0,10,10,10,,,,,,,,,,,,,,,,,,,,,,,,,,,,,,,,,,,,,,,,,,,,,,,,,,,,,,,,,,,,,,,,,,,,,,,,,,,,,,,,,,,,,,,,,,,,,,,,,,385.388186098,399.79804809899997,,,,,101520,0,1,0,3,0,1,2,0,6,2020_Oct_15_1050,listening_fmri,3.2.4,59.595903539443405,
1,parcelated_audio/33/33_12.ogg,,,,,,,,,0,0,0,0,0,1,1,1,0,0,0,0,,,,,,,,,,,,,0,0,0,0,0,11,11,11,,,,,,,,,,,,,,,,,,,,,,,,,,,,,,,,,,,,,,,,,,,,,,,,,,,,,,,,,,,,,,,,,,,,,,,,,,,,,,,,,,,,,,,,,,,,,,,,,,399.801265993,405.8828976670002,,,,,101520,0,1,0,3,0,1,2,0,6,2020_Oct_15_1050,listening_fmri,3.2.4,59.595903539443405,
1,parcelated_audio/33/33_13.ogg,,,,,,,,,0,0,0,0,0,1,1,1,0,0,0,0,,,,,,,,,,,,,0,0,0,0,0,12,12,12,,,,,,,,,,,,,,,,,,,,,,,,,,,,,,,,,,,,,,,,,,,,,,,,,,,,,,,,,,,,,,,,,,,,,,,,,,,,,,,,,,,,,,,,,,,,,,,,,,405.8832465960004,413.26794373099983,,,,,101520,0,1,0,3,0,1,2,0,6,2020_Oct_15_1050,listening_fmri,3.2.4,59.595903539443405,
1,parcelated_audio/33/33_14.ogg,,,,,,,,,0,0,0,0,0,1,1,1,0,0,0,0,,,,,,,,,,,,,0,0,0,0,0,13,13,13,,,,,,,,,,,,,,,,,,,,,,,,,,,,,,,,,,,,,,,,,,,,,,,,,,,,,,,,,,,,,,,,,,,,,,,,,,,,,,,,,,,,,,,,,,,,,,,,,,413.268368862,425.71102148299997,,,,,101520,0,1,0,3,0,1,2,0,6,2020_Oct_15_1050,listening_fmri,3.2.4,59.595903539443405,
1,parcelated_audio/33/33_15.ogg,,,,,,,,,0,0,0,0,0,1,1,1,0,0,0,0,,,,,,,,,,,,,0,0,0,0,0,14,14,14,,,,,,,,,,,,,,,,,,,,,,,,,,,,,,,,,,,,,,,,,,,,,,,,,,,,,,,,,,,,,,,,,,,,,,,,,,,,,,,,,,,,,,,,,,,,,,,,,,425.71136609099995,444.26669572799983,,,,,101520,0,1,0,3,0,1,2,0,6,2020_Oct_15_1050,listening_fmri,3.2.4,59.595903539443405,
1,parcelated_audio/33/33_16.ogg,,,,,,,,,0,0,0,0,0,1,1,1,0,0,0,0,,,,,,,,,,,,,0,0,0,0,0,15,15,15,,,,,,,,,,,,,,,,,,,,,,,,,,,,,,,,,,,,,,,,,,,,,,,,,,,,,,,,,,,,,,,,,,,,,,,,,,,,,,,,,,,,,,,,,,,,,,,,,,444.2669692059999,456.493728423,,,,,101520,0,1,0,3,0,1,2,0,6,2020_Oct_15_1050,listening_fmri,3.2.4,59.595903539443405,
1,parcelated_audio/33/33_17.ogg,,,,,,,,,0,0,0,0,0,1,1,1,0,0,0,0,,,,,,,,,,,,,0,0,0,0,0,16,16,16,,,,,,,,,,,,,,,,,,,,,,,,,,,,,,,,,,,,,,,,,,,,,,,,,,,,,,,,,,,,,,,,,,,,,,,,,,,,,,,,,,,,,,,,,,,,,,,,,,456.49539462600023,467.6890070340005,,,,,101520,0,1,0,3,0,1,2,0,6,2020_Oct_15_1050,listening_fmri,3.2.4,59.595903539443405,
1,parcelated_audio/33/33_18.ogg,,,,,,,,,0,0,0,0,0,1,1,1,0,0,0,0,,,,,,,,,,,,,0,0,0,0,0,17,17,17,,,,,,,,,,,,,,,,,,,,,,,,,,,,,,,,,,,,,,,,,,,,,,,,,,,,,,,,,,,,,,,,,,,,,,,,,,,,,,,,,,,,,,,,,,,,,,,,,,467.690077579,476.2369041259999,,,,,101520,0,1,0,3,0,1,2,0,6,2020_Oct_15_1050,listening_fmri,3.2.4,59.595903539443405,
1,parcelated_audio/33/33_19.ogg,,,,,,,,,0,0,0,0,0,1,1,1,0,0,0,0,,,,,,,,,,,,,0,0,0,0,0,18,18,18,,,,,,,,,,,,,,,,,,,,,,,,,,,,,,,,,,,,,,,,,,,,,,,,,,,,,,,,,,,,,,,,,,,,,,,,,,,,,,,,,,,,,,,,,,,,,,,,,,476.23725833200024,479.6724723460002,,,,,101520,0,1,0,3,0,1,2,0,6,2020_Oct_15_1050,listening_fmri,3.2.4,59.595903539443405,
1,parcelated_audio/33/33_20.ogg,,,,,,,,,0,0,0,0,0,1,1,1,0,0,0,0,,,,,,,,,,,,,0,0,0,0,0,19,19,19,,,,,,,,,,,,,,,,,,,,,,,,,,,,,,,,,,,,,,,,,,,,,,,,,,,,,,,,,,,,,,,,,,,,,,,,,,,,,,,,,,,,,,,,,,,,,,,,,,479.6729545779999,486.5496971140001,,,,,101520,0,1,0,3,0,1,2,0,6,2020_Oct_15_1050,listening_fmri,3.2.4,59.595903539443405,
1,parcelated_audio/33/33_21.ogg,,,,,,,,,0,0,0,0,0,1,1,1,0,0,0,0,,,,,,,,,,,,,0,0,0,0,0,20,20,20,,,,,,,,,,,,,,,,,,,,,,,,,,,,,,,,,,,,,,,,,,,,,,,,,,,,,,,,,,,,,,,,,,,,,,,,,,,,,,,,,,,,,,,,,,,,,,,,,,486.5501472060005,490.5806482799999,,,,,101520,0,1,0,3,0,1,2,0,6,2020_Oct_15_1050,listening_fmri,3.2.4,59.595903539443405,
1,parcelated_audio/33/33_22.ogg,,,,,,,,,0,0,0,0,0,1,1,1,0,0,0,0,,,,,,,,,,,,,0,0,0,0,0,21,21,21,,,,,,,,,,,,,,,,,,,,,,,,,,,,,,,,,,,,,,,,,,,,,,,,,,,,,,,,,,,,,,,,,,,,,,,,,,,,,,,,,,,,,,,,,,,,,,,,,,490.5810014560002,502.41493863100004,,,,,101520,0,1,0,3,0,1,2,0,6,2020_Oct_15_1050,listening_fmri,3.2.4,59.595903539443405,
1,parcelated_audio/33/33_23.ogg,,,,,,,,,0,0,0,0,0,1,1,1,0,0,0,0,,,,,,,,,,,,,0,0,0,0,0,22,22,22,,,,,,,,,,,,,,,,,,,,,,,,,,,,,,,,,,,,,,,,,,,,,,,,,,,,,,,,,,,,,,,,,,,,,,,,,,,,,,,,,,,,,,,,,,,,,,,,,,502.416759617,512.8993317350005,,,,,101520,0,1,0,3,0,1,2,0,6,2020_Oct_15_1050,listening_fmri,3.2.4,59.595903539443405,
1,parcelated_audio/33/33_24.ogg,,,,,,,,,0,0,0,0,0,1,1,1,0,0,0,0,,,,,,,,,,,,,0,0,0,0,0,23,23,23,,,,,,,,,,,,,,,,,,,,,,,,,,,,,,,,,,,,,,,,,,,,,,,,,,,,,,,,,,,,,,,,,,,,,,,,,,,,,,,,,,,,,,,,,,,,,,,,,,512.89972984,519.1531936470001,,,,,101520,0,1,0,3,0,1,2,0,6,2020_Oct_15_1050,listening_fmri,3.2.4,59.595903539443405,
1,parcelated_audio/33/33_25.ogg,,,,,,,,,0,0,0,0,0,1,1,1,0,0,0,0,,,,,,,,,,,,,0,0,0,0,0,24,24,24,,,,,,,,,,,,,,,,,,,,,,,,,,,,,,,,,,,,,,,,,,,,,,,,,,,,,,,,,,,,,,,,,,,,,,,,,,,,,,,,,,,,,,,,,,,,,,,,,,519.153546822,527.3447947209997,,,,,101520,0,1,0,3,0,1,2,0,6,2020_Oct_15_1050,listening_fmri,3.2.4,59.595903539443405,
1,parcelated_audio/33/33_26.ogg,,,,,,,,,0,0,0,0,0,1,1,1,0,0,0,0,,,,,,,,,,,,,0,0,0,0,0,25,25,25,,,,,,,,,,,,,,,,,,,,,,,,,,,,,,,,,,,,,,,,,,,,,,,,,,,,,,,,,,,,,,,,,,,,,,,,,,,,,,,,,,,,,,,,,,,,,,,,,,527.3485066330004,534.4238209060004,,,,,101520,0,1,0,3,0,1,2,0,6,2020_Oct_15_1050,listening_fmri,3.2.4,59.595903539443405,
1,parcelated_audio/33/33_27.ogg,,,,,,,,,0,0,0,0,0,1,1,1,0,0,0,0,,,,,,,,,,,,,0,0,0,0,0,26,26,26,,,,,,,,,,,,,,,,,,,,,,,,,,,,,,,,,,,,,,,,,,,,,,,,,,,,,,,,,,,,,,,,,,,,,,,,,,,,,,,,,,,,,,,,,,,,,,,,,,534.4242216170005,541.9561197060002,,,,,101520,0,1,0,3,0,1,2,0,6,2020_Oct_15_1050,listening_fmri,3.2.4,59.595903539443405,
1,parcelated_audio/33/33_28.ogg,,,,,,,,,0,0,0,0,0,1,1,1,0,0,0,0,,,,,,,,,,,,,0,0,0,0,0,27,27,27,,,,,,,,,,,,,,,,,,,,,,,,,,,,,,,,,,,,,,,,,,,,,,,,,,,,,,,,,,,,,,,,,,,,,,,,,,,,,,,,,,,,,,,,,,,,,,,,,,541.9572865600003,547.6288185040003,,,,,101520,0,1,0,3,0,1,2,0,6,2020_Oct_15_1050,listening_fmri,3.2.4,59.595903539443405,
1,parcelated_audio/33/33_29.ogg,,,,,,,,,0,0,0,0,0,1,1,1,0,0,0,0,,,,,,,,,,,,,0,0,0,0,0,28,28,28,,,,,,,,,,,,,,,,,,,,,,,,,,,,,,,,,,,,,,,,,,,,,,,,,,,,,,,,,,,,,,,,,,,,,,,,,,,,,,,,,,,,,,,,,,,,,,,,,,547.6291693100002,555.5426371399999,,,,,101520,0,1,0,3,0,1,2,0,6,2020_Oct_15_1050,listening_fmri,3.2.4,59.595903539443405,
1,parcelated_audio/33/33_30.ogg,,,,,,,,,0,0,0,0,0,1,1,1,0,0,0,0,,,,,,,,,,,,,0,0,0,0,0,29,29,29,,,,,,,,,,,,,,,,,,,,,,,,,,,,,,,,,,,,,,,,,,,,,,,,,,,,,,,,,,,,,,,,,,,,,,,,,,,,,,,,,,,,,,,,,,,,,,,,,,555.5430728379997,570.4871175520002,,,,,101520,0,1,0,3,0,1,2,0,6,2020_Oct_15_1050,listening_fmri,3.2.4,59.595903539443405,
1,parcelated_audio/33/33_31.ogg,,,,,,,,,0,0,0,0,0,1,1,1,0,0,0,0,,,,,,,,,,,,,0,0,0,0,0,30,30,30,,,,,,,,,,,,,,,,,,,,,,,,,,,,,,,,,,,,,,,,,,,,,,,,,,,,,,,,,,,,,,,,,,,,,,,,,,,,,,,,,,,,,,,,,,,,,,,,,,570.4874911500001,580.2040371610001,,,,,101520,0,1,0,3,0,1,2,0,6,2020_Oct_15_1050,listening_fmri,3.2.4,59.595903539443405,
1,parcelated_audio/33/33_32.ogg,,,,,,,,,0,0,0,0,0,1,1,1,0,0,0,0,,,,,,,,,,,,,0,0,0,0,0,31,31,31,,,,,,,,,,,,,,,,,,,,,,,,,,,,,,,,,,,,,,,,,,,,,,,,,,,,,,,,,,,,,,,,,,,,,,,,,,,,,,,,,,,,,,,,,,,,,,,,,,580.204386073,585.8384966370004,,,,,101520,0,1,0,3,0,1,2,0,6,2020_Oct_15_1050,listening_fmri,3.2.4,59.595903539443405,
1,,,,,,,,,,0,0,0,0,0,1,1,1,0,0,0,0,,,,,,,,,,,,,0,0,0,0,,,,,,,,,,,,,,,,,,,,,,,,,,,,,,,,,,,,,,,,,,,,,,,,,,,,,,,,,,,,,,,,,,,,,,,,,,,,,,,,,,,,,,,,,,,,,,,,,,,,,,,,,,,,101520,0,1,0,3,0,1,2,0,6,2020_Oct_15_1050,listening_fmri,3.2.4,59.595903539443405,
1,,,,,,,,,,0,0,0,0,0,1,1,1,0,0,0,0,,,,,,,,,,,,,,,,,,,,,,,,,,,,,,,,,,,,,,585.838983056,591.8326929229997,661.7756584469998,None,,,,,,,,,,,,,,,,,,,,,,,,,,,,,,,,,,,,,,,,,,,,,,,,,,,,,,,,,,,,,,,,,,,,,,,,,,,,,,,667.7842149600001,None,667.7842149600001,None,101520,0,1,0,3,0,1,2,0,6,2020_Oct_15_1050,listening_fmri,3.2.4,59.595903539443405,
1,,,,,,,,,,0,0,0,0,0,1,1,1,,,,,,,,,,,,,,,,,,,,,,,,,,,,,,,,,,,,,,,,,,,,,,,,,,,,,,,,,,,,,,,,,,,,,,,,,,,,,,,,,,,,,,,,,,,,,,,,,,,,,,,,,,,,,,,,,,,,,,,,,,,,,,,,101520,0,1,0,3,0,1,2,0,6,2020_Oct_15_1050,listening_fmri,3.2.4,59.595903539443405,
2,,,,,,,,,,0,0,0,0,0,2,2,2,,,,,,,,,,,,,,,,,,,,,,,,,,,,,,,,,,,,,,,,,,,,,,,,,,,,,,,,,,,,,,,,,,,,,,,,,,,,,,,,,,,,,,,,,,,,,,,,,,,,,,,,,,,,,,,,,,,,,,,,,,,,,,,,101520,0,1,0,3,0,1,2,0,6,2020_Oct_15_1050,listening_fmri,3.2.4,59.595903539443405,
3,parcelated_audio/42/42_1.ogg,,,,,,,,,0,0,0,0,0,3,3,3,0,0,0,0,,,,,,,,,,,,,0,0,0,0,0,0,0,0,,,,,,,,,,,,,,,,,,,,,,668.8004528419997,None,668.8004528419997,None,5,0.11206369799947424,668.8004528419997,None,668.8004528419997,None,,,,,,,,,,,,,,,,,,,,,,,,,,,,,,,,,,,,,,,,,,,,,,,,,,,,,,,,,,,668.9341708069996,None,5,0.9783471490000011,668.9341708069996,None,594.0062538940001,597.0077895089998,597.019154437,605.4017335890003,,,,,101520,0,1,0,3,0,1,2,0,6,2020_Oct_15_1050,listening_fmri,3.2.4,59.595903539443405,
3,parcelated_audio/42/42_2.ogg,,,,,,,,,0,0,0,0,0,3,3,3,0,0,0,0,,,,,,,,,,,,,0,0,0,0,0,1,1,1,,,,,,,,,,,,,,,,,,,,,,,,,,,,,,,,,,,,,,,,,,,,,,,,,,,,,,,,,,,,,,,,,,,,,,,,,,,,,,,,,,,,,,,,,,,,,,,,,,605.4020871620005,618.1293994670004,,,,,101520,0,1,0,3,0,1,2,0,6,2020_Oct_15_1050,listening_fmri,3.2.4,59.595903539443405,
3,parcelated_audio/42/42_3.ogg,,,,,,,,,0,0,0,0,0,3,3,3,0,0,0,0,,,,,,,,,,,,,0,0,0,0,0,2,2,2,,,,,,,,,,,,,,,,,,,,,,,,,,,,,,,,,,,,,,,,,,,,,,,,,,,,,,,,,,,,,,,,,,,,,,,,,,,,,,,,,,,,,,,,,,,,,,,,,,618.129758946,628.422862292,,,,,101520,0,1,0,3,0,1,2,0,6,2020_Oct_15_1050,listening_fmri,3.2.4,59.595903539443405,
3,parcelated_audio/42/42_4.ogg,,,,,,,,,0,0,0,0,0,3,3,3,0,0,0,0,,,,,,,,,,,,,0,0,0,0,0,3,3,3,,,,,,,,,,,,,,,,,,,,,,,,,,,,,,,,,,,,,,,,,,,,,,,,,,,,,,,,,,,,,,,,,,,,,,,,,,,,,,,,,,,,,,,,,,,,,,,,,,628.4232855540004,642.1109228240002,,,,,101520,0,1,0,3,0,1,2,0,6,2020_Oct_15_1050,listening_fmri,3.2.4,59.595903539443405,
3,parcelated_audio/42/42_5.ogg,,,,,,,,,0,0,0,0,0,3,3,3,0,0,0,0,,,,,,,,,,,,,0,0,0,0,0,4,4,4,,,,,,,,,,,,,,,,,,,,,,,,,,,,,,,,,,,,,,,,,,,,,,,,,,,,,,,,,,,,,,,,,,,,,,,,,,,,,,,,,,,,,,,,,,,,,,,,,,642.1112599650005,653.5547639510005,,,,,101520,0,1,0,3,0,1,2,0,6,2020_Oct_15_1050,listening_fmri,3.2.4,59.595903539443405,
3,parcelated_audio/42/42_6.ogg,,,,,,,,,0,0,0,0,0,3,3,3,0,0,0,0,,,,,,,,,,,,,0,0,0,0,0,5,5,5,,,,,,,,,,,,,,,,,,,,,,,,,,,,,,,,,,,,,,,,,,,,,,,,,,,,,,,,,,,,,,,,,,,,,,,,,,,,,,,,,,,,,,,,,,,,,,,,,,653.5550974759999,660.0300829180005,,,,,101520,0,1,0,3,0,1,2,0,6,2020_Oct_15_1050,listening_fmri,3.2.4,59.595903539443405,
3,parcelated_audio/42/42_7.ogg,,,,,,,,,0,0,0,0,0,3,3,3,0,0,0,0,,,,,,,,,,,,,0,0,0,0,0,6,6,6,,,,,,,,,,,,,,,,,,,,,,,,,,,,,,,,,,,,,,,,,,,,,,,,,,,,,,,,,,,,,,,,,,,,,,,,,,,,,,,,,,,,,,,,,,,,,,,,,,660.0305514689999,665.2150010940004,,,,,101520,0,1,0,3,0,1,2,0,6,2020_Oct_15_1050,listening_fmri,3.2.4,59.595903539443405,
3,parcelated_audio/42/42_8.ogg,,,,,,,,,0,0,0,0,0,3,3,3,0,0,0,0,,,,,,,,,,,,,0,0,0,0,0,7,7,7,,,,,,,,,,,,,,,,,,,,,,,,,,,,,,,,,,,,,,,,,,,,,,,,,,,,,,,,,,,,,,,,,,,,,,,,,,,,,,,,,,,,,,,,,,,,,,,,,,665.2153059809998,668.3582167690001,,,,,101520,0,1,0,3,0,1,2,0,6,2020_Oct_15_1050,listening_fmri,3.2.4,59.595903539443405,
3,parcelated_audio/42/42_9.ogg,,,,,,,,,0,0,0,0,0,3,3,3,0,0,0,0,,,,,,,,,,,,,0,0,0,0,0,8,8,8,,,,,,,,,,,,,,,,,,,,,,,,,,,,,,,,,,,,,,,,,,,,,,,,,,,,,,,,,,,,,,,,,,,,,,,,,,,,,,,,,,,,,,,,,,,,,,,,,,668.358589677,676.9078106970001,,,,,101520,0,1,0,3,0,1,2,0,6,2020_Oct_15_1050,listening_fmri,3.2.4,59.595903539443405,
3,parcelated_audio/42/42_10.ogg,,,,,,,,,0,0,0,0,0,3,3,3,0,0,0,0,,,,,,,,,,,,,0,0,0,0,0,9,9,9,,,,,,,,,,,,,,,,,,,,,,,,,,,,,,,,,,,,,,,,,,,,,,,,,,,,,,,,,,,,,,,,,,,,,,,,,,,,,,,,,,,,,,,,,,,,,,,,,,676.9081204009999,681.2244540829997,,,,,101520,0,1,0,3,0,1,2,0,6,2020_Oct_15_1050,listening_fmri,3.2.4,59.595903539443405,
3,parcelated_audio/42/42_11.ogg,,,,,,,,,0,0,0,0,0,3,3,3,0,0,0,0,,,,,,,,,,,,,0,0,0,0,0,10,10,10,,,,,,,,,,,,,,,,,,,,,,,,,,,,,,,,,,,,,,,,,,,,,,,,,,,,,,,,,,,,,,,,,,,,,,,,,,,,,,,,,,,,,,,,,,,,,,,,,,681.2248055059999,686.2186593839997,,,,,101520,0,1,0,3,0,1,2,0,6,2020_Oct_15_1050,listening_fmri,3.2.4,59.595903539443405,
3,parcelated_audio/42/42_12.ogg,,,,,,,,,0,0,0,0,0,3,3,3,0,0,0,0,,,,,,,,,,,,,0,0,0,0,0,11,11,11,,,,,,,,,,,,,,,,,,,,,,,,,,,,,,,,,,,,,,,,,,,,,,,,,,,,,,,,,,,,,,,,,,,,,,,,,,,,,,,,,,,,,,,,,,,,,,,,,,686.2190087190002,692.178533319,,,,,101520,0,1,0,3,0,1,2,0,6,2020_Oct_15_1050,listening_fmri,3.2.4,59.595903539443405,
3,parcelated_audio/42/42_13.ogg,,,,,,,,,0,0,0,0,0,3,3,3,0,0,0,0,,,,,,,,,,,,,0,0,0,0,0,12,12,12,,,,,,,,,,,,,,,,,,,,,,,,,,,,,,,,,,,,,,,,,,,,,,,,,,,,,,,,,,,,,,,,,,,,,,,,,,,,,,,,,,,,,,,,,,,,,,,,,,692.1794280590002,699.3373288820003,,,,,101520,0,1,0,3,0,1,2,0,6,2020_Oct_15_1050,listening_fmri,3.2.4,59.595903539443405,
3,parcelated_audio/42/42_14.ogg,,,,,,,,,0,0,0,0,0,3,3,3,0,0,0,0,,,,,,,,,,,,,0,0,0,0,0,13,13,13,,,,,,,,,,,,,,,,,,,,,,,,,,,,,,,,,,,,,,,,,,,,,,,,,,,,,,,,,,,,,,,,,,,,,,,,,,,,,,,,,,,,,,,,,,,,,,,,,,699.340750503,704.0465194609997,,,,,101520,0,1,0,3,0,1,2,0,6,2020_Oct_15_1050,listening_fmri,3.2.4,59.595903539443405,
3,parcelated_audio/42/42_15.ogg,,,,,,,,,0,0,0,0,0,3,3,3,0,0,0,0,,,,,,,,,,,,,0,0,0,0,0,14,14,14,,,,,,,,,,,,,,,,,,,,,,,,,,,,,,,,,,,,,,,,,,,,,,,,,,,,,,,,,,,,,,,,,,,,,,,,,,,,,,,,,,,,,,,,,,,,,,,,,,704.046955148,709.9024048990004,,,,,101520,0,1,0,3,0,1,2,0,6,2020_Oct_15_1050,listening_fmri,3.2.4,59.595903539443405,
3,parcelated_audio/42/42_16.ogg,,,,,,,,,0,0,0,0,0,3,3,3,0,0,0,0,,,,,,,,,,,,,0,0,0,0,0,15,15,15,,,,,,,,,,,,,,,,,,,,,,,,,,,,,,,,,,,,,,,,,,,,,,,,,,,,,,,,,,,,,,,,,,,,,,,,,,,,,,,,,,,,,,,,,,,,,,,,,,709.9028958819999,715.4543223780001,,,,,101520,0,1,0,3,0,1,2,0,6,2020_Oct_15_1050,listening_fmri,3.2.4,59.595903539443405,
3,parcelated_audio/42/42_17.ogg,,,,,,,,,0,0,0,0,0,3,3,3,0,0,0,0,,,,,,,,,,,,,0,0,0,0,0,16,16,16,,,,,,,,,,,,,,,,,,,,,,,,,,,,,,,,,,,,,,,,,,,,,,,,,,,,,,,,,,,,,,,,,,,,,,,,,,,,,,,,,,,,,,,,,,,,,,,,,,715.4547549210001,725.1359805170005,,,,,101520,0,1,0,3,0,1,2,0,6,2020_Oct_15_1050,listening_fmri,3.2.4,59.595903539443405,
3,parcelated_audio/42/42_18.ogg,,,,,,,,,0,0,0,0,0,3,3,3,0,0,0,0,,,,,,,,,,,,,0,0,0,0,0,17,17,17,,,,,,,,,,,,,,,,,,,,,,,,,,,,,,,,,,,,,,,,,,,,,,,,,,,,,,,,,,,,,,,,,,,,,,,,,,,,,,,,,,,,,,,,,,,,,,,,,,725.1363252190004,730.5554370609998,,,,,101520,0,1,0,3,0,1,2,0,6,2020_Oct_15_1050,listening_fmri,3.2.4,59.595903539443405,
3,parcelated_audio/42/42_19.ogg,,,,,,,,,0,0,0,0,0,3,3,3,0,0,0,0,,,,,,,,,,,,,0,0,0,0,0,18,18,18,,,,,,,,,,,,,,,,,,,,,,,,,,,,,,,,,,,,,,,,,,,,,,,,,,,,,,,,,,,,,,,,,,,,,,,,,,,,,,,,,,,,,,,,,,,,,,,,,,730.5560439279998,739.6877897160002,,,,,101520,0,1,0,3,0,1,2,0,6,2020_Oct_15_1050,listening_fmri,3.2.4,59.595903539443405,
3,parcelated_audio/42/42_20.ogg,,,,,,,,,0,0,0,0,0,3,3,3,0,0,0,0,,,,,,,,,,,,,0,0,0,0,0,19,19,19,,,,,,,,,,,,,,,,,,,,,,,,,,,,,,,,,,,,,,,,,,,,,,,,,,,,,,,,,,,,,,,,,,,,,,,,,,,,,,,,,,,,,,,,,,,,,,,,,,739.6882775160002,744.3214646120005,,,,,101520,0,1,0,3,0,1,2,0,6,2020_Oct_15_1050,listening_fmri,3.2.4,59.595903539443405,
3,parcelated_audio/42/42_21.ogg,,,,,,,,,0,0,0,0,0,3,3,3,0,0,0,0,,,,,,,,,,,,,0,0,0,0,0,20,20,20,,,,,,,,,,,,,,,,,,,,,,,,,,,,,,,,,,,,,,,,,,,,,,,,,,,,,,,,,,,,,,,,,,,,,,,,,,,,,,,,,,,,,,,,,,,,,,,,,,744.3218007739997,754.214387127,,,,,101520,0,1,0,3,0,1,2,0,6,2020_Oct_15_1050,listening_fmri,3.2.4,59.595903539443405,
3,parcelated_audio/42/42_22.ogg,,,,,,,,,0,0,0,0,0,3,3,3,0,0,0,0,,,,,,,,,,,,,0,0,0,0,0,21,21,21,,,,,,,,,,,,,,,,,,,,,,,,,,,,,,,,,,,,,,,,,,,,,,,,,,,,,,,,,,,,,,,,,,,,,,,,,,,,,,,,,,,,,,,,,,,,,,,,,,754.2161412280002,758.9693518100003,,,,,101520,0,1,0,3,0,1,2,0,6,2020_Oct_15_1050,listening_fmri,3.2.4,59.595903539443405,
3,parcelated_audio/42/42_23.ogg,,,,,,,,,0,0,0,0,0,3,3,3,0,0,0,0,,,,,,,,,,,,,0,0,0,0,0,22,22,22,,,,,,,,,,,,,,,,,,,,,,,,,,,,,,,,,,,,,,,,,,,,,,,,,,,,,,,,,,,,,,,,,,,,,,,,,,,,,,,,,,,,,,,,,,,,,,,,,,758.969835938,765.1826360730001,,,,,101520,0,1,0,3,0,1,2,0,6,2020_Oct_15_1050,listening_fmri,3.2.4,59.595903539443405,
3,parcelated_audio/42/42_24.ogg,,,,,,,,,0,0,0,0,0,3,3,3,0,0,0,0,,,,,,,,,,,,,0,0,0,0,0,23,23,23,,,,,,,,,,,,,,,,,,,,,,,,,,,,,,,,,,,,,,,,,,,,,,,,,,,,,,,,,,,,,,,,,,,,,,,,,,,,,,,,,,,,,,,,,,,,,,,,,,765.1829957589998,773.6548234600004,,,,,101520,0,1,0,3,0,1,2,0,6,2020_Oct_15_1050,listening_fmri,3.2.4,59.595903539443405,
3,parcelated_audio/42/42_25.ogg,,,,,,,,,0,0,0,0,0,3,3,3,0,0,0,0,,,,,,,,,,,,,0,0,0,0,0,24,24,24,,,,,,,,,,,,,,,,,,,,,,,,,,,,,,,,,,,,,,,,,,,,,,,,,,,,,,,,,,,,,,,,,,,,,,,,,,,,,,,,,,,,,,,,,,,,,,,,,,773.6552863460001,779.8767634920005,,,,,101520,0,1,0,3,0,1,2,0,6,2020_Oct_15_1050,listening_fmri,3.2.4,59.595903539443405,
3,parcelated_audio/42/42_26.ogg,,,,,,,,,0,0,0,0,0,3,3,3,0,0,0,0,,,,,,,,,,,,,0,0,0,0,0,25,25,25,,,,,,,,,,,,,,,,,,,,,,,,,,,,,,,,,,,,,,,,,,,,,,,,,,,,,,,,,,,,,,,,,,,,,,,,,,,,,,,,,,,,,,,,,,,,,,,,,,779.8771099530004,785.7633545489998,,,,,101520,0,1,0,3,0,1,2,0,6,2020_Oct_15_1050,listening_fmri,3.2.4,59.595903539443405,
3,parcelated_audio/42/42_27.ogg,,,,,,,,,0,0,0,0,0,3,3,3,0,0,0,0,,,,,,,,,,,,,0,0,0,0,0,26,26,26,,,,,,,,,,,,,,,,,,,,,,,,,,,,,,,,,,,,,,,,,,,,,,,,,,,,,,,,,,,,,,,,,,,,,,,,,,,,,,,,,,,,,,,,,,,,,,,,,,785.7636477759997,793.4118416170004,,,,,101520,0,1,0,3,0,1,2,0,6,2020_Oct_15_1050,listening_fmri,3.2.4,59.595903539443405,
3,parcelated_audio/42/42_28.ogg,,,,,,,,,0,0,0,0,0,3,3,3,0,0,0,0,,,,,,,,,,,,,0,0,0,0,0,27,27,27,,,,,,,,,,,,,,,,,,,,,,,,,,,,,,,,,,,,,,,,,,,,,,,,,,,,,,,,,,,,,,,,,,,,,,,,,,,,,,,,,,,,,,,,,,,,,,,,,,793.4122012200005,799.0599562750003,,,,,101520,0,1,0,3,0,1,2,0,6,2020_Oct_15_1050,listening_fmri,3.2.4,59.595903539443405,
3,parcelated_audio/42/42_29.ogg,,,,,,,,,0,0,0,0,0,3,3,3,0,0,0,0,,,,,,,,,,,,,0,0,0,0,0,28,28,28,,,,,,,,,,,,,,,,,,,,,,,,,,,,,,,,,,,,,,,,,,,,,,,,,,,,,,,,,,,,,,,,,,,,,,,,,,,,,,,,,,,,,,,,,,,,,,,,,,799.063510985,805.9505210530006,,,,,101520,0,1,0,3,0,1,2,0,6,2020_Oct_15_1050,listening_fmri,3.2.4,59.595903539443405,
3,parcelated_audio/42/42_30.ogg,,,,,,,,,0,0,0,0,0,3,3,3,0,0,0,0,,,,,,,,,,,,,0,0,0,0,0,29,29,29,,,,,,,,,,,,,,,,,,,,,,,,,,,,,,,,,,,,,,,,,,,,,,,,,,,,,,,,,,,,,,,,,,,,,,,,,,,,,,,,,,,,,,,,,,,,,,,,,,805.9518163230005,816.8122579270002,,,,,101520,0,1,0,3,0,1,2,0,6,2020_Oct_15_1050,listening_fmri,3.2.4,59.595903539443405,
3,parcelated_audio/42/42_31.ogg,,,,,,,,,0,0,0,0,0,3,3,3,0,0,0,0,,,,,,,,,,,,,0,0,0,0,0,30,30,30,,,,,,,,,,,,,,,,,,,,,,,,,,,,,,,,,,,,,,,,,,,,,,,,,,,,,,,,,,,,,,,,,,,,,,,,,,,,,,,,,,,,,,,,,,,,,,,,,,816.8126042849999,822.9913088359999,,,,,101520,0,1,0,3,0,1,2,0,6,2020_Oct_15_1050,listening_fmri,3.2.4,59.595903539443405,
3,parcelated_audio/42/42_32.ogg,,,,,,,,,0,0,0,0,0,3,3,3,0,0,0,0,,,,,,,,,,,,,0,0,0,0,0,31,31,31,,,,,,,,,,,,,,,,,,,,,,,,,,,,,,,,,,,,,,,,,,,,,,,,,,,,,,,,,,,,,,,,,,,,,,,,,,,,,,,,,,,,,,,,,,,,,,,,,,822.9917394920003,831.1388149980003,,,,,101520,0,1,0,3,0,1,2,0,6,2020_Oct_15_1050,listening_fmri,3.2.4,59.595903539443405,
3,parcelated_audio/42/42_33.ogg,,,,,,,,,0,0,0,0,0,3,3,3,0,0,0,0,,,,,,,,,,,,,0,0,0,0,0,32,32,32,,,,,,,,,,,,,,,,,,,,,,,,,,,,,,,,,,,,,,,,,,,,,,,,,,,,,,,,,,,,,,,,,,,,,,,,,,,,,,,,,,,,,,,,,,,,,,,,,,831.1391609430002,838.1856649199999,,,,,101520,0,1,0,3,0,1,2,0,6,2020_Oct_15_1050,listening_fmri,3.2.4,59.595903539443405,
3,parcelated_audio/42/42_34.ogg,,,,,,,,,0,0,0,0,0,3,3,3,0,0,0,0,,,,,,,,,,,,,0,0,0,0,0,33,33,33,,,,,,,,,,,,,,,,,,,,,,,,,,,,,,,,,,,,,,,,,,,,,,,,,,,,,,,,,,,,,,,,,,,,,,,,,,,,,,,,,,,,,,,,,,,,,,,,,,838.1859996200001,848.9050756679999,,,,,101520,0,1,0,3,0,1,2,0,6,2020_Oct_15_1050,listening_fmri,3.2.4,59.595903539443405,
3,parcelated_audio/42/42_35.ogg,,,,,,,,,0,0,0,0,0,3,3,3,0,0,0,0,,,,,,,,,,,,,0,0,0,0,0,34,34,34,,,,,,,,,,,,,,,,,,,,,,,,,,,,,,,,,,,,,,,,,,,,,,,,,,,,,,,,,,,,,,,,,,,,,,,,,,,,,,,,,,,,,,,,,,,,,,,,,,848.9054995440001,858.638176898,,,,,101520,0,1,0,3,0,1,2,0,6,2020_Oct_15_1050,listening_fmri,3.2.4,59.595903539443405,
3,,,,,,,,,,0,0,0,0,0,3,3,3,0,0,0,0,,,,,,,,,,,,,0,0,0,0,,,,,,,,,,,,,,,,,,,,,,,,,,,,,,,,,,,,,,,,,,,,,,,,,,,,,,,,,,,,,,,,,,,,,,,,,,,,,,,,,,,,,,,,,,,,,,,,,,,,,,,,,,,,101520,0,1,0,3,0,1,2,0,6,2020_Oct_15_1050,listening_fmri,3.2.4,59.595903539443405,
,,,,,,,,,,,,,,,,,,,,,,,,,,,,,,,,,,,,,,,,,,,,,,,,,,,,,,,,,,,858.6386051270001,864.6376930300003,934.5754751009999,None,,,,,,,,,,,,,,,,,,,,,,,,,,,,,,,,,,,,,,,,,,,,,,,,,,,,,,,,,,,,,,,,,,,,,,,,,,,,,,,940.5806141969997,None,940.5806141969997,None,,,,,,,,,,,,,,,
﻿count,audio,trials_14.thisRepN,trials_14.thisTrialN,trials_14.thisN,trials_14.thisIndex,trials_3.thisRepN,trials_3.thisTrialN,trials_3.thisN,trials_3.thisIndex,trials_4.thisRepN,trials_4.thisTrialN,trials_4.thisN,trials_4.thisIndex,trials_6.thisRepN,trials_6.thisTrialN,trials_6.thisN,trials_6.thisIndex,trials_9.thisRepN,trials_9.thisTrialN,trials_9.thisN,trials_9.thisIndex,trials_10.thisRepN,trials_10.thisTrialN,trials_10.thisN,trials_10.thisIndex,trials_11.thisRepN,trials_11.thisTrialN,trials_11.thisN,trials_11.thisIndex,trials_12.thisRepN,trials_12.thisTrialN,trials_12.thisN,trials_12.thisIndex,trials_25.thisRepN,trials_25.thisTrialN,trials_25.thisN,trials_25.thisIndex,trials_15.thisRepN,trials_15.thisTrialN,trials_15.thisN,trials_15.thisIndex,trials_26.thisRepN,trials_26.thisTrialN,trials_26.thisN,trials_26.thisIndex,story_list_block2,action_list_block2,textTrigger.started,textTrigger.stopped,getTrigger.keys,getTrigger.rt,getTrigger.started,getTrigger.stopped,triggerTime,text_76.started,text_76.stopped,text_77.started,text_77.stopped,startWait,endWait,image_23.started,image_23.stopped,text_55.started,text_55.stopped,text_56.started,text_56.stopped,key_resp_2.keys,key_resp_2.rt,key_resp_2.started,key_resp_2.stopped,text_82.started,text_82.stopped,text_57.started,text_57.stopped,key_resp_17.keys,key_resp_17.rt,key_resp_17.started,key_resp_17.stopped,text_83.started,text_83.stopped,text_60.started,text_60.stopped,image_2.started,image_2.stopped,text_58.started,text_58.stopped,key_resp_23.keys,key_resp_23.rt,key_resp_23.started,key_resp_23.stopped,text_62.started,text_62.stopped,key_resp_18.keys,key_resp_18.rt,key_resp_18.started,key_resp_18.stopped,text_84.started,text_84.stopped,question1_2.started,question1_2.stopped,question2_2.started,question2_2.stopped,question3_2.started,question3_2.stopped,question4_2.started,question4_2.stopped,question5_2.started,question5_2.stopped,question6_2.started,question6_2.stopped,image_15.started,image_15.stopped,text_59.started,text_59.stopped,key_resp_19.keys,key_resp_19.rt,key_resp_19.started,key_resp_19.stopped,text_85.started,text_85.stopped,text_61.started,text_61.stopped,image_17.started,image_17.stopped,text_63.started,text_63.stopped,key_resp_24.keys,key_resp_24.rt,key_resp_24.started,key_resp_24.stopped,text_64.started,text_64.stopped,key_resp_20.keys,key_resp_20.rt,key_resp_20.started,key_resp_20.stopped,storyImage_StartTime,storyImage_EndTime,clip_StartTime,clip_EndTime,text_67.started,text_67.stopped,text_68.started,text_68.stopped,participant,sA,sB,lA,lB,block_struct,play_stories,block,behavioral,random_seed,date,expName,psychopyVersion,frameRate,
0,,,,,,,,,,0,0,0,0,0,0,0,0,0,0,0,0,0,0,0,0,0,0,0,0,,,,,,,,,,,,,,,,,[22 33 11 42 24 13 31 44],[1 4 3 4 3 1 2 2],16.726008259999617,None,equal,59.19354418900002,16.726008259999617,None,59.22304168899973,16.726008259999617,None,16.726008259999617,None,0.00035244399987277575,5.998284612000134,75.94195802200011,None,81.95886361700013,None,81.95886361700013,None,5,0.9596483400000579,81.95886361700013,None,81.95886361700013,None,82.9411484329994,None,5,0.9773642930003916,82.9411484329994,None,82.9411484329994,None,83.958652454,None,83.958652454,None,83.958652454,None,5,0.9598591379999561,83.958652454,None,84.94142056799956,None,5,0.9770701919997009,84.94142056799956,None,84.94142056799956,None,86.02526484200007,None,86.02526484200007,None,86.02526484200007,None,86.02526484200007,None,86.02526484200007,None,86.02526484200007,None,86.02526484200007,None,,,,,,,,,,,,,,,,,,,,,,,,,,,,,,,,,101520,0,1,0,3,0,1,2,0,6,2020_Oct_15_1050,listening_fmri,3.2.4,59.595903539443405,
0,,,,,,,,,,0,0,0,0,0,0,0,0,0,0,0,0,0,0,0,0,,,,,,,,,,,,,,,,,,,,,,,,,,,,,,,,,,,,,,,,,,,,,,,,,,,,,,,,,,,,,,,,,,,,,,,,,,,,,,,,,,,,,,,,104.14178202999938,None,5,0.77665912700013,104.14178202999938,None,104.14178202999938,None,104.95842308299962,None,104.95842308299962,None,104.95842308299962,None,5,0.9599441330001355,104.95842308299962,None,,,,,,,,,,,,,,,101520,0,1,0,3,0,1,2,0,6,2020_Oct_15_1050,listening_fmri,3.2.4,59.595903539443405,
0,parcelated_audio/22/22_1.ogg,,,,,,,,,0,0,0,0,0,0,0,0,0,0,0,0,,,,,,,,,,,,,0,0,0,0,0,0,0,0,,,,,,,,,,,,,,,,,,,,,,,,,,,,,,,,,,,,,,,,,,,,,,,,,,,,,,,,,,,,,,,,,,,,,,,,,,,,,,,,,,,,,,,,,,105.94113281799946,None,5,0.9772603229994274,105.94113281799946,None,31.029037324000456,34.03244457999972,34.038071294000474,47.08418718400026,,,,,101520,0,1,0,3,0,1,2,0,6,2020_Oct_15_1050,listening_fmri,3.2.4,59.595903539443405,
0,parcelated_audio/22/22_2.ogg,,,,,,,,,0,0,0,0,0,0,0,0,0,0,0,0,,,,,,,,,,,,,0,0,0,0,0,1,1,1,,,,,,,,,,,,,,,,,,,,,,,,,,,,,,,,,,,,,,,,,,,,,,,,,,,,,,,,,,,,,,,,,,,,,,,,,,,,,,,,,,,,,,,,,,,,,,,,,,47.08531618899997,53.35015031900002,,,,,101520,0,1,0,3,0,1,2,0,6,2020_Oct_15_1050,listening_fmri,3.2.4,59.595903539443405,
0,parcelated_audio/22/22_3.ogg,,,,,,,,,0,0,0,0,0,0,0,0,0,0,0,0,,,,,,,,,,,,,0,0,0,0,0,2,2,2,,,,,,,,,,,,,,,,,,,,,,,,,,,,,,,,,,,,,,,,,,,,,,,,,,,,,,,,,,,,,,,,,,,,,,,,,,,,,,,,,,,,,,,,,,,,,,,,,,53.350570278000305,66.28100949600048,,,,,101520,0,1,0,3,0,1,2,0,6,2020_Oct_15_1050,listening_fmri,3.2.4,59.595903539443405,
0,parcelated_audio/22/22_4.ogg,,,,,,,,,0,0,0,0,0,0,0,0,0,0,0,0,,,,,,,,,,,,,0,0,0,0,0,3,3,3,,,,,,,,,,,,,,,,,,,,,,,,,,,,,,,,,,,,,,,,,,,,,,,,,,,,,,,,,,,,,,,,,,,,,,,,,,,,,,,,,,,,,,,,,,,,,,,,,,66.28421434400025,78.68297724400054,,,,,101520,0,1,0,3,0,1,2,0,6,2020_Oct_15_1050,listening_fmri,3.2.4,59.595903539443405,
0,parcelated_audio/22/22_5.ogg,,,,,,,,,0,0,0,0,0,0,0,0,0,0,0,0,,,,,,,,,,,,,0,0,0,0,0,4,4,4,,,,,,,,,,,,,,,,,,,,,,,,,,,,,,,,,,,,,,,,,,,,,,,,,,,,,,,,,,,,,,,,,,,,,,,,,,,,,,,,,,,,,,,,,,,,,,,,,,78.6841484180004,84.59848168999997,,,,,101520,0,1,0,3,0,1,2,0,6,2020_Oct_15_1050,listening_fmri,3.2.4,59.595903539443405,
0,parcelated_audio/22/22_6.ogg,,,,,,,,,0,0,0,0,0,0,0,0,0,0,0,0,,,,,,,,,,,,,0,0,0,0,0,5,5,5,,,,,,,,,,,,,,,,,,,,,,,,,,,,,,,,,,,,,,,,,,,,,,,,,,,,,,,,,,,,,,,,,,,,,,,,,,,,,,,,,,,,,,,,,,,,,,,,,,84.59882054500031,93.76889796799969,,,,,101520,0,1,0,3,0,1,2,0,6,2020_Oct_15_1050,listening_fmri,3.2.4,59.595903539443405,
0,parcelated_audio/22/22_7.ogg,,,,,,,,,0,0,0,0,0,0,0,0,0,0,0,0,,,,,,,,,,,,,0,0,0,0,0,6,6,6,,,,,,,,,,,,,,,,,,,,,,,,,,,,,,,,,,,,,,,,,,,,,,,,,,,,,,,,,,,,,,,,,,,,,,,,,,,,,,,,,,,,,,,,,,,,,,,,,,93.7692715459998,98.74932314800026,,,,,101520,0,1,0,3,0,1,2,0,6,2020_Oct_15_1050,listening_fmri,3.2.4,59.595903539443405,
0,parcelated_audio/22/22_8.ogg,,,,,,,,,0,0,0,0,0,0,0,0,0,0,0,0,,,,,,,,,,,,,0,0,0,0,0,7,7,7,,,,,,,,,,,,,,,,,,,,,,,,,,,,,,,,,,,,,,,,,,,,,,,,,,,,,,,,,,,,,,,,,,,,,,,,,,,,,,,,,,,,,,,,,,,,,,,,,,98.74966992500049,102.26986216600017,,,,,101520,0,1,0,3,0,1,2,0,6,2020_Oct_15_1050,listening_fmri,3.2.4,59.595903539443405,
0,parcelated_audio/22/22_9.ogg,,,,,,,,,0,0,0,0,0,0,0,0,0,0,0,0,,,,,,,,,,,,,0,0,0,0,0,8,8,8,,,,,,,,,,,,,,,,,,,,,,,,,,,,,,,,,,,,,,,,,,,,,,,,,,,,,,,,,,,,,,,,,,,,,,,,,,,,,,,,,,,,,,,,,,,,,,,,,,102.27153754400024,106.1633742160002,,,,,101520,0,1,0,3,0,1,2,0,6,2020_Oct_15_1050,listening_fmri,3.2.4,59.595903539443405,
0,parcelated_audio/22/22_10.ogg,,,,,,,,,0,0,0,0,0,0,0,0,0,0,0,0,,,,,,,,,,,,,0,0,0,0,0,9,9,9,,,,,,,,,,,,,,,,,,,,,,,,,,,,,,,,,,,,,,,,,,,,,,,,,,,,,,,,,,,,,,,,,,,,,,,,,,,,,,,,,,,,,,,,,,,,,,,,,,106.16385806000017,110.92141313800039,,,,,101520,0,1,0,3,0,1,2,0,6,2020_Oct_15_1050,listening_fmri,3.2.4,59.595903539443405,
0,parcelated_audio/22/22_11.ogg,,,,,,,,,0,0,0,0,0,0,0,0,0,0,0,0,,,,,,,,,,,,,0,0,0,0,0,10,10,10,,,,,,,,,,,,,,,,,,,,,,,,,,,,,,,,,,,,,,,,,,,,,,,,,,,,,,,,,,,,,,,,,,,,,,,,,,,,,,,,,,,,,,,,,,,,,,,,,,110.92177558399999,118.20346258100017,,,,,101520,0,1,0,3,0,1,2,0,6,2020_Oct_15_1050,listening_fmri,3.2.4,59.595903539443405,
0,parcelated_audio/22/22_12.ogg,,,,,,,,,0,0,0,0,0,0,0,0,0,0,0,0,,,,,,,,,,,,,0,0,0,0,0,11,11,11,,,,,,,,,,,,,,,,,,,,,,,,,,,,,,,,,,,,,,,,,,,,,,,,,,,,,,,,,,,,,,,,,,,,,,,,,,,,,,,,,,,,,,,,,,,,,,,,,,118.2039880530001,126.00317034900036,,,,,101520,0,1,0,3,0,1,2,0,6,2020_Oct_15_1050,listening_fmri,3.2.4,59.595903539443405,
0,parcelated_audio/22/22_13.ogg,,,,,,,,,0,0,0,0,0,0,0,0,0,0,0,0,,,,,,,,,,,,,0,0,0,0,0,12,12,12,,,,,,,,,,,,,,,,,,,,,,,,,,,,,,,,,,,,,,,,,,,,,,,,,,,,,,,,,,,,,,,,,,,,,,,,,,,,,,,,,,,,,,,,,,,,,,,,,,126.00363078800001,133.2636739239997,,,,,101520,0,1,0,3,0,1,2,0,6,2020_Oct_15_1050,listening_fmri,3.2.4,59.595903539443405,
0,parcelated_audio/22/22_14.ogg,,,,,,,,,0,0,0,0,0,0,0,0,0,0,0,0,,,,,,,,,,,,,0,0,0,0,0,13,13,13,,,,,,,,,,,,,,,,,,,,,,,,,,,,,,,,,,,,,,,,,,,,,,,,,,,,,,,,,,,,,,,,,,,,,,,,,,,,,,,,,,,,,,,,,,,,,,,,,,133.26406977700026,138.86344789299983,,,,,101520,0,1,0,3,0,1,2,0,6,2020_Oct_15_1050,listening_fmri,3.2.4,59.595903539443405,
0,parcelated_audio/22/22_15.ogg,,,,,,,,,0,0,0,0,0,0,0,0,0,0,0,0,,,,,,,,,,,,,0,0,0,0,0,14,14,14,,,,,,,,,,,,,,,,,,,,,,,,,,,,,,,,,,,,,,,,,,,,,,,,,,,,,,,,,,,,,,,,,,,,,,,,,,,,,,,,,,,,,,,,,,,,,,,,,,138.86376492700037,146.63197727900024,,,,,101520,0,1,0,3,0,1,2,0,6,2020_Oct_15_1050,listening_fmri,3.2.4,59.595903539443405,
0,parcelated_audio/22/22_16.ogg,,,,,,,,,0,0,0,0,0,0,0,0,0,0,0,0,,,,,,,,,,,,,0,0,0,0,0,15,15,15,,,,,,,,,,,,,,,,,,,,,,,,,,,,,,,,,,,,,,,,,,,,,,,,,,,,,,,,,,,,,,,,,,,,,,,,,,,,,,,,,,,,,,,,,,,,,,,,,,146.63240132700048,155.29671226200026,,,,,101520,0,1,0,3,0,1,2,0,6,2020_Oct_15_1050,listening_fmri,3.2.4,59.595903539443405,
0,parcelated_audio/22/22_17.ogg,,,,,,,,,0,0,0,0,0,0,0,0,0,0,0,0,,,,,,,,,,,,,0,0,0,0,0,16,16,16,,,,,,,,,,,,,,,,,,,,,,,,,,,,,,,,,,,,,,,,,,,,,,,,,,,,,,,,,,,,,,,,,,,,,,,,,,,,,,,,,,,,,,,,,,,,,,,,,,155.29704829000002,158.42844449699987,,,,,101520,0,1,0,3,0,1,2,0,6,2020_Oct_15_1050,listening_fmri,3.2.4,59.595903539443405,
0,parcelated_audio/22/22_18.ogg,,,,,,,,,0,0,0,0,0,0,0,0,0,0,0,0,,,,,,,,,,,,,0,0,0,0,0,17,17,17,,,,,,,,,,,,,,,,,,,,,,,,,,,,,,,,,,,,,,,,,,,,,,,,,,,,,,,,,,,,,,,,,,,,,,,,,,,,,,,,,,,,,,,,,,,,,,,,,,158.4294770460001,165.15354259000014,,,,,101520,0,1,0,3,0,1,2,0,6,2020_Oct_15_1050,listening_fmri,3.2.4,59.595903539443405,
0,parcelated_audio/22/22_19.ogg,,,,,,,,,0,0,0,0,0,0,0,0,0,0,0,0,,,,,,,,,,,,,0,0,0,0,0,18,18,18,,,,,,,,,,,,,,,,,,,,,,,,,,,,,,,,,,,,,,,,,,,,,,,,,,,,,,,,,,,,,,,,,,,,,,,,,,,,,,,,,,,,,,,,,,,,,,,,,,165.15390453500004,170.107637737,,,,,101520,0,1,0,3,0,1,2,0,6,2020_Oct_15_1050,listening_fmri,3.2.4,59.595903539443405,
0,parcelated_audio/22/22_20.ogg,,,,,,,,,0,0,0,0,0,0,0,0,0,0,0,0,,,,,,,,,,,,,0,0,0,0,0,19,19,19,,,,,,,,,,,,,,,,,,,,,,,,,,,,,,,,,,,,,,,,,,,,,,,,,,,,,,,,,,,,,,,,,,,,,,,,,,,,,,,,,,,,,,,,,,,,,,,,,,170.10813009499998,184.2257958070004,,,,,101520,0,1,0,3,0,1,2,0,6,2020_Oct_15_1050,listening_fmri,3.2.4,59.595903539443405,
0,parcelated_audio/22/22_21.ogg,,,,,,,,,0,0,0,0,0,0,0,0,0,0,0,0,,,,,,,,,,,,,0,0,0,0,0,20,20,20,,,,,,,,,,,,,,,,,,,,,,,,,,,,,,,,,,,,,,,,,,,,,,,,,,,,,,,,,,,,,,,,,,,,,,,,,,,,,,,,,,,,,,,,,,,,,,,,,,184.22746009000002,186.23276620199977,,,,,101520,0,1,0,3,0,1,2,0,6,2020_Oct_15_1050,listening_fmri,3.2.4,59.595903539443405,
0,parcelated_audio/22/22_22.ogg,,,,,,,,,0,0,0,0,0,0,0,0,0,0,0,0,,,,,,,,,,,,,0,0,0,0,0,21,21,21,,,,,,,,,,,,,,,,,,,,,,,,,,,,,,,,,,,,,,,,,,,,,,,,,,,,,,,,,,,,,,,,,,,,,,,,,,,,,,,,,,,,,,,,,,,,,,,,,,186.23318822800047,189.36707672900047,,,,,101520,0,1,0,3,0,1,2,0,6,2020_Oct_15_1050,listening_fmri,3.2.4,59.595903539443405,
0,parcelated_audio/22/22_23.ogg,,,,,,,,,0,0,0,0,0,0,0,0,0,0,0,0,,,,,,,,,,,,,0,0,0,0,0,22,22,22,,,,,,,,,,,,,,,,,,,,,,,,,,,,,,,,,,,,,,,,,,,,,,,,,,,,,,,,,,,,,,,,,,,,,,,,,,,,,,,,,,,,,,,,,,,,,,,,,,189.36741048899967,195.86841405799987,,,,,101520,0,1,0,3,0,1,2,0,6,2020_Oct_15_1050,listening_fmri,3.2.4,59.595903539443405,
0,parcelated_audio/22/22_24.ogg,,,,,,,,,0,0,0,0,0,0,0,0,0,0,0,0,,,,,,,,,,,,,0,0,0,0,0,23,23,23,,,,,,,,,,,,,,,,,,,,,,,,,,,,,,,,,,,,,,,,,,,,,,,,,,,,,,,,,,,,,,,,,,,,,,,,,,,,,,,,,,,,,,,,,,,,,,,,,,195.8688141140001,201.59803188499973,,,,,101520,0,1,0,3,0,1,2,0,6,2020_Oct_15_1050,listening_fmri,3.2.4,59.595903539443405,
0,parcelated_audio/22/22_25.ogg,,,,,,,,,0,0,0,0,0,0,0,0,0,0,0,0,,,,,,,,,,,,,0,0,0,0,0,24,24,24,,,,,,,,,,,,,,,,,,,,,,,,,,,,,,,,,,,,,,,,,,,,,,,,,,,,,,,,,,,,,,,,,,,,,,,,,,,,,,,,,,,,,,,,,,,,,,,,,,201.5983799100004,214.27104286699978,,,,,101520,0,1,0,3,0,1,2,0,6,2020_Oct_15_1050,listening_fmri,3.2.4,59.595903539443405,
0,parcelated_audio/22/22_26.ogg,,,,,,,,,0,0,0,0,0,0,0,0,0,0,0,0,,,,,,,,,,,,,0,0,0,0,0,25,25,25,,,,,,,,,,,,,,,,,,,,,,,,,,,,,,,,,,,,,,,,,,,,,,,,,,,,,,,,,,,,,,,,,,,,,,,,,,,,,,,,,,,,,,,,,,,,,,,,,,214.27138536300026,220.99845621700024,,,,,101520,0,1,0,3,0,1,2,0,6,2020_Oct_15_1050,listening_fmri,3.2.4,59.595903539443405,
0,parcelated_audio/22/22_27.ogg,,,,,,,,,0,0,0,0,0,0,0,0,0,0,0,0,,,,,,,,,,,,,0,0,0,0,0,26,26,26,,,,,,,,,,,,,,,,,,,,,,,,,,,,,,,,,,,,,,,,,,,,,,,,,,,,,,,,,,,,,,,,,,,,,,,,,,,,,,,,,,,,,,,,,,,,,,,,,,220.99893515300028,225.38730172000032,,,,,101520,0,1,0,3,0,1,2,0,6,2020_Oct_15_1050,listening_fmri,3.2.4,59.595903539443405,
0,parcelated_audio/22/22_28.ogg,,,,,,,,,0,0,0,0,0,0,0,0,0,0,0,0,,,,,,,,,,,,,0,0,0,0,0,27,27,27,,,,,,,,,,,,,,,,,,,,,,,,,,,,,,,,,,,,,,,,,,,,,,,,,,,,,,,,,,,,,,,,,,,,,,,,,,,,,,,,,,,,,,,,,,,,,,,,,,225.38780321600007,231.1126594970001,,,,,101520,0,1,0,3,0,1,2,0,6,2020_Oct_15_1050,listening_fmri,3.2.4,59.595903539443405,
0,parcelated_audio/22/22_29.ogg,,,,,,,,,0,0,0,0,0,0,0,0,0,0,0,0,,,,,,,,,,,,,0,0,0,0,0,28,28,28,,,,,,,,,,,,,,,,,,,,,,,,,,,,,,,,,,,,,,,,,,,,,,,,,,,,,,,,,,,,,,,,,,,,,,,,,,,,,,,,,,,,,,,,,,,,,,,,,,231.1129794690005,236.81269178300045,,,,,101520,0,1,0,3,0,1,2,0,6,2020_Oct_15_1050,listening_fmri,3.2.4,59.595903539443405,
0,parcelated_audio/22/22_30.ogg,,,,,,,,,0,0,0,0,0,0,0,0,0,0,0,0,,,,,,,,,,,,,0,0,0,0,0,29,29,29,,,,,,,,,,,,,,,,,,,,,,,,,,,,,,,,,,,,,,,,,,,,,,,,,,,,,,,,,,,,,,,,,,,,,,,,,,,,,,,,,,,,,,,,,,,,,,,,,,236.81304363399977,239.51017746700018,,,,,101520,0,1,0,3,0,1,2,0,6,2020_Oct_15_1050,listening_fmri,3.2.4,59.595903539443405,
0,parcelated_audio/22/22_31.ogg,,,,,,,,,0,0,0,0,0,0,0,0,0,0,0,0,,,,,,,,,,,,,0,0,0,0,0,30,30,30,,,,,,,,,,,,,,,,,,,,,,,,,,,,,,,,,,,,,,,,,,,,,,,,,,,,,,,,,,,,,,,,,,,,,,,,,,,,,,,,,,,,,,,,,,,,,,,,,,239.51076629599993,244.65657763800027,,,,,101520,0,1,0,3,0,1,2,0,6,2020_Oct_15_1050,listening_fmri,3.2.4,59.595903539443405,
0,parcelated_audio/22/22_32.ogg,,,,,,,,,0,0,0,0,0,0,0,0,0,0,0,0,,,,,,,,,,,,,0,0,0,0,0,31,31,31,,,,,,,,,,,,,,,,,,,,,,,,,,,,,,,,,,,,,,,,,,,,,,,,,,,,,,,,,,,,,,,,,,,,,,,,,,,,,,,,,,,,,,,,,,,,,,,,,,244.65703116300028,250.9786935130005,,,,,101520,0,1,0,3,0,1,2,0,6,2020_Oct_15_1050,listening_fmri,3.2.4,59.595903539443405,
0,parcelated_audio/22/22_33.ogg,,,,,,,,,0,0,0,0,0,0,0,0,0,0,0,0,,,,,,,,,,,,,0,0,0,0,0,32,32,32,,,,,,,,,,,,,,,,,,,,,,,,,,,,,,,,,,,,,,,,,,,,,,,,,,,,,,,,,,,,,,,,,,,,,,,,,,,,,,,,,,,,,,,,,,,,,,,,,,250.9791773019997,255.40264298500006,,,,,101520,0,1,0,3,0,1,2,0,6,2020_Oct_15_1050,listening_fmri,3.2.4,59.595903539443405,
0,parcelated_audio/22/22_34.ogg,,,,,,,,,0,0,0,0,0,0,0,0,0,0,0,0,,,,,,,,,,,,,0,0,0,0,0,33,33,33,,,,,,,,,,,,,,,,,,,,,,,,,,,,,,,,,,,,,,,,,,,,,,,,,,,,,,,,,,,,,,,,,,,,,,,,,,,,,,,,,,,,,,,,,,,,,,,,,,255.40321236,263.4280490399997,,,,,101520,0,1,0,3,0,1,2,0,6,2020_Oct_15_1050,listening_fmri,3.2.4,59.595903539443405,
0,parcelated_audio/22/22_35.ogg,,,,,,,,,0,0,0,0,0,0,0,0,0,0,0,0,,,,,,,,,,,,,0,0,0,0,0,34,34,34,,,,,,,,,,,,,,,,,,,,,,,,,,,,,,,,,,,,,,,,,,,,,,,,,,,,,,,,,,,,,,,,,,,,,,,,,,,,,,,,,,,,,,,,,,,,,,,,,,263.42851559800056,270.9384262700005,,,,,101520,0,1,0,3,0,1,2,0,6,2020_Oct_15_1050,listening_fmri,3.2.4,59.595903539443405,
0,parcelated_audio/22/22_36.ogg,,,,,,,,,0,0,0,0,0,0,0,0,0,0,0,0,,,,,,,,,,,,,0,0,0,0,0,35,35,35,,,,,,,,,,,,,,,,,,,,,,,,,,,,,,,,,,,,,,,,,,,,,,,,,,,,,,,,,,,,,,,,,,,,,,,,,,,,,,,,,,,,,,,,,,,,,,,,,,270.9388023829997,283.6465113940003,,,,,101520,0,1,0,3,0,1,2,0,6,2020_Oct_15_1050,listening_fmri,3.2.4,59.595903539443405,
0,parcelated_audio/22/22_37.ogg,,,,,,,,,0,0,0,0,0,0,0,0,0,0,0,0,,,,,,,,,,,,,0,0,0,0,0,36,36,36,,,,,,,,,,,,,,,,,,,,,,,,,,,,,,,,,,,,,,,,,,,,,,,,,,,,,,,,,,,,,,,,,,,,,,,,,,,,,,,,,,,,,,,,,,,,,,,,,,283.6492908959999,290.8066144730001,,,,,101520,0,1,0,3,0,1,2,0,6,2020_Oct_15_1050,listening_fmri,3.2.4,59.595903539443405,
0,,,,,,,,,,0,0,0,0,0,0,0,0,0,0,0,0,,,,,,,,,,,,,0,0,0,0,,,,,,,,,,,,,,,,,,,,,,,,,,,,,,,,,,,,,,,,,,,,,,,,,,,,,,,,,,,,,,,,,,,,,,,,,,,,,,,,,,,,,,,,,,,,,,,,,,,,,,,,,,,,101520,0,1,0,3,0,1,2,0,6,2020_Oct_15_1050,listening_fmri,3.2.4,59.595903539443405,
0,,,,,,,,,,0,0,0,0,0,0,0,0,0,0,0,0,,,,,,,,,,,,,,,,,,,,,,,,,,,,,,,,,,,,,,290.8071076870001,296.7992107279997,366.73772950700004,None,,,,,,,,,,,,,,,,,,,,,,,,,,,,,,,,,,,,,,,,,,,,,,,,,,,,,,,,,,,,,,,,,,,,,,,,,,,,,,,372.7416073589993,None,372.7416073589993,None,101520,0,1,0,3,0,1,2,0,6,2020_Oct_15_1050,listening_fmri,3.2.4,59.595903539443405,
0,,,,,,,,,,0,0,0,0,0,0,0,0,,,,,,,,,,,,,,,,,,,,,,,,,,,,,,,,,,,,,,,,,,,,,,,,,,,,,,,,,,,,,,,,,,,,,,,,,,,,,,,,,,,,,,,,,,,,,,,,,,,,,,,,,,,,,,,,,,,,,,,,,,,,,,,,101520,0,1,0,3,0,1,2,0,6,2020_Oct_15_1050,listening_fmri,3.2.4,59.595903539443405,
