instructText,count,trials_5.thisRepN,trials_5.thisTrialN,trials_5.thisN,trials_5.thisIndex,trials_6.thisRepN,trials_6.thisTrialN,trials_6.thisN,trials_6.thisIndex,trials.thisRepN,trials.thisTrialN,trials.thisN,trials.thisIndex,trials_8.thisRepN,trials_8.thisTrialN,trials_8.thisN,trials_8.thisIndex,story_list_block1,action_list_block1,story_list_block2,action_list_block2,key_resp_3.keys,key_resp_3.rt,key_resp_3.started,key_resp_3.stopped,text_13.started,text_13.stopped,text_23.started,text_23.stopped,text_43.started,text_43.stopped,key_resp_11.keys,key_resp_11.rt,key_resp_11.started,key_resp_11.stopped,text_44.started,text_44.stopped,text_53.started,text_53.stopped,image_10.started,image_10.stopped,text_22.started,text_22.stopped,recall,question1_answer,order of question,text_14.started,text_14.stopped,text_15.started,text_15.stopped,image_6.started,image_6.stopped,polygon_3.started,polygon_3.stopped,bottom_line_3.started,bottom_line_3.stopped,right_line_3.started,right_line_3.stopped,left_line_3.started,left_line_3.stopped,question2_answer,text_16.started,text_16.stopped,text_17.started,text_17.stopped,image_7.started,image_7.stopped,polygon_4.started,polygon_4.stopped,bottom_line_4.started,bottom_line_4.stopped,right_line_4.started,right_line_4.stopped,left_line_4.started,left_line_4.stopped,question3_answer,text_18.started,text_18.stopped,text_19.started,text_19.stopped,image_8.started,image_8.stopped,polygon_5.started,polygon_5.stopped,bottom_line_5.started,bottom_line_5.stopped,right_line_5.started,right_line_5.stopped,left_line_5.started,left_line_5.stopped,question4_answer,text_20.started,text_20.stopped,text_21.started,text_21.stopped,image_9.started,image_9.stopped,polygon_6.started,polygon_6.stopped,bottom_line_6.started,bottom_line_6.stopped,right_line_6.started,right_line_6.stopped,left_line_6.started,left_line_6.stopped,question5_answer,text_25.started,text_25.stopped,text_26.started,text_26.stopped,image_11.started,image_11.stopped,polygon_7.started,polygon_7.stopped,bottom_line_7.started,bottom_line_7.stopped,right_line_7.started,right_line_7.stopped,left_line_7.started,left_line_7.stopped,question6_answer,text_27.started,text_27.stopped,text_28.started,text_28.stopped,image_12.started,image_12.stopped,polygon_8.started,polygon_8.stopped,bottom_line_8.started,bottom_line_8.stopped,right_line_8.started,right_line_8.stopped,left_line_8.started,left_line_8.stopped,question7_answer,text_29.started,text_29.stopped,text_30.started,text_30.stopped,image_13.started,image_13.stopped,polygon_9.started,polygon_9.stopped,bottom_line_9.started,bottom_line_9.stopped,right_line_9.started,right_line_9.stopped,left_line_9.started,left_line_9.stopped,question8_answer,text_31.started,text_31.stopped,text_32.started,text_32.stopped,image_14.started,image_14.stopped,polygon_10.started,polygon_10.stopped,bottom_line_10.started,bottom_line_10.stopped,right_line_10.started,right_line_10.stopped,left_line_10.started,left_line_10.stopped,text_36.started,text_36.stopped,participant,sA,sB,lA,lB,block_struct,random_seed,date,expName,psychopyVersion,frameRate,
"In the final part of the experiment, please answer 8 questions about each story.",,0,0,0,0,,,,,,,,,,,,,[42 31 24 11 13 22 33 44],[1 2 3 2 4 1 4 3],[32 43 41 14 23 12 21 34],[4 1 3 2 1 4 3 2],space,6.045761662999666,8.266845278999881,None,8.266845278999881,None,8.266845278999881,None,,,,,,,,,,,,,,,,,,,,,,,,,,,,,,,,,,,,,,,,,,,,,,,,,,,,,,,,,,,,,,,,,,,,,,,,,,,,,,,,,,,,,,,,,,,,,,,,,,,,,,,,,,,,,,,,,,,,,,,,,,,,,,,,,,,,,,,,,,,072821,1,3,0,3,1,54,2021_Jul_28_1712,short_answer,3.2.4,59.95866473642766,
"We did not tell you to think of all or some of these questions during the story, but please do your best to answer them.",,0,1,1,1,,,,,,,,,,,,,,,,,space,6.317898958000114,14.350606238000182,None,14.350606238000182,None,14.350606238000182,None,,,,,,,,,,,,,,,,,,,,,,,,,,,,,,,,,,,,,,,,,,,,,,,,,,,,,,,,,,,,,,,,,,,,,,,,,,,,,,,,,,,,,,,,,,,,,,,,,,,,,,,,,,,,,,,,,,,,,,,,,,,,,,,,,,,,,,,,,,,072821,1,3,0,3,1,54,2021_Jul_28_1712,short_answer,3.2.4,59.95866473642766,
"Answer as much as you remember, and be specific and concrete in your answers. It is best to try to be as faithful as possible to what the story actually said.
",,0,2,2,2,,,,,,,,,,,,,,,,,space,8.264614927000366,20.71774679400005,None,20.71774679400005,None,20.71774679400005,None,,,,,,,,,,,,,,,,,,,,,,,,,,,,,,,,,,,,,,,,,,,,,,,,,,,,,,,,,,,,,,,,,,,,,,,,,,,,,,,,,,,,,,,,,,,,,,,,,,,,,,,,,,,,,,,,,,,,,,,,,,,,,,,,,,,,,,,,,,,072821,1,3,0,3,1,54,2021_Jul_28_1712,short_answer,3.2.4,59.95866473642766,
"When you have finished typing your answer, hit ‘return’ to submit your answer and move onto the next question. ",,0,3,3,3,,,,,,,,,,,,,,,,,space,5.310441462999734,29.017230657000255,None,29.017230657000255,None,29.017230657000255,None,,,,,,,,,,,,,,,,,,,,,,,,,,,,,,,,,,,,,,,,,,,,,,,,,,,,,,,,,,,,,,,,,,,,,,,,,,,,,,,,,,,,,,,,,,,,,,,,,,,,,,,,,,,,,,,,,,,,,,,,,,,,,,,,,,,,,,,,,,,072821,1,3,0,3,1,54,2021_Jul_28_1712,short_answer,3.2.4,59.95866473642766,
,0,,,,,0,0,0,0,0,0,0,0,,,,,,,,,,,,,,,,,34.36778067200021,None,space,5.071371059000285,34.36778067200021,None,34.36778067200021,None,34.36778067200021,None,39.535862310000084,None,39.535862310000084,None,3,Anna has only 35 minutes but david has 3 hours,"[2, 1]",41.61749401999987,None,41.61749401999987,None,41.61749401999987,None,41.61749401999987,None,41.61749401999987,None,41.61749401999987,None,41.61749401999987,None,There was a problem with the metal detector,63.784135219999825,None,63.784135219999825,None,63.784135219999825,None,63.784135219999825,None,63.784135219999825,None,63.784135219999825,None,63.784135219999825,None,Anna's gate,82.3165246120002,None,82.3165246120002,None,82.3165246120002,None,82.3165246120002,None,82.3165246120002,None,82.3165246120002,None,82.3165246120002,None,"Anna sits near the window at the business class section, david is not mentioned",88.91830143200013,None,88.91830143200013,None,88.91830143200013,None,88.91830143200013,None,88.91830143200013,None,88.91830143200013,None,88.91830143200013,None,Anna is holding suitcases david is holding a book,109.38403217999985,None,109.38403217999985,None,109.38403217999985,None,109.38403217999985,None,109.38403217999985,None,109.38403217999985,None,109.38403217999985,None,David asks anna if she has ever done gymnastics,123.63340150300019,None,123.63340150300019,None,123.63340150300019,None,123.63340150300019,None,123.63340150300019,None,123.63340150300019,None,123.63340150300019,None,The next tuesday for dinner,141.982838979,None,141.982838979,None,141.982838979,None,141.982838979,None,141.982838979,None,141.982838979,None,141.982838979,None,3,148.51648078100015,None,148.51648078100015,None,148.51648078100015,None,148.51648078100015,None,148.51648078100015,None,148.51648078100015,None,148.51648078100015,None,,,072821,1,3,0,3,1,54,2021_Jul_28_1712,short_answer,3.2.4,59.95866473642766,
,0,,,,,0,0,0,0,,,,,,,,,,,,,,,,,,,,,,,,,,,,,,,,,,,,,,,,,,,,,,,,,,,,,,,,,,,,,,,,,,,,,,,,,,,,,,,,,,,,,,,,,,,,,,,,,,,,,,,,,,,,,,,,,,,,,,,,,,,,,,,,,,,,,,,,,,,,,,,,,,,,,,,,,,,,,,,072821,1,3,0,3,1,54,2021_Jul_28_1712,short_answer,3.2.4,59.95866473642766,
,1,,,,,0,1,1,1,0,0,0,0,,,,,,,,,,,,,,,,,158.18252030099984,None,space,1.0207294179999735,158.18252030099984,None,158.18252030099984,None,158.18252030099984,None,159.2495950319999,None,159.2495950319999,None,Cheers,Wooden floors,"[2, 1]",160.4163254949999,None,160.4163254949999,None,160.4163254949999,None,160.4163254949999,None,160.4163254949999,None,160.4163254949999,None,160.4163254949999,None,Very ordinary,180.04894457499995,None,180.04894457499995,None,180.04894457499995,None,180.04894457499995,None,180.04894457499995,None,180.04894457499995,None,180.04894457499995,None,Mr shelton orders the steak medium rare with a martini and mr gordon orders ribs with manhattan,187.36590595799998,None,187.36590595799998,None,187.36590595799998,None,187.36590595799998,None,187.36590595799998,None,187.36590595799998,None,187.36590595799998,None,They do not like it that much as the meat is dry and overcooked,209.09997337799996,None,209.09997337799996,None,209.09997337799996,None,209.09997337799996,None,209.09997337799996,None,209.09997337799996,None,209.09997337799996,None,Mr gordon is an investor and mr shelton is a business owner/boss,224.11640128499994,None,224.11640128499994,None,224.11640128499994,None,224.11640128499994,None,224.11640128499994,None,224.11640128499994,None,224.11640128499994,None,"600,000",240.9157195130001,None,240.9157195130001,None,240.9157195130001,None,240.9157195130001,None,240.9157195130001,None,240.9157195130001,None,240.9157195130001,None,Do not remember,250.231848076,None,250.231848076,None,250.231848076,None,250.231848076,None,250.231848076,None,250.231848076,None,250.231848076,None,Cheers,255.96547896799984,None,255.96547896799984,None,255.96547896799984,None,255.96547896799984,None,255.96547896799984,None,255.96547896799984,None,255.96547896799984,None,,,072821,1,3,0,3,1,54,2021_Jul_28_1712,short_answer,3.2.4,59.95866473642766,
,1,,,,,0,1,1,1,,,,,,,,,,,,,,,,,,,,,,,,,,,,,,,,,,,,,,,,,,,,,,,,,,,,,,,,,,,,,,,,,,,,,,,,,,,,,,,,,,,,,,,,,,,,,,,,,,,,,,,,,,,,,,,,,,,,,,,,,,,,,,,,,,,,,,,,,,,,,,,,,,,,,,,,,,,,,,,072821,1,3,0,3,1,54,2021_Jul_28_1712,short_answer,3.2.4,59.95866473642766,
,2,,,,,0,2,2,2,,,,,,,,,,,,,,,,,,,,,,,,,,,,,,,,,,,,,,,,,,,,,,,,,,,,,,,,,,,,,,,,,,,,,,,,,,,,,,,,,,,,,,,,,,,,,,,,,,,,,,,,,,,,,,,,,,,,,,,,,,,,,,,,,,,,,,,,,,,,,,,,,,,,,,,,,,,,,,,072821,1,3,0,3,1,54,2021_Jul_28_1712,short_answer,3.2.4,59.95866473642766,
,3,,,,,0,3,3,3,0,0,0,0,,,,,,,,,,,,,,,,,265.498155711,None,space,1.2771700620000956,265.498155711,None,265.498155711,None,265.498155711,None,266.8147965439998,None,266.8147965439998,None,Sadie wants her poster back,It is reminiscent of the 70s,"[2, 1]",267.89807981600006,None,267.89807981600006,None,267.89807981600006,None,267.89807981600006,None,267.89807981600006,None,267.89807981600006,None,267.89807981600006,None,The menus are laminated and have weird names for the foods,277.9982847219999,None,277.9982847219999,None,277.9982847219999,None,277.9982847219999,None,277.9982847219999,None,277.9982847219999,None,277.9982847219999,None,Sadie orders a rueben and thomas orders a burger,288.081417803,None,288.081417803,None,288.081417803,None,288.081417803,None,288.081417803,None,288.081417803,None,288.081417803,None,Sadie takes half of her rueben with her but thomas does not like the burger and feels that it tastes fishy in his mouth,300.66406260099984,None,300.66406260099984,None,300.66406260099984,None,300.66406260099984,None,300.66406260099984,None,300.66406260099984,None,300.66406260099984,None,For two months,322.2314804389998,None,322.2314804389998,None,322.2314804389998,None,322.2314804389998,None,322.2314804389998,None,322.2314804389998,None,322.2314804389998,None,Thomas mentions he has issues with his career and that is why he is breaking up with sadie,329.24802995400023,None,329.24802995400023,None,329.24802995400023,None,329.24802995400023,None,329.24802995400023,None,329.24802995400023,None,329.24802995400023,None,"Sadie does not want to break up with thomas and tries to convince him to stay with her, to see each other less if he has problems. however, thomas says his career and work are at stake",346.9143907920002,None,346.9143907920002,None,346.9143907920002,None,346.9143907920002,None,346.9143907920002,None,346.9143907920002,None,346.9143907920002,None,Sadie wants her poster back,392.980014106,None,392.980014106,None,392.980014106,None,392.980014106,None,392.980014106,None,392.980014106,None,392.980014106,None,,,072821,1,3,0,3,1,54,2021_Jul_28_1712,short_answer,3.2.4,59.95866473642766,
,3,,,,,0,3,3,3,,,,,,,,,,,,,,,,,,,,,,,,,,,,,,,,,,,,,,,,,,,,,,,,,,,,,,,,,,,,,,,,,,,,,,,,,,,,,,,,,,,,,,,,,,,,,,,,,,,,,,,,,,,,,,,,,,,,,,,,,,,,,,,,,,,,,,,,,,,,,,,,,,,,,,,,,,,,,,,072821,1,3,0,3,1,54,2021_Jul_28_1712,short_answer,3.2.4,59.95866473642766,
,4,,,,,0,4,4,4,0,0,0,0,,,,,,,,,,,,,,,,,402.9792434589999,None,space,1.0174769350001043,402.9792434589999,None,402.9792434589999,None,402.9792434589999,None,404.046756278,None,404.046756278,None,The groceries are 50 dollars and they pay by credit card,Emmanuella has been thinking about breaking up with liam for 5 months,"[1, 2]",404.98025485000016,None,404.98025485000016,None,404.98025485000016,None,404.98025485000016,None,404.98025485000016,None,404.98025485000016,None,404.98025485000016,None,She feels like they aren't right for each other,421.0968172160001,None,421.0968172160001,None,421.0968172160001,None,421.0968172160001,None,421.0968172160001,None,421.0968172160001,None,421.0968172160001,None,"Liam doesn't say anything at first but after a long sigh, he agrees with emmanuella that they should break up",431.3968400150002,None,431.3968400150002,None,431.3968400150002,None,431.3968400150002,None,431.3968400150002,None,431.3968400150002,None,431.3968400150002,None,Liam wants his cat luna back,453.0120607240001,None,453.0120607240001,None,453.0120607240001,None,453.0120607240001,None,453.0120607240001,None,453.0120607240001,None,453.0120607240001,None,Pretty crowded,460.9793126320001,None,460.9793126320001,None,460.9793126320001,None,460.9793126320001,None,460.9793126320001,None,460.9793126320001,None,460.9793126320001,None,"Emmanuella picks out a few boxes of bow tied pasta, vodka sauce and cheese",468.0793871599999,None,468.0793871599999,None,468.0793871599999,None,468.0793871599999,None,468.0793871599999,None,468.0793871599999,None,468.0793871599999,None,Only 1 is open and they step into number 5,487.84553643200024,None,487.84553643200024,None,487.84553643200024,None,487.84553643200024,None,487.84553643200024,None,487.84553643200024,None,487.84553643200024,None,The groceries are 50 dollars and they pay by credit card,499.09593434499993,None,499.09593434499993,None,499.09593434499993,None,499.09593434499993,None,499.09593434499993,None,499.09593434499993,None,499.09593434499993,None,,,072821,1,3,0,3,1,54,2021_Jul_28_1712,short_answer,3.2.4,59.95866473642766,
,4,,,,,0,4,4,4,,,,,,,,,,,,,,,,,,,,,,,,,,,,,,,,,,,,,,,,,,,,,,,,,,,,,,,,,,,,,,,,,,,,,,,,,,,,,,,,,,,,,,,,,,,,,,,,,,,,,,,,,,,,,,,,,,,,,,,,,,,,,,,,,,,,,,,,,,,,,,,,,,,,,,,,,,,,,,,072821,1,3,0,3,1,54,2021_Jul_28_1712,short_answer,3.2.4,59.95866473642766,
,5,,,,,0,5,5,5,0,0,0,0,,,,,,,,,,,,,,,,,515.5279179990002,None,space,0.7020080290003534,515.5279179990002,None,515.5279179990002,None,515.5279179990002,None,516.2782436729999,None,516.2782436729999,None,They sit in first class together,Can't remember,"[1, 2]",517.895174367,None,517.895174367,None,517.895174367,None,517.895174367,None,517.895174367,None,517.895174367,None,517.895174367,None,2 pink diamonds,530.2618023710002,None,530.2618023710002,None,530.2618023710002,None,530.2618023710002,None,530.2618023710002,None,530.2618023710002,None,530.2618023710002,None,Ring box,536.845040572,None,536.845040572,None,536.845040572,None,536.845040572,None,536.845040572,None,536.845040572,None,536.845040572,None,Her best friend,540.5945568970001,None,540.5945568970001,None,540.5945568970001,None,540.5945568970001,None,540.5945568970001,None,540.5945568970001,None,540.5945568970001,None,A good amount of time,545.8951702519998,None,545.8951702519998,None,545.8951702519998,None,545.8951702519998,None,545.8951702519998,None,545.8951702519998,None,545.8951702519998,None,"Isabel forgot her laptop in her duffel bag and sven needs to empty his pockets, which leads him to propose to her",553.0609504899999,None,553.0609504899999,None,553.0609504899999,None,553.0609504899999,None,553.0609504899999,None,553.0609504899999,None,553.0609504899999,None,Gate 6,584.2441891050003,None,584.2441891050003,None,584.2441891050003,None,584.2441891050003,None,584.2441891050003,None,584.2441891050003,None,584.2441891050003,None,They sit in first class together,588.7276055309999,None,588.7276055309999,None,588.7276055309999,None,588.7276055309999,None,588.7276055309999,None,588.7276055309999,None,588.7276055309999,None,,,072821,1,3,0,3,1,54,2021_Jul_28_1712,short_answer,3.2.4,59.95866473642766,
,5,,,,,0,5,5,5,,,,,,,,,,,,,,,,,,,,,,,,,,,,,,,,,,,,,,,,,,,,,,,,,,,,,,,,,,,,,,,,,,,,,,,,,,,,,,,,,,,,,,,,,,,,,,,,,,,,,,,,,,,,,,,,,,,,,,,,,,,,,,,,,,,,,,,,,,,,,,,,,,,,,,,,,,,,,,,072821,1,3,0,3,1,54,2021_Jul_28_1712,short_answer,3.2.4,59.95866473642766,
,6,,,,,0,6,6,6,0,0,0,0,,,,,,,,,,,,,,,,,598.7266487239999,None,space,0.7711768819999634,598.7266487239999,None,598.7266487239999,None,598.7266487239999,None,599.5441322669999,None,599.5441322669999,None,Eating together,Full of people,"[2, 1]",600.4610666839999,None,600.4610666839999,None,600.4610666839999,None,600.4610666839999,None,600.4610666839999,None,600.4610666839999,None,600.4610666839999,None,"Parmegan cheese, crackers",606.8782548029999,None,606.8782548029999,None,606.8782548029999,None,606.8782548029999,None,606.8782548029999,None,606.8782548029999,None,606.8782548029999,None,3 are open they go to 8,620.960564216,None,620.960564216,None,620.960564216,None,620.960564216,None,620.960564216,None,620.960564216,None,620.960564216,None,It is 14 dollars and ms. morrison pays by credit card,626.8278287879998,None,626.8278287879998,None,626.8278287879998,None,626.8278287879998,None,626.8278287879998,None,626.8278287879998,None,626.8278287879998,None,Ms. morrison is a business owner/seller of cheese and ms. bianchi is a client,640.4944265540003,None,640.4944265540003,None,640.4944265540003,None,640.4944265540003,None,640.4944265540003,None,640.4944265540003,None,640.4944265540003,None,Not sure,658.7599913960003,None,658.7599913960003,None,658.7599913960003,None,658.7599913960003,None,658.7599913960003,None,658.7599913960003,None,658.7599913960003,None,Not sure,663.7603750510002,None,663.7603750510002,None,663.7603750510002,None,663.7603750510002,None,663.7603750510002,None,663.7603750510002,None,663.7603750510002,None,Eating together,667.1941452229999,None,667.1941452229999,None,667.1941452229999,None,667.1941452229999,None,667.1941452229999,None,667.1941452229999,None,667.1941452229999,None,,,072821,1,3,0,3,1,54,2021_Jul_28_1712,short_answer,3.2.4,59.95866473642766,
,6,,,,,0,6,6,6,,,,,,,,,,,,,,,,,,,,,,,,,,,,,,,,,,,,,,,,,,,,,,,,,,,,,,,,,,,,,,,,,,,,,,,,,,,,,,,,,,,,,,,,,,,,,,,,,,,,,,,,,,,,,,,,,,,,,,,,,,,,,,,,,,,,,,,,,,,,,,,,,,,,,,,,,,,,,,,072821,1,3,0,3,1,54,2021_Jul_28_1712,short_answer,3.2.4,59.95866473642766,
,7,,,,,0,7,7,7,,,,,,,,,,,,,,,,,,,,,,,,,,,,,,,,,,,,,,,,,,,,,,,,,,,,,,,,,,,,,,,,,,,,,,,,,,,,,,,,,,,,,,,,,,,,,,,,,,,,,,,,,,,,,,,,,,,,,,,,,,,,,,,,,,,,,,,,,,,,,,,,,,,,,,,,,,,,,,,072821,1,3,0,3,1,54,2021_Jul_28_1712,short_answer,3.2.4,59.95866473642766,
,8,,,,,0,8,8,8,0,0,0,0,,,,,,,,,,,,,,,,,672.7099683920001,None,space,0.7324274150000747,672.7099683920001,None,672.7099683920001,None,672.7099683920001,None,673.4764734569999,None,673.4764734569999,None,Cheers with wine,2 hours,"[2, 1]",674.1602243930001,None,674.1602243930001,None,674.1602243930001,None,674.1602243930001,None,674.1602243930001,None,674.1602243930001,None,674.1602243930001,None,Not mentioned,680.7601971270001,None,680.7601971270001,None,680.7601971270001,None,680.7601971270001,None,680.7601971270001,None,680.7601971270001,None,680.7601971270001,None,7,686.6255695290001,None,686.6255695290001,None,686.6255695290001,None,686.6255695290001,None,686.6255695290001,None,686.6255695290001,None,686.6255695290001,None,Jeff is at first class and william is in first class as well,689.3763640000002,None,689.3763640000002,None,689.3763640000002,None,689.3763640000002,None,689.3763640000002,None,689.3763640000002,None,689.3763640000002,None,Can't remember,701.8924111679999,None,701.8924111679999,None,701.8924111679999,None,701.8924111679999,None,701.8924111679999,None,701.8924111679999,None,701.8924111679999,None,Don't remember,705.6756777989999,None,705.6756777989999,None,705.6756777989999,None,705.6756777989999,None,705.6756777989999,None,705.6756777989999,None,705.6756777989999,None,Don't remember,710.9094761810002,None,710.9094761810002,None,710.9094761810002,None,710.9094761810002,None,710.9094761810002,None,710.9094761810002,None,710.9094761810002,None,Cheers with wine,716.1921953770002,None,716.1921953770002,None,716.1921953770002,None,716.1921953770002,None,716.1921953770002,None,716.1921953770002,None,716.1921953770002,None,,,072821,1,3,0,3,1,54,2021_Jul_28_1712,short_answer,3.2.4,59.95866473642766,
,8,,,,,0,8,8,8,,,,,,,,,,,,,,,,,,,,,,,,,,,,,,,,,,,,,,,,,,,,,,,,,,,,,,,,,,,,,,,,,,,,,,,,,,,,,,,,,,,,,,,,,,,,,,,,,,,,,,,,,,,,,,,,,,,,,,,,,,,,,,,,,,,,,,,,,,,,,,,,,,,,,,,,,,,,,,,072821,1,3,0,3,1,54,2021_Jul_28_1712,short_answer,3.2.4,59.95866473642766,
,9,,,,,0,9,9,9,0,0,0,0,,,,,,,,,,,,,,,,,726.2426809680001,None,space,1.0511509749999277,726.2426809680001,None,726.2426809680001,None,726.2426809680001,None,727.3422972480002,None,727.3422972480002,None,It is 50 dollars and simon pays by credit card,A shopping basket ,"[1, 2]",728.1593344100002,None,728.1593344100002,None,728.1593344100002,None,728.1593344100002,None,728.1593344100002,None,728.1593344100002,None,728.1593344100002,None,Isn't this meat cute,737.575494362,None,737.575494362,None,737.575494362,None,737.575494362,None,737.575494362,None,737.575494362,None,737.575494362,None,They will meet on sunday for dinner,746.559542346,None,746.559542346,None,746.559542346,None,746.559542346,None,746.559542346,None,746.559542346,None,746.559542346,None,4 30,753.0251493750002,None,753.0251493750002,None,753.0251493750002,None,753.0251493750002,None,753.0251493750002,None,753.0251493750002,None,753.0251493750002,None,Not mentioned,757.9088428800001,None,757.9088428800001,None,757.9088428800001,None,757.9088428800001,None,757.9088428800001,None,757.9088428800001,None,757.9088428800001,None,Simon buys spices and vegetables for kebobs and carina buys meats ,764.791474527,None,764.791474527,None,764.791474527,None,764.791474527,None,764.791474527,None,764.791474527,None,764.791474527,None,Only 1 is open they step into 2,778.241875321,None,778.241875321,None,778.241875321,None,778.241875321,None,778.241875321,None,778.241875321,None,778.241875321,None,It is 50 dollars and simon pays by credit card,791.9252777659999,None,791.9252777659999,None,791.9252777659999,None,791.9252777659999,None,791.9252777659999,None,791.9252777659999,None,791.9252777659999,None,,,072821,1,3,0,3,1,54,2021_Jul_28_1712,short_answer,3.2.4,59.95866473642766,
,9,,,,,0,9,9,9,,,,,,,,,,,,,,,,,,,,,,,,,,,,,,,,,,,,,,,,,,,,,,,,,,,,,,,,,,,,,,,,,,,,,,,,,,,,,,,,,,,,,,,,,,,,,,,,,,,,,,,,,,,,,,,,,,,,,,,,,,,,,,,,,,,,,,,,,,,,,,,,,,,,,,,,,,,,,,,072821,1,3,0,3,1,54,2021_Jul_28_1712,short_answer,3.2.4,59.95866473642766,
,10,,,,,0,10,10,10,,,,,,,,,,,,,,,,,,,,,,,,,,,,,,,,,,,,,,,,,,,,,,,,,,,,,,,,,,,,,,,,,,,,,,,,,,,,,,,,,,,,,,,,,,,,,,,,,,,,,,,,,,,,,,,,,,,,,,,,,,,,,,,,,,,,,,,,,,,,,,,,,,,,,,,,,,,,,,,072821,1,3,0,3,1,54,2021_Jul_28_1712,short_answer,3.2.4,59.95866473642766,
,11,,,,,0,11,11,11,0,0,0,0,,,,,,,,,,,,,,,,,803.0750250780002,None,space,0.9230662800000573,803.0750250780002,None,803.0750250780002,None,803.0750250780002,None,804.041539196,None,804.041539196,None,Maria wants her favorite sweater back,12 rows of seats,"[2, 1]",805.0241431610002,None,805.0241431610002,None,805.0241431610002,None,805.0241431610002,None,805.0241431610002,None,805.0241431610002,None,805.0241431610002,None,"Ancient philosophy, it is about aristotle ",815.1749446389999,None,815.1749446389999,None,815.1749446389999,None,815.1749446389999,None,815.1749446389999,None,815.1749446389999,None,815.1749446389999,None,About aristotle's way of thinking,832.807575453,None,832.807575453,None,832.807575453,None,832.807575453,None,832.807575453,None,832.807575453,None,832.807575453,None,Do not remember,843.6415927349999,None,843.6415927349999,None,843.6415927349999,None,843.6415927349999,None,843.6415927349999,None,843.6415927349999,None,843.6415927349999,None,Maria has recently thought about it because she is moving away for college,852.8079973110002,None,852.8079973110002,None,852.8079973110002,None,852.8079973110002,None,852.8079973110002,None,852.8079973110002,None,852.8079973110002,None,Maria cannot sustain a long-distance relationship with henry,867.774484564,None,867.774484564,None,867.774484564,None,867.774484564,None,867.774484564,None,867.774484564,None,867.774484564,None,Henry does not want to break up because he loves maria,881.2916947080003,None,881.2916947080003,None,881.2916947080003,None,881.2916947080003,None,881.2916947080003,None,881.2916947080003,None,881.2916947080003,None,Maria wants her favorite sweater back,891.657253331,None,891.657253331,None,891.657253331,None,891.657253331,None,891.657253331,None,891.657253331,None,891.657253331,None,,,072821,1,3,0,3,1,54,2021_Jul_28_1712,short_answer,3.2.4,59.95866473642766,
,11,,,,,0,11,11,11,,,,,,,,,,,,,,,,,,,,,,,,,,,,,,,,,,,,,,,,,,,,,,,,,,,,,,,,,,,,,,,,,,,,,,,,,,,,,,,,,,,,,,,,,,,,,,,,,,,,,,,,,,,,,,,,,,,,,,,,,,,,,,,,,,,,,,,,,,,,,,,,,,,,,,,,,,,,,,,072821,1,3,0,3,1,54,2021_Jul_28_1712,short_answer,3.2.4,59.95866473642766,
,12,,,,,0,12,12,12,0,0,0,0,,,,,,,,,,,,,,,,,901.8733681930003,None,space,1.0244366540000556,901.8733681930003,None,901.8733681930003,None,901.8733681930003,None,902.9400057900002,None,902.9400057900002,None,It is 16 dollars and they pay by credit card,23 months,"[1, 2]",903.6903384339998,None,903.6903384339998,None,903.6903384339998,None,903.6903384339998,None,903.6903384339998,None,903.6903384339998,None,903.6903384339998,None,"1 diamond, silver",907.0407636330001,None,907.0407636330001,None,907.0407636330001,None,907.0407636330001,None,907.0407636330001,None,907.0407636330001,None,907.0407636330001,None,In a shopping basket,912.457296823,None,912.457296823,None,912.457296823,None,912.457296823,None,912.457296823,None,912.457296823,None,912.457296823,None,Chloe texts her mom a picture of her hand,923.2072476530002,None,923.2072476530002,None,923.2072476530002,None,923.2072476530002,None,923.2072476530002,None,923.2072476530002,None,923.2072476530002,None,Very crowded,931.6742691,None,931.6742691,None,931.6742691,None,931.6742691,None,931.6742691,None,931.6742691,None,931.6742691,None,"Chloe buys cranberry sauce, barbeque sauce, and pumpkin slices",936.3574893360001,None,936.3574893360001,None,936.3574893360001,None,936.3574893360001,None,936.3574893360001,None,936.3574893360001,None,936.3574893360001,None,There are 3 open they step into number 6,954.123962443,None,954.123962443,None,954.123962443,None,954.123962443,None,954.123962443,None,954.123962443,None,954.123962443,None,It is 16 dollars and they pay by credit card,964.8402848360001,None,964.8402848360001,None,964.8402848360001,None,964.8402848360001,None,964.8402848360001,None,964.8402848360001,None,964.8402848360001,None,,,072821,1,3,0,3,1,54,2021_Jul_28_1712,short_answer,3.2.4,59.95866473642766,
,12,,,,,0,12,12,12,,,,,,,,,,,,,,,,,,,,,,,,,,,,,,,,,,,,,,,,,,,,,,,,,,,,,,,,,,,,,,,,,,,,,,,,,,,,,,,,,,,,,,,,,,,,,,,,,,,,,,,,,,,,,,,,,,,,,,,,,,,,,,,,,,,,,,,,,,,,,,,,,,,,,,,,,,,,,,,072821,1,3,0,3,1,54,2021_Jul_28_1712,short_answer,3.2.4,59.95866473642766,
,13,,,,,0,13,13,13,0,0,0,0,,,,,,,,,,,,,,,,,974.5396876489999,None,space,0.8817573350002021,974.5396876489999,None,974.5396876489999,None,974.5396876489999,None,975.4560491480001,None,975.4560491480001,None,Economy,Jessie has been thinking about breaking up with calvin for weeks,"[1, 2]",976.4394198350001,None,976.4394198350001,None,976.4394198350001,None,976.4394198350001,None,976.4394198350001,None,976.4394198350001,None,976.4394198350001,None,Jessie thinks their personalities are incompatible,991.1064918679999,None,991.1064918679999,None,991.1064918679999,None,991.1064918679999,None,991.1064918679999,None,991.1064918679999,None,991.1064918679999,None,Calvin gets annoyed but agrees to break up because he can't take her anymore,1002.3062182469998,None,1002.3062182469998,None,1002.3062182469998,None,1002.3062182469998,None,1002.3062182469998,None,1002.3062182469998,None,1002.3062182469998,None,Can't remember,1019.5559945690002,None,1019.5559945690002,None,1019.5559945690002,None,1019.5559945690002,None,1019.5559945690002,None,1019.5559945690002,None,1019.5559945690002,None,15 minutes,1032.338760749,None,1032.338760749,None,1032.338760749,None,1032.338760749,None,1032.338760749,None,1032.338760749,None,1032.338760749,None,Cannot remember,1038.0390467450002,None,1038.0390467450002,None,1038.0390467450002,None,1038.0390467450002,None,1038.0390467450002,None,1038.0390467450002,None,1038.0390467450002,None,12,1042.022739856,None,1042.022739856,None,1042.022739856,None,1042.022739856,None,1042.022739856,None,1042.022739856,None,1042.022739856,None,Economy,1045.4886049739998,None,1045.4886049739998,None,1045.4886049739998,None,1045.4886049739998,None,1045.4886049739998,None,1045.4886049739998,None,1045.4886049739998,None,,,072821,1,3,0,3,1,54,2021_Jul_28_1712,short_answer,3.2.4,59.95866473642766,
,13,,,,,0,13,13,13,,,,,,,,,,,,,,,,,,,,,,,,,,,,,,,,,,,,,,,,,,,,,,,,,,,,,,,,,,,,,,,,,,,,,,,,,,,,,,,,,,,,,,,,,,,,,,,,,,,,,,,,,,,,,,,,,,,,,,,,,,,,,,,,,,,,,,,,,,,,,,,,,,,,,,,,,,,,,,,072821,1,3,0,3,1,54,2021_Jul_28_1712,short_answer,3.2.4,59.95866473642766,
,14,,,,,0,14,14,14,,,,,,,,,,,,,,,,,,,,,,,,,,,,,,,,,,,,,,,,,,,,,,,,,,,,,,,,,,,,,,,,,,,,,,,,,,,,,,,,,,,,,,,,,,,,,,,,,,,,,,,,,,,,,,,,,,,,,,,,,,,,,,,,,,,,,,,,,,,,,,,,,,,,,,,,,,,,,,,072821,1,3,0,3,1,54,2021_Jul_28_1712,short_answer,3.2.4,59.95866473642766,
,15,,,,,0,15,15,15,0,0,0,0,,,,,,,,,,,,,,,,,1048.7380871760001,None,space,0.798065349999888,1048.7380871760001,None,1048.7380871760001,None,1048.7380871760001,None,1049.571697505,None,1049.571697505,None,Hugging,"Very crowded, full of students in every row","[2, 1]",1050.187759554,None,1050.187759554,None,1050.187759554,None,1050.187759554,None,1050.187759554,None,1050.187759554,None,1050.187759554,None,They are in a humanities class,1060.588459355,None,1060.588459355,None,1060.588459355,None,1060.588459355,None,1060.588459355,None,1060.588459355,None,1060.588459355,None,Cannot remember,1072.288231292,None,1072.288231292,None,1072.288231292,None,1072.288231292,None,1072.288231292,None,1072.288231292,None,1072.288231292,None,It is due tomorrow but cannot remember the assignment,1080.472018726,None,1080.472018726,None,1080.472018726,None,1080.472018726,None,1080.472018726,None,1080.472018726,None,1080.472018726,None,Alma is a business owner and charlie is a network/web developer,1092.154705936,None,1092.154705936,None,1092.154705936,None,1092.154705936,None,1092.154705936,None,1092.154705936,None,1092.154705936,None,23000,1108.071195642,None,1108.071195642,None,1108.071195642,None,1108.071195642,None,1108.071195642,None,1108.071195642,None,1108.071195642,None,Cannot remember,1112.820202598,None,1112.820202598,None,1112.820202598,None,1112.820202598,None,1112.820202598,None,1112.820202598,None,1112.820202598,None,Hugging,1117.7209939499999,None,1117.7209939499999,None,1117.7209939499999,None,1117.7209939499999,None,1117.7209939499999,None,1117.7209939499999,None,1117.7209939499999,None,,,072821,1,3,0,3,1,54,2021_Jul_28_1712,short_answer,3.2.4,59.95866473642766,
,15,,,,,0,15,15,15,,,,,,,,,,,,,,,,,,,,,,,,,,,,,,,,,,,,,,,,,,,,,,,,,,,,,,,,,,,,,,,,,,,,,,,,,,,,,,,,,,,,,,,,,,,,,,,,,,,,,,,,,,,,,,,,,,,,,,,,,,,,,,,,,,,,,,,,,,,,,,,,,,,,,,,,,,,,,,,072821,1,3,0,3,1,54,2021_Jul_28_1712,short_answer,3.2.4,59.95866473642766,
,,,,,,,,,,,,,,0,0,0,0,,,,,,,,,,,,,,,,,,,,,,,,,,,,,,,,,,,,,,,,,,,,,,,,,,,,,,,,,,,,,,,,,,,,,,,,,,,,,,,,,,,,,,,,,,,,,,,,,,,,,,,,,,,,,,,,,,,,,,,,,,,,,,,,,,,,,,,,,,,,,,,,,,,,,1120.770456924,None,072821,1,3,0,3,1,54,2021_Jul_28_1712,short_answer,3.2.4,59.95866473642766,
