count,audio,trials_14.thisRepN,trials_14.thisTrialN,trials_14.thisN,trials_14.thisIndex,trials_3.thisRepN,trials_3.thisTrialN,trials_3.thisN,trials_3.thisIndex,trials_4.thisRepN,trials_4.thisTrialN,trials_4.thisN,trials_4.thisIndex,trials_6.thisRepN,trials_6.thisTrialN,trials_6.thisN,trials_6.thisIndex,trials_9.thisRepN,trials_9.thisTrialN,trials_9.thisN,trials_9.thisIndex,trials_10.thisRepN,trials_10.thisTrialN,trials_10.thisN,trials_10.thisIndex,trials_12.thisRepN,trials_12.thisTrialN,trials_12.thisN,trials_12.thisIndex,trials_25.thisRepN,trials_25.thisTrialN,trials_25.thisN,trials_25.thisIndex,trials_15.thisRepN,trials_15.thisTrialN,trials_15.thisN,trials_15.thisIndex,trials_26.thisRepN,trials_26.thisTrialN,trials_26.thisN,trials_26.thisIndex,trials_11.thisRepN,trials_11.thisTrialN,trials_11.thisN,trials_11.thisIndex,trials_8.thisRepN,trials_8.thisTrialN,trials_8.thisN,trials_8.thisIndex,story_list_block2,action_list_block2,textTrigger.started,textTrigger.stopped,getTrigger.keys,getTrigger.rt,getTrigger.started,getTrigger.stopped,triggerTime,text_76.started,text_76.stopped,text_77.started,text_77.stopped,startWait,endWait,image_23.started,image_23.stopped,text_55.started,text_55.stopped,text_56.started,text_56.stopped,key_resp_2.keys,key_resp_2.rt,key_resp_2.started,key_resp_2.stopped,text_82.started,text_82.stopped,text_64.started,text_64.stopped,key_resp_20.keys,key_resp_20.rt,key_resp_20.started,key_resp_20.stopped,storyImage_StartTime,storyImage_EndTime,clip_StartTime,clip_EndTime,text_67.started,text_67.stopped,text_68.started,text_68.stopped,text_57.started,text_57.stopped,key_resp_17.keys,key_resp_17.rt,key_resp_17.started,key_resp_17.stopped,text_83.started,text_83.stopped,text_60.started,text_60.stopped,image_2.started,image_2.stopped,text_58.started,text_58.stopped,key_resp_23.keys,key_resp_23.rt,key_resp_23.started,key_resp_23.stopped,text_62.started,text_62.stopped,key_resp_18.keys,key_resp_18.rt,key_resp_18.started,key_resp_18.stopped,text_84.started,text_84.stopped,question1_2.started,question1_2.stopped,question2_2.started,question2_2.stopped,question3_2.started,question3_2.stopped,question4_2.started,question4_2.stopped,question5_2.started,question5_2.stopped,question6_2.started,question6_2.stopped,image_15.started,image_15.stopped,key_resp.keys,key_resp.started,key_resp.stopped,text_59.started,text_59.stopped,key_resp_19.keys,key_resp_19.rt,key_resp_19.started,key_resp_19.stopped,text_85.started,text_85.stopped,text_61.started,text_61.stopped,image_17.started,image_17.stopped,text_63.started,text_63.stopped,key_resp_24.keys,key_resp_24.rt,key_resp_24.started,key_resp_24.stopped,text_36.started,text_36.stopped,participant,sA,sB,lA,lB,block_struct,play_stories,block,behavioral,random_seed,date,expName,psychopyVersion,frameRate,
0,parcelated_audio/32/32_1.ogg,,,,,,,,,0,0,0,0,0,0,0,0,0,0,0,0,,,,,,,,,0,0,0,0,0,0,0,0,,,,,,,,,,,,,[32 43 41 14 23 12 21 34],[4 1 3 2 1 4 3 2],18.48029065000037,None,equal,17.31078738999986,18.48029065000037,None,17.331732001999626,18.48029065000037,None,18.48029065000037,None,0.0003566710001905449,6.015895232000275,35.81599705000008,None,41.83060902200032,None,41.83060902200032,None,5,0.9592915180001,41.83060902200032,None,41.83060902200032,None,42.81397102500023,None,5,0.9760876020000069,42.81397102500023,None,8.007641502000297,11.015895116000138,11.022623633000421,22.38493610100022,,,,,,,,,,,,,,,,,,,,,,,,,,,,,,,,,,,,,,,,,,,,,,,,,,,,,,,,,,,,,,,,,,,,072821,1,3,0,3,1,1,2,0,54,2021_Jul_28_1612,listening_fmri,3.2.4,59.98155555173552,
0,parcelated_audio/32/32_2.ogg,,,,,,,,,0,0,0,0,0,0,0,0,0,0,0,0,,,,,,,,,0,0,0,0,0,1,1,1,,,,,,,,,,,,,,,,,,,,,,,,,,,,,,,,,,,,,,,,,,,,,,,,22.38547810800037,30.701836114000344,,,,,,,,,,,,,,,,,,,,,,,,,,,,,,,,,,,,,,,,,,,,,,,,,,,,,,,,,,,,,,,,,,,,072821,1,3,0,3,1,1,2,0,54,2021_Jul_28_1612,listening_fmri,3.2.4,59.98155555173552,
0,parcelated_audio/32/32_3.ogg,,,,,,,,,0,0,0,0,0,0,0,0,0,0,0,0,,,,,,,,,0,0,0,0,0,2,2,2,,,,,,,,,,,,,,,,,,,,,,,,,,,,,,,,,,,,,,,,,,,,,,,,30.702104779000365,36.27920106800002,,,,,,,,,,,,,,,,,,,,,,,,,,,,,,,,,,,,,,,,,,,,,,,,,,,,,,,,,,,,,,,,,,,,072821,1,3,0,3,1,1,2,0,54,2021_Jul_28_1612,listening_fmri,3.2.4,59.98155555173552,
0,parcelated_audio/32/32_4.ogg,,,,,,,,,0,0,0,0,0,0,0,0,0,0,0,0,,,,,,,,,0,0,0,0,0,3,3,3,,,,,,,,,,,,,,,,,,,,,,,,,,,,,,,,,,,,,,,,,,,,,,,,36.2795534210004,42.965784265000366,,,,,,,,,,,,,,,,,,,,,,,,,,,,,,,,,,,,,,,,,,,,,,,,,,,,,,,,,,,,,,,,,,,,072821,1,3,0,3,1,1,2,0,54,2021_Jul_28_1612,listening_fmri,3.2.4,59.98155555173552,
0,parcelated_audio/32/32_5.ogg,,,,,,,,,0,0,0,0,0,0,0,0,0,0,0,0,,,,,,,,,0,0,0,0,0,4,4,4,,,,,,,,,,,,,,,,,,,,,,,,,,,,,,,,,,,,,,,,,,,,,,,,42.96608049900033,54.66136392500039,,,,,,,,,,,,,,,,,,,,,,,,,,,,,,,,,,,,,,,,,,,,,,,,,,,,,,,,,,,,,,,,,,,,072821,1,3,0,3,1,1,2,0,54,2021_Jul_28_1612,listening_fmri,3.2.4,59.98155555173552,
0,parcelated_audio/32/32_6.ogg,,,,,,,,,0,0,0,0,0,0,0,0,0,0,0,0,,,,,,,,,0,0,0,0,0,5,5,5,,,,,,,,,,,,,,,,,,,,,,,,,,,,,,,,,,,,,,,,,,,,,,,,54.66171665300044,63.13566505600011,,,,,,,,,,,,,,,,,,,,,,,,,,,,,,,,,,,,,,,,,,,,,,,,,,,,,,,,,,,,,,,,,,,,072821,1,3,0,3,1,1,2,0,54,2021_Jul_28_1612,listening_fmri,3.2.4,59.98155555173552,
0,parcelated_audio/32/32_7.ogg,,,,,,,,,0,0,0,0,0,0,0,0,0,0,0,0,,,,,,,,,0,0,0,0,0,6,6,6,,,,,,,,,,,,,,,,,,,,,,,,,,,,,,,,,,,,,,,,,,,,,,,,63.136004054000296,66.52265725500001,,,,,,,,,,,,,,,,,,,,,,,,,,,,,,,,,,,,,,,,,,,,,,,,,,,,,,,,,,,,,,,,,,,,072821,1,3,0,3,1,1,2,0,54,2021_Jul_28_1612,listening_fmri,3.2.4,59.98155555173552,
0,parcelated_audio/32/32_8.ogg,,,,,,,,,0,0,0,0,0,0,0,0,0,0,0,0,,,,,,,,,0,0,0,0,0,7,7,7,,,,,,,,,,,,,,,,,,,,,,,,,,,,,,,,,,,,,,,,,,,,,,,,66.52321641300023,70.98679618700044,,,,,,,,,,,,,,,,,,,,,,,,,,,,,,,,,,,,,,,,,,,,,,,,,,,,,,,,,,,,,,,,,,,,072821,1,3,0,3,1,1,2,0,54,2021_Jul_28_1612,listening_fmri,3.2.4,59.98155555173552,
0,parcelated_audio/32/32_9.ogg,,,,,,,,,0,0,0,0,0,0,0,0,0,0,0,0,,,,,,,,,0,0,0,0,0,8,8,8,,,,,,,,,,,,,,,,,,,,,,,,,,,,,,,,,,,,,,,,,,,,,,,,70.98714826100013,79.66391217700038,,,,,,,,,,,,,,,,,,,,,,,,,,,,,,,,,,,,,,,,,,,,,,,,,,,,,,,,,,,,,,,,,,,,072821,1,3,0,3,1,1,2,0,54,2021_Jul_28_1612,listening_fmri,3.2.4,59.98155555173552,
0,parcelated_audio/32/32_10.ogg,,,,,,,,,0,0,0,0,0,0,0,0,0,0,0,0,,,,,,,,,0,0,0,0,0,9,9,9,,,,,,,,,,,,,,,,,,,,,,,,,,,,,,,,,,,,,,,,,,,,,,,,79.6642618750002,84.34385672900044,,,,,,,,,,,,,,,,,,,,,,,,,,,,,,,,,,,,,,,,,,,,,,,,,,,,,,,,,,,,,,,,,,,,072821,1,3,0,3,1,1,2,0,54,2021_Jul_28_1612,listening_fmri,3.2.4,59.98155555173552,
0,parcelated_audio/32/32_11.ogg,,,,,,,,,0,0,0,0,0,0,0,0,0,0,0,0,,,,,,,,,0,0,0,0,0,10,10,10,,,,,,,,,,,,,,,,,,,,,,,,,,,,,,,,,,,,,,,,,,,,,,,,84.34419757500018,90.42082621200007,,,,,,,,,,,,,,,,,,,,,,,,,,,,,,,,,,,,,,,,,,,,,,,,,,,,,,,,,,,,,,,,,,,,072821,1,3,0,3,1,1,2,0,54,2021_Jul_28_1612,listening_fmri,3.2.4,59.98155555173552,
0,parcelated_audio/32/32_12.ogg,,,,,,,,,0,0,0,0,0,0,0,0,0,0,0,0,,,,,,,,,0,0,0,0,0,11,11,11,,,,,,,,,,,,,,,,,,,,,,,,,,,,,,,,,,,,,,,,,,,,,,,,90.4211560990002,99.85792858200011,,,,,,,,,,,,,,,,,,,,,,,,,,,,,,,,,,,,,,,,,,,,,,,,,,,,,,,,,,,,,,,,,,,,072821,1,3,0,3,1,1,2,0,54,2021_Jul_28_1612,listening_fmri,3.2.4,59.98155555173552,
0,parcelated_audio/32/32_13.ogg,,,,,,,,,0,0,0,0,0,0,0,0,0,0,0,0,,,,,,,,,0,0,0,0,0,12,12,12,,,,,,,,,,,,,,,,,,,,,,,,,,,,,,,,,,,,,,,,,,,,,,,,99.85827532500025,109.46940111700042,,,,,,,,,,,,,,,,,,,,,,,,,,,,,,,,,,,,,,,,,,,,,,,,,,,,,,,,,,,,,,,,,,,,072821,1,3,0,3,1,1,2,0,54,2021_Jul_28_1612,listening_fmri,3.2.4,59.98155555173552,
0,parcelated_audio/32/32_14.ogg,,,,,,,,,0,0,0,0,0,0,0,0,0,0,0,0,,,,,,,,,0,0,0,0,0,13,13,13,,,,,,,,,,,,,,,,,,,,,,,,,,,,,,,,,,,,,,,,,,,,,,,,109.46975273500038,117.54089251100004,,,,,,,,,,,,,,,,,,,,,,,,,,,,,,,,,,,,,,,,,,,,,,,,,,,,,,,,,,,,,,,,,,,,072821,1,3,0,3,1,1,2,0,54,2021_Jul_28_1612,listening_fmri,3.2.4,59.98155555173552,
0,parcelated_audio/32/32_15.ogg,,,,,,,,,0,0,0,0,0,0,0,0,0,0,0,0,,,,,,,,,0,0,0,0,0,14,14,14,,,,,,,,,,,,,,,,,,,,,,,,,,,,,,,,,,,,,,,,,,,,,,,,117.54125006100003,124.42117871800019,,,,,,,,,,,,,,,,,,,,,,,,,,,,,,,,,,,,,,,,,,,,,,,,,,,,,,,,,,,,,,,,,,,,072821,1,3,0,3,1,1,2,0,54,2021_Jul_28_1612,listening_fmri,3.2.4,59.98155555173552,
0,parcelated_audio/32/32_16.ogg,,,,,,,,,0,0,0,0,0,0,0,0,0,0,0,0,,,,,,,,,0,0,0,0,0,15,15,15,,,,,,,,,,,,,,,,,,,,,,,,,,,,,,,,,,,,,,,,,,,,,,,,124.42266993900012,132.1317883900001,,,,,,,,,,,,,,,,,,,,,,,,,,,,,,,,,,,,,,,,,,,,,,,,,,,,,,,,,,,,,,,,,,,,072821,1,3,0,3,1,1,2,0,54,2021_Jul_28_1612,listening_fmri,3.2.4,59.98155555173552,
0,parcelated_audio/32/32_17.ogg,,,,,,,,,0,0,0,0,0,0,0,0,0,0,0,0,,,,,,,,,0,0,0,0,0,16,16,16,,,,,,,,,,,,,,,,,,,,,,,,,,,,,,,,,,,,,,,,,,,,,,,,132.13319784000032,140.44381166400035,,,,,,,,,,,,,,,,,,,,,,,,,,,,,,,,,,,,,,,,,,,,,,,,,,,,,,,,,,,,,,,,,,,,072821,1,3,0,3,1,1,2,0,54,2021_Jul_28_1612,listening_fmri,3.2.4,59.98155555173552,
0,parcelated_audio/32/32_18.ogg,,,,,,,,,0,0,0,0,0,0,0,0,0,0,0,0,,,,,,,,,0,0,0,0,0,17,17,17,,,,,,,,,,,,,,,,,,,,,,,,,,,,,,,,,,,,,,,,,,,,,,,,140.44431077400031,144.83323055600022,,,,,,,,,,,,,,,,,,,,,,,,,,,,,,,,,,,,,,,,,,,,,,,,,,,,,,,,,,,,,,,,,,,,072821,1,3,0,3,1,1,2,0,54,2021_Jul_28_1612,listening_fmri,3.2.4,59.98155555173552,
0,parcelated_audio/32/32_19.ogg,,,,,,,,,0,0,0,0,0,0,0,0,0,0,0,0,,,,,,,,,0,0,0,0,0,18,18,18,,,,,,,,,,,,,,,,,,,,,,,,,,,,,,,,,,,,,,,,,,,,,,,,144.83357921700008,152.88097332400002,,,,,,,,,,,,,,,,,,,,,,,,,,,,,,,,,,,,,,,,,,,,,,,,,,,,,,,,,,,,,,,,,,,,072821,1,3,0,3,1,1,2,0,54,2021_Jul_28_1612,listening_fmri,3.2.4,59.98155555173552,
0,parcelated_audio/32/32_20.ogg,,,,,,,,,0,0,0,0,0,0,0,0,0,0,0,0,,,,,,,,,0,0,0,0,0,19,19,19,,,,,,,,,,,,,,,,,,,,,,,,,,,,,,,,,,,,,,,,,,,,,,,,152.8813595200004,163.7818318210002,,,,,,,,,,,,,,,,,,,,,,,,,,,,,,,,,,,,,,,,,,,,,,,,,,,,,,,,,,,,,,,,,,,,072821,1,3,0,3,1,1,2,0,54,2021_Jul_28_1612,listening_fmri,3.2.4,59.98155555173552,
0,parcelated_audio/32/32_21.ogg,,,,,,,,,0,0,0,0,0,0,0,0,0,0,0,0,,,,,,,,,0,0,0,0,0,20,20,20,,,,,,,,,,,,,,,,,,,,,,,,,,,,,,,,,,,,,,,,,,,,,,,,163.78218209000033,172.6437667930004,,,,,,,,,,,,,,,,,,,,,,,,,,,,,,,,,,,,,,,,,,,,,,,,,,,,,,,,,,,,,,,,,,,,072821,1,3,0,3,1,1,2,0,54,2021_Jul_28_1612,listening_fmri,3.2.4,59.98155555173552,
0,parcelated_audio/32/32_22.ogg,,,,,,,,,0,0,0,0,0,0,0,0,0,0,0,0,,,,,,,,,0,0,0,0,0,21,21,21,,,,,,,,,,,,,,,,,,,,,,,,,,,,,,,,,,,,,,,,,,,,,,,,172.64410932700002,186.68788903800032,,,,,,,,,,,,,,,,,,,,,,,,,,,,,,,,,,,,,,,,,,,,,,,,,,,,,,,,,,,,,,,,,,,,072821,1,3,0,3,1,1,2,0,54,2021_Jul_28_1612,listening_fmri,3.2.4,59.98155555173552,
0,parcelated_audio/32/32_23.ogg,,,,,,,,,0,0,0,0,0,0,0,0,0,0,0,0,,,,,,,,,0,0,0,0,0,22,22,22,,,,,,,,,,,,,,,,,,,,,,,,,,,,,,,,,,,,,,,,,,,,,,,,186.6884045300003,195.72595397500027,,,,,,,,,,,,,,,,,,,,,,,,,,,,,,,,,,,,,,,,,,,,,,,,,,,,,,,,,,,,,,,,,,,,072821,1,3,0,3,1,1,2,0,54,2021_Jul_28_1612,listening_fmri,3.2.4,59.98155555173552,
0,parcelated_audio/32/32_24.ogg,,,,,,,,,0,0,0,0,0,0,0,0,0,0,0,0,,,,,,,,,0,0,0,0,0,23,23,23,,,,,,,,,,,,,,,,,,,,,,,,,,,,,,,,,,,,,,,,,,,,,,,,195.72634454800027,207.0232217730004,,,,,,,,,,,,,,,,,,,,,,,,,,,,,,,,,,,,,,,,,,,,,,,,,,,,,,,,,,,,,,,,,,,,072821,1,3,0,3,1,1,2,0,54,2021_Jul_28_1612,listening_fmri,3.2.4,59.98155555173552,
0,parcelated_audio/32/32_25.ogg,,,,,,,,,0,0,0,0,0,0,0,0,0,0,0,0,,,,,,,,,0,0,0,0,0,24,24,24,,,,,,,,,,,,,,,,,,,,,,,,,,,,,,,,,,,,,,,,,,,,,,,,207.0234675490001,213.08247419200006,,,,,,,,,,,,,,,,,,,,,,,,,,,,,,,,,,,,,,,,,,,,,,,,,,,,,,,,,,,,,,,,,,,,072821,1,3,0,3,1,1,2,0,54,2021_Jul_28_1612,listening_fmri,3.2.4,59.98155555173552,
0,parcelated_audio/32/32_26.ogg,,,,,,,,,0,0,0,0,0,0,0,0,0,0,0,0,,,,,,,,,0,0,0,0,0,25,25,25,,,,,,,,,,,,,,,,,,,,,,,,,,,,,,,,,,,,,,,,,,,,,,,,213.08284136400016,226.4390372480002,,,,,,,,,,,,,,,,,,,,,,,,,,,,,,,,,,,,,,,,,,,,,,,,,,,,,,,,,,,,,,,,,,,,072821,1,3,0,3,1,1,2,0,54,2021_Jul_28_1612,listening_fmri,3.2.4,59.98155555173552,
0,parcelated_audio/32/32_27.ogg,,,,,,,,,0,0,0,0,0,0,0,0,0,0,0,0,,,,,,,,,0,0,0,0,0,26,26,26,,,,,,,,,,,,,,,,,,,,,,,,,,,,,,,,,,,,,,,,,,,,,,,,226.43939409500035,233.3981295370004,,,,,,,,,,,,,,,,,,,,,,,,,,,,,,,,,,,,,,,,,,,,,,,,,,,,,,,,,,,,,,,,,,,,072821,1,3,0,3,1,1,2,0,54,2021_Jul_28_1612,listening_fmri,3.2.4,59.98155555173552,
0,parcelated_audio/32/32_28.ogg,,,,,,,,,0,0,0,0,0,0,0,0,0,0,0,0,,,,,,,,,0,0,0,0,0,27,27,27,,,,,,,,,,,,,,,,,,,,,,,,,,,,,,,,,,,,,,,,,,,,,,,,233.3984961240003,240.10272711300013,,,,,,,,,,,,,,,,,,,,,,,,,,,,,,,,,,,,,,,,,,,,,,,,,,,,,,,,,,,,,,,,,,,,072821,1,3,0,3,1,1,2,0,54,2021_Jul_28_1612,listening_fmri,3.2.4,59.98155555173552,
0,parcelated_audio/32/32_29.ogg,,,,,,,,,0,0,0,0,0,0,0,0,0,0,0,0,,,,,,,,,0,0,0,0,0,28,28,28,,,,,,,,,,,,,,,,,,,,,,,,,,,,,,,,,,,,,,,,,,,,,,,,240.1030815590002,242.76385047700023,,,,,,,,,,,,,,,,,,,,,,,,,,,,,,,,,,,,,,,,,,,,,,,,,,,,,,,,,,,,,,,,,,,,072821,1,3,0,3,1,1,2,0,54,2021_Jul_28_1612,listening_fmri,3.2.4,59.98155555173552,
0,parcelated_audio/32/32_30.ogg,,,,,,,,,0,0,0,0,0,0,0,0,0,0,0,0,,,,,,,,,0,0,0,0,0,29,29,29,,,,,,,,,,,,,,,,,,,,,,,,,,,,,,,,,,,,,,,,,,,,,,,,242.76419621000014,249.797312014,,,,,,,,,,,,,,,,,,,,,,,,,,,,,,,,,,,,,,,,,,,,,,,,,,,,,,,,,,,,,,,,,,,,072821,1,3,0,3,1,1,2,0,54,2021_Jul_28_1612,listening_fmri,3.2.4,59.98155555173552,
0,parcelated_audio/32/32_31.ogg,,,,,,,,,0,0,0,0,0,0,0,0,0,0,0,0,,,,,,,,,0,0,0,0,0,30,30,30,,,,,,,,,,,,,,,,,,,,,,,,,,,,,,,,,,,,,,,,,,,,,,,,249.7977852570002,256.13346514700015,,,,,,,,,,,,,,,,,,,,,,,,,,,,,,,,,,,,,,,,,,,,,,,,,,,,,,,,,,,,,,,,,,,,072821,1,3,0,3,1,1,2,0,54,2021_Jul_28_1612,listening_fmri,3.2.4,59.98155555173552,
0,parcelated_audio/32/32_32.ogg,,,,,,,,,0,0,0,0,0,0,0,0,0,0,0,0,,,,,,,,,0,0,0,0,0,31,31,31,,,,,,,,,,,,,,,,,,,,,,,,,,,,,,,,,,,,,,,,,,,,,,,,256.133807358,265.8479402850003,,,,,,,,,,,,,,,,,,,,,,,,,,,,,,,,,,,,,,,,,,,,,,,,,,,,,,,,,,,,,,,,,,,,072821,1,3,0,3,1,1,2,0,54,2021_Jul_28_1612,listening_fmri,3.2.4,59.98155555173552,
0,parcelated_audio/32/32_33.ogg,,,,,,,,,0,0,0,0,0,0,0,0,0,0,0,0,,,,,,,,,0,0,0,0,0,32,32,32,,,,,,,,,,,,,,,,,,,,,,,,,,,,,,,,,,,,,,,,,,,,,,,,265.84829343,271.60268007900004,,,,,,,,,,,,,,,,,,,,,,,,,,,,,,,,,,,,,,,,,,,,,,,,,,,,,,,,,,,,,,,,,,,,072821,1,3,0,3,1,1,2,0,54,2021_Jul_28_1612,listening_fmri,3.2.4,59.98155555173552,
0,,,,,,,,,,0,0,0,0,0,0,0,0,0,0,0,0,,,,,,,,,0,0,0,0,,,,,,,,,,,,,,,,,,,,,,,,,,,,,,,,,,,,,,,,,,,,,,,,,,,,,,,,,,,,,,,,,,,,,,,,,,,,,,,,,,,,,,,,,,,,,,,,,,,,,,,,,,,,,,,,,,,,,,,,,072821,1,3,0,3,1,1,2,0,54,2021_Jul_28_1612,listening_fmri,3.2.4,59.98155555173552,
0,,,,,,,,,,0,0,0,0,0,0,0,0,0,0,0,0,,,,,,,,,,,,,,,,,,,,,,,,,,,,,,,,,,,,,,,,,,271.60316014900036,277.6001354900004,307.4127338530002,None,,,,,,,,,,,,,,,,,,,,,313.4145047240004,None,313.4145047240004,None,,,,,,,,,,,,,,,,,,,,,,,,,,,,,,,,,,,,,,,,,,,,,,,,,,,,,,,,,,,,,,,,072821,1,3,0,3,1,1,2,0,54,2021_Jul_28_1612,listening_fmri,3.2.4,59.98155555173552,
0,,,,,,,,,,0,0,0,0,0,0,0,0,,,,,,,,,,,,,,,,,,,,,,,,,,,,,,,,,,,,,,,,,,,,,,,,,,,,,,,,,,,,,,,,,,,,,,,,,,,,,,,,,,,,,,,,,,,,,,,,,,,,,,,,,,,,,,,,,,,,,,,,,,,,,,,,,,,,,,,,,072821,1,3,0,3,1,1,2,0,54,2021_Jul_28_1612,listening_fmri,3.2.4,59.98155555173552,
1,,,,,,,,,,0,0,0,0,0,1,1,1,0,0,0,0,0,0,0,0,,,,,,,,,,,,,,,,,0,0,0,0,,,,,,,,,,,,,,,,,,,,,,314.41413976600006,None,314.41413976600006,None,5,0.3727152930000557,314.41413976600006,None,314.41413976600006,None,,,,,,,,,,,,,,,314.8144716800002,None,5,0.972575524000149,314.8144716800002,None,314.8144716800002,None,315.8454760110003,None,315.8454760110003,None,315.8454760110003,None,5,0.9415073200002553,315.8454760110003,None,316.814216754,None,1,0.03080776800015883,316.814216754,None,316.814216754,None,316.945360789,None,316.945360789,None,316.945360789,None,316.945360789,None,316.945360789,None,316.945360789,None,316.945360789,None,None,316.945360789,None,,,,,,,,,,,,,,,,,,,,,072821,1,3,0,3,1,1,2,0,54,2021_Jul_28_1612,listening_fmri,3.2.4,59.98155555173552,
1,,,,,,,,,,0,0,0,0,0,1,1,1,0,0,0,0,0,0,0,0,,,,,,,,,,,,,,,,,,,,,,,,,,,,,,,,,,,,,,,,,,,,,,,,,,,,,,,,,,,,,,,,,,,,,,,,,,,,,,,,,,,,,,,,,,,,,,,,,,,,,,,,,,,,,333.1783428570002,None,5,0.60872781199987,333.1783428570002,None,333.1783428570002,None,333.83141114800037,None,333.83141114800037,None,333.83141114800037,None,1,0.952509511000244,333.83141114800037,None,,,072821,1,3,0,3,1,1,2,0,54,2021_Jul_28_1612,listening_fmri,3.2.4,59.98155555173552,
1,parcelated_audio/43/43_1.ogg,,,,,,,,,0,0,0,0,0,1,1,1,0,0,0,0,,,,,,,,,0,0,0,0,0,0,0,0,,,,,,,,,,,,,,,,,,,,,,,,,,,,,,,,,,,,,,,,334.814582903,None,5,0.9724923559997478,334.814582903,None,300.00701393900044,303.0165582320001,303.0256881670002,310.6026680320001,,,,,,,,,,,,,,,,,,,,,,,,,,,,,,,,,,,,,,,,,,,,,,,,,,,,,,,,,,,,,,,,,,,,072821,1,3,0,3,1,1,2,0,54,2021_Jul_28_1612,listening_fmri,3.2.4,59.98155555173552,
1,parcelated_audio/43/43_2.ogg,,,,,,,,,0,0,0,0,0,1,1,1,0,0,0,0,,,,,,,,,0,0,0,0,0,1,1,1,,,,,,,,,,,,,,,,,,,,,,,,,,,,,,,,,,,,,,,,,,,,,,,,310.6030233390002,314.3653949110003,,,,,,,,,,,,,,,,,,,,,,,,,,,,,,,,,,,,,,,,,,,,,,,,,,,,,,,,,,,,,,,,,,,,072821,1,3,0,3,1,1,2,0,54,2021_Jul_28_1612,listening_fmri,3.2.4,59.98155555173552,
1,parcelated_audio/43/43_3.ogg,,,,,,,,,0,0,0,0,0,1,1,1,0,0,0,0,,,,,,,,,0,0,0,0,0,2,2,2,,,,,,,,,,,,,,,,,,,,,,,,,,,,,,,,,,,,,,,,,,,,,,,,314.3657487080004,323.2347307250002,,,,,,,,,,,,,,,,,,,,,,,,,,,,,,,,,,,,,,,,,,,,,,,,,,,,,,,,,,,,,,,,,,,,072821,1,3,0,3,1,1,2,0,54,2021_Jul_28_1612,listening_fmri,3.2.4,59.98155555173552,
1,parcelated_audio/43/43_4.ogg,,,,,,,,,0,0,0,0,0,1,1,1,0,0,0,0,,,,,,,,,0,0,0,0,0,3,3,3,,,,,,,,,,,,,,,,,,,,,,,,,,,,,,,,,,,,,,,,,,,,,,,,323.23509011900023,331.7387266200003,,,,,,,,,,,,,,,,,,,,,,,,,,,,,,,,,,,,,,,,,,,,,,,,,,,,,,,,,,,,,,,,,,,,072821,1,3,0,3,1,1,2,0,54,2021_Jul_28_1612,listening_fmri,3.2.4,59.98155555173552,
1,parcelated_audio/43/43_5.ogg,,,,,,,,,0,0,0,0,0,1,1,1,0,0,0,0,,,,,,,,,0,0,0,0,0,4,4,4,,,,,,,,,,,,,,,,,,,,,,,,,,,,,,,,,,,,,,,,,,,,,,,,331.73922495800025,341.0012808910001,,,,,,,,,,,,,,,,,,,,,,,,,,,,,,,,,,,,,,,,,,,,,,,,,,,,,,,,,,,,,,,,,,,,072821,1,3,0,3,1,1,2,0,54,2021_Jul_28_1612,listening_fmri,3.2.4,59.98155555173552,
1,parcelated_audio/43/43_6.ogg,,,,,,,,,0,0,0,0,0,1,1,1,0,0,0,0,,,,,,,,,0,0,0,0,0,5,5,5,,,,,,,,,,,,,,,,,,,,,,,,,,,,,,,,,,,,,,,,,,,,,,,,341.00152693200016,350.14634029000035,,,,,,,,,,,,,,,,,,,,,,,,,,,,,,,,,,,,,,,,,,,,,,,,,,,,,,,,,,,,,,,,,,,,072821,1,3,0,3,1,1,2,0,54,2021_Jul_28_1612,listening_fmri,3.2.4,59.98155555173552,
1,parcelated_audio/43/43_7.ogg,,,,,,,,,0,0,0,0,0,1,1,1,0,0,0,0,,,,,,,,,0,0,0,0,0,6,6,6,,,,,,,,,,,,,,,,,,,,,,,,,,,,,,,,,,,,,,,,,,,,,,,,350.14669511400007,354.8947561470004,,,,,,,,,,,,,,,,,,,,,,,,,,,,,,,,,,,,,,,,,,,,,,,,,,,,,,,,,,,,,,,,,,,,072821,1,3,0,3,1,1,2,0,54,2021_Jul_28_1612,listening_fmri,3.2.4,59.98155555173552,
1,parcelated_audio/43/43_8.ogg,,,,,,,,,0,0,0,0,0,1,1,1,0,0,0,0,,,,,,,,,0,0,0,0,0,7,7,7,,,,,,,,,,,,,,,,,,,,,,,,,,,,,,,,,,,,,,,,,,,,,,,,354.8953382740001,361.4450054390004,,,,,,,,,,,,,,,,,,,,,,,,,,,,,,,,,,,,,,,,,,,,,,,,,,,,,,,,,,,,,,,,,,,,072821,1,3,0,3,1,1,2,0,54,2021_Jul_28_1612,listening_fmri,3.2.4,59.98155555173552,
1,parcelated_audio/43/43_9.ogg,,,,,,,,,0,0,0,0,0,1,1,1,0,0,0,0,,,,,,,,,0,0,0,0,0,8,8,8,,,,,,,,,,,,,,,,,,,,,,,,,,,,,,,,,,,,,,,,,,,,,,,,361.44536137800014,365.9652299640002,,,,,,,,,,,,,,,,,,,,,,,,,,,,,,,,,,,,,,,,,,,,,,,,,,,,,,,,,,,,,,,,,,,,072821,1,3,0,3,1,1,2,0,54,2021_Jul_28_1612,listening_fmri,3.2.4,59.98155555173552,
1,parcelated_audio/43/43_10.ogg,,,,,,,,,0,0,0,0,0,1,1,1,0,0,0,0,,,,,,,,,0,0,0,0,0,9,9,9,,,,,,,,,,,,,,,,,,,,,,,,,,,,,,,,,,,,,,,,,,,,,,,,365.96558242400033,370.8425276750004,,,,,,,,,,,,,,,,,,,,,,,,,,,,,,,,,,,,,,,,,,,,,,,,,,,,,,,,,,,,,,,,,,,,072821,1,3,0,3,1,1,2,0,54,2021_Jul_28_1612,listening_fmri,3.2.4,59.98155555173552,
1,parcelated_audio/43/43_11.ogg,,,,,,,,,0,0,0,0,0,1,1,1,0,0,0,0,,,,,,,,,0,0,0,0,0,10,10,10,,,,,,,,,,,,,,,,,,,,,,,,,,,,,,,,,,,,,,,,,,,,,,,,370.84287717700045,381.8689311100002,,,,,,,,,,,,,,,,,,,,,,,,,,,,,,,,,,,,,,,,,,,,,,,,,,,,,,,,,,,,,,,,,,,,072821,1,3,0,3,1,1,2,0,54,2021_Jul_28_1612,listening_fmri,3.2.4,59.98155555173552,
1,parcelated_audio/43/43_12.ogg,,,,,,,,,0,0,0,0,0,1,1,1,0,0,0,0,,,,,,,,,0,0,0,0,0,11,11,11,,,,,,,,,,,,,,,,,,,,,,,,,,,,,,,,,,,,,,,,,,,,,,,,381.8692824010004,387.9517020430003,,,,,,,,,,,,,,,,,,,,,,,,,,,,,,,,,,,,,,,,,,,,,,,,,,,,,,,,,,,,,,,,,,,,072821,1,3,0,3,1,1,2,0,54,2021_Jul_28_1612,listening_fmri,3.2.4,59.98155555173552,
1,parcelated_audio/43/43_13.ogg,,,,,,,,,0,0,0,0,0,1,1,1,0,0,0,0,,,,,,,,,0,0,0,0,0,12,12,12,,,,,,,,,,,,,,,,,,,,,,,,,,,,,,,,,,,,,,,,,,,,,,,,387.95204949100025,396.1999464830001,,,,,,,,,,,,,,,,,,,,,,,,,,,,,,,,,,,,,,,,,,,,,,,,,,,,,,,,,,,,,,,,,,,,072821,1,3,0,3,1,1,2,0,54,2021_Jul_28_1612,listening_fmri,3.2.4,59.98155555173552,
1,parcelated_audio/43/43_14.ogg,,,,,,,,,0,0,0,0,0,1,1,1,0,0,0,0,,,,,,,,,0,0,0,0,0,13,13,13,,,,,,,,,,,,,,,,,,,,,,,,,,,,,,,,,,,,,,,,,,,,,,,,396.200198215,404.7337843190003,,,,,,,,,,,,,,,,,,,,,,,,,,,,,,,,,,,,,,,,,,,,,,,,,,,,,,,,,,,,,,,,,,,,072821,1,3,0,3,1,1,2,0,54,2021_Jul_28_1612,listening_fmri,3.2.4,59.98155555173552,
1,parcelated_audio/43/43_15.ogg,,,,,,,,,0,0,0,0,0,1,1,1,0,0,0,0,,,,,,,,,0,0,0,0,0,14,14,14,,,,,,,,,,,,,,,,,,,,,,,,,,,,,,,,,,,,,,,,,,,,,,,,404.7340906170002,409.0718309040003,,,,,,,,,,,,,,,,,,,,,,,,,,,,,,,,,,,,,,,,,,,,,,,,,,,,,,,,,,,,,,,,,,,,072821,1,3,0,3,1,1,2,0,54,2021_Jul_28_1612,listening_fmri,3.2.4,59.98155555173552,
1,parcelated_audio/43/43_16.ogg,,,,,,,,,0,0,0,0,0,1,1,1,0,0,0,0,,,,,,,,,0,0,0,0,0,15,15,15,,,,,,,,,,,,,,,,,,,,,,,,,,,,,,,,,,,,,,,,,,,,,,,,409.0722412570003,413.6024817700004,,,,,,,,,,,,,,,,,,,,,,,,,,,,,,,,,,,,,,,,,,,,,,,,,,,,,,,,,,,,,,,,,,,,072821,1,3,0,3,1,1,2,0,54,2021_Jul_28_1612,listening_fmri,3.2.4,59.98155555173552,
1,parcelated_audio/43/43_17.ogg,,,,,,,,,0,0,0,0,0,1,1,1,0,0,0,0,,,,,,,,,0,0,0,0,0,16,16,16,,,,,,,,,,,,,,,,,,,,,,,,,,,,,,,,,,,,,,,,,,,,,,,,413.6030233590004,417.3666747440002,,,,,,,,,,,,,,,,,,,,,,,,,,,,,,,,,,,,,,,,,,,,,,,,,,,,,,,,,,,,,,,,,,,,072821,1,3,0,3,1,1,2,0,54,2021_Jul_28_1612,listening_fmri,3.2.4,59.98155555173552,
1,parcelated_audio/43/43_18.ogg,,,,,,,,,0,0,0,0,0,1,1,1,0,0,0,0,,,,,,,,,0,0,0,0,0,17,17,17,,,,,,,,,,,,,,,,,,,,,,,,,,,,,,,,,,,,,,,,,,,,,,,,417.36698000800016,419.5707847350004,,,,,,,,,,,,,,,,,,,,,,,,,,,,,,,,,,,,,,,,,,,,,,,,,,,,,,,,,,,,,,,,,,,,072821,1,3,0,3,1,1,2,0,54,2021_Jul_28_1612,listening_fmri,3.2.4,59.98155555173552,
1,parcelated_audio/43/43_19.ogg,,,,,,,,,0,0,0,0,0,1,1,1,0,0,0,0,,,,,,,,,0,0,0,0,0,18,18,18,,,,,,,,,,,,,,,,,,,,,,,,,,,,,,,,,,,,,,,,,,,,,,,,419.57129455700033,423.2212687230003,,,,,,,,,,,,,,,,,,,,,,,,,,,,,,,,,,,,,,,,,,,,,,,,,,,,,,,,,,,,,,,,,,,,072821,1,3,0,3,1,1,2,0,54,2021_Jul_28_1612,listening_fmri,3.2.4,59.98155555173552,
1,parcelated_audio/43/43_20.ogg,,,,,,,,,0,0,0,0,0,1,1,1,0,0,0,0,,,,,,,,,0,0,0,0,0,19,19,19,,,,,,,,,,,,,,,,,,,,,,,,,,,,,,,,,,,,,,,,,,,,,,,,423.2220147330004,430.4196107120001,,,,,,,,,,,,,,,,,,,,,,,,,,,,,,,,,,,,,,,,,,,,,,,,,,,,,,,,,,,,,,,,,,,,072821,1,3,0,3,1,1,2,0,54,2021_Jul_28_1612,listening_fmri,3.2.4,59.98155555173552,
1,parcelated_audio/43/43_21.ogg,,,,,,,,,0,0,0,0,0,1,1,1,0,0,0,0,,,,,,,,,0,0,0,0,0,20,20,20,,,,,,,,,,,,,,,,,,,,,,,,,,,,,,,,,,,,,,,,,,,,,,,,430.41994256900034,432.8858781930003,,,,,,,,,,,,,,,,,,,,,,,,,,,,,,,,,,,,,,,,,,,,,,,,,,,,,,,,,,,,,,,,,,,,072821,1,3,0,3,1,1,2,0,54,2021_Jul_28_1612,listening_fmri,3.2.4,59.98155555173552,
1,parcelated_audio/43/43_22.ogg,,,,,,,,,0,0,0,0,0,1,1,1,0,0,0,0,,,,,,,,,0,0,0,0,0,21,21,21,,,,,,,,,,,,,,,,,,,,,,,,,,,,,,,,,,,,,,,,,,,,,,,,432.886377326,436.38196967700014,,,,,,,,,,,,,,,,,,,,,,,,,,,,,,,,,,,,,,,,,,,,,,,,,,,,,,,,,,,,,,,,,,,,072821,1,3,0,3,1,1,2,0,54,2021_Jul_28_1612,listening_fmri,3.2.4,59.98155555173552,
1,parcelated_audio/43/43_23.ogg,,,,,,,,,0,0,0,0,0,1,1,1,0,0,0,0,,,,,,,,,0,0,0,0,0,22,22,22,,,,,,,,,,,,,,,,,,,,,,,,,,,,,,,,,,,,,,,,,,,,,,,,436.3822255,442.42096532200003,,,,,,,,,,,,,,,,,,,,,,,,,,,,,,,,,,,,,,,,,,,,,,,,,,,,,,,,,,,,,,,,,,,,072821,1,3,0,3,1,1,2,0,54,2021_Jul_28_1612,listening_fmri,3.2.4,59.98155555173552,
1,parcelated_audio/43/43_24.ogg,,,,,,,,,0,0,0,0,0,1,1,1,0,0,0,0,,,,,,,,,0,0,0,0,0,23,23,23,,,,,,,,,,,,,,,,,,,,,,,,,,,,,,,,,,,,,,,,,,,,,,,,442.4213200420004,448.7627658430001,,,,,,,,,,,,,,,,,,,,,,,,,,,,,,,,,,,,,,,,,,,,,,,,,,,,,,,,,,,,,,,,,,,,072821,1,3,0,3,1,1,2,0,54,2021_Jul_28_1612,listening_fmri,3.2.4,59.98155555173552,
1,parcelated_audio/43/43_25.ogg,,,,,,,,,0,0,0,0,0,1,1,1,0,0,0,0,,,,,,,,,0,0,0,0,0,24,24,24,,,,,,,,,,,,,,,,,,,,,,,,,,,,,,,,,,,,,,,,,,,,,,,,448.7631210180002,453.79923056000007,,,,,,,,,,,,,,,,,,,,,,,,,,,,,,,,,,,,,,,,,,,,,,,,,,,,,,,,,,,,,,,,,,,,072821,1,3,0,3,1,1,2,0,54,2021_Jul_28_1612,listening_fmri,3.2.4,59.98155555173552,
1,parcelated_audio/43/43_26.ogg,,,,,,,,,0,0,0,0,0,1,1,1,0,0,0,0,,,,,,,,,0,0,0,0,0,25,25,25,,,,,,,,,,,,,,,,,,,,,,,,,,,,,,,,,,,,,,,,,,,,,,,,453.7997073360002,462.3679337630001,,,,,,,,,,,,,,,,,,,,,,,,,,,,,,,,,,,,,,,,,,,,,,,,,,,,,,,,,,,,,,,,,,,,072821,1,3,0,3,1,1,2,0,54,2021_Jul_28_1612,listening_fmri,3.2.4,59.98155555173552,
1,parcelated_audio/43/43_27.ogg,,,,,,,,,0,0,0,0,0,1,1,1,0,0,0,0,,,,,,,,,0,0,0,0,0,26,26,26,,,,,,,,,,,,,,,,,,,,,,,,,,,,,,,,,,,,,,,,,,,,,,,,462.3684581550001,466.75081798600013,,,,,,,,,,,,,,,,,,,,,,,,,,,,,,,,,,,,,,,,,,,,,,,,,,,,,,,,,,,,,,,,,,,,072821,1,3,0,3,1,1,2,0,54,2021_Jul_28_1612,listening_fmri,3.2.4,59.98155555173552,
1,parcelated_audio/43/43_28.ogg,,,,,,,,,0,0,0,0,0,1,1,1,0,0,0,0,,,,,,,,,0,0,0,0,0,27,27,27,,,,,,,,,,,,,,,,,,,,,,,,,,,,,,,,,,,,,,,,,,,,,,,,466.75121984900034,471.71440664600004,,,,,,,,,,,,,,,,,,,,,,,,,,,,,,,,,,,,,,,,,,,,,,,,,,,,,,,,,,,,,,,,,,,,072821,1,3,0,3,1,1,2,0,54,2021_Jul_28_1612,listening_fmri,3.2.4,59.98155555173552,
1,parcelated_audio/43/43_29.ogg,,,,,,,,,0,0,0,0,0,1,1,1,0,0,0,0,,,,,,,,,0,0,0,0,0,28,28,28,,,,,,,,,,,,,,,,,,,,,,,,,,,,,,,,,,,,,,,,,,,,,,,,471.71475622800017,477.84678807200044,,,,,,,,,,,,,,,,,,,,,,,,,,,,,,,,,,,,,,,,,,,,,,,,,,,,,,,,,,,,,,,,,,,,072821,1,3,0,3,1,1,2,0,54,2021_Jul_28_1612,listening_fmri,3.2.4,59.98155555173552,
1,,,,,,,,,,0,0,0,0,0,1,1,1,0,0,0,0,,,,,,,,,0,0,0,0,,,,,,,,,,,,,,,,,,,,,,,,,,,,,,,,,,,,,,,,,,,,,,,,,,,,,,,,,,,,,,,,,,,,,,,,,,,,,,,,,,,,,,,,,,,,,,,,,,,,,,,,,,,,,,,,,,,,,,,,,072821,1,3,0,3,1,1,2,0,54,2021_Jul_28_1612,listening_fmri,3.2.4,59.98155555173552,
1,,,,,,,,,,0,0,0,0,0,1,1,1,0,0,0,0,,,,,,,,,,,,,,,,,,,,,,,,,,,,,,,,,,,,,,,,,,477.8472826310003,483.8498994460001,513.6600898640004,None,,,,,,,,,,,,,,,,,,,,,519.6654344930002,None,519.6654344930002,None,,,,,,,,,,,,,,,,,,,,,,,,,,,,,,,,,,,,,,,,,,,,,,,,,,,,,,,,,,,,,,,,072821,1,3,0,3,1,1,2,0,54,2021_Jul_28_1612,listening_fmri,3.2.4,59.98155555173552,
1,,,,,,,,,,0,0,0,0,0,1,1,1,,,,,,,,,,,,,,,,,,,,,,,,,,,,,,,,,,,,,,,,,,,,,,,,,,,,,,,,,,,,,,,,,,,,,,,,,,,,,,,,,,,,,,,,,,,,,,,,,,,,,,,,,,,,,,,,,,,,,,,,,,,,,,,,,,,,,,,,,072821,1,3,0,3,1,1,2,0,54,2021_Jul_28_1612,listening_fmri,3.2.4,59.98155555173552,
2,,,,,,,,,,0,0,0,0,0,2,2,2,,,,,,,,,,,,,,,,,,,,,,,,,,,,,,,,,,,,,,,,,,,,,,,,,,,,,,,,,,,,,,,,,,,,,,,,,,,,,,,,,,,,,,,,,,,,,,,,,,,,,,,,,,,,,,,,,,,,,,,,,,,,,,,,,,,,,,,,,072821,1,3,0,3,1,1,2,0,54,2021_Jul_28_1612,listening_fmri,3.2.4,59.98155555173552,
3,,,,,,,,,,0,0,0,0,0,3,3,3,0,0,0,0,0,0,0,0,,,,,,,,,,,,,,,,,0,0,0,0,,,,,,,,,,,,,,,,,,,,,,520.6761724540002,None,520.6761724540002,None,5,0.10890653099977499,520.6761724540002,None,520.6761724540002,None,,,,,,,,,,,,,,,520.8158911200003,None,5,0.9691591800001333,520.8158911200003,None,520.8158911200003,None,521.8424226900001,None,521.8424226900001,None,521.8424226900001,None,5,0.9426677689998542,521.8424226900001,None,522.8144881010003,None,5,0.9705749790000482,522.8144881010003,None,522.8144881010003,None,523.892285724,None,523.892285724,None,523.892285724,None,523.892285724,None,523.892285724,None,523.892285724,None,523.892285724,None,None,523.892285724,None,,,,,,,,,,,,,,,,,,,,,072821,1,3,0,3,1,1,2,0,54,2021_Jul_28_1612,listening_fmri,3.2.4,59.98155555173552,
3,,,,,,,,,,0,0,0,0,0,3,3,3,0,0,0,0,0,0,0,0,,,,,,,,,,,,,,,,,,,,,,,,,,,,,,,,,,,,,,,,,,,,,,,,,,,,,,,,,,,,,,,,,,,,,,,,,,,,,,,,,,,,,,,,,,,,,,,,,,,,,,,,,,,,,541.475095625,None,5,0.3088792190001186,541.475095625,None,541.475095625,None,541.8316720340003,None,541.8316720340003,None,541.8316720340003,None,1,0.896360020999964,541.8316720340003,None,,,072821,1,3,0,3,1,1,2,0,54,2021_Jul_28_1612,listening_fmri,3.2.4,59.98155555173552,
3,parcelated_audio/14/14_1.ogg,,,,,,,,,0,0,0,0,0,3,3,3,0,0,0,0,,,,,,,,,0,0,0,0,0,0,0,0,,,,,,,,,,,,,,,,,,,,,,,,,,,,,,,,,,,,,,,,542.7645246440002,None,5,0.019483811000100104,542.7645246440002,None,507.01044690000026,510.01660783000034,510.0233976120003,516.8758856470004,,,,,,,,,,,,,,,,,,,,,,,,,,,,,,,,,,,,,,,,,,,,,,,,,,,,,,,,,,,,,,,,,,,,072821,1,3,0,3,1,1,2,0,54,2021_Jul_28_1612,listening_fmri,3.2.4,59.98155555173552,
3,parcelated_audio/14/14_2.ogg,,,,,,,,,0,0,0,0,0,3,3,3,0,0,0,0,,,,,,,,,0,0,0,0,0,1,1,1,,,,,,,,,,,,,,,,,,,,,,,,,,,,,,,,,,,,,,,,,,,,,,,,516.876368788,523.4247470160003,,,,,,,,,,,,,,,,,,,,,,,,,,,,,,,,,,,,,,,,,,,,,,,,,,,,,,,,,,,,,,,,,,,,072821,1,3,0,3,1,1,2,0,54,2021_Jul_28_1612,listening_fmri,3.2.4,59.98155555173552,
3,parcelated_audio/14/14_3.ogg,,,,,,,,,0,0,0,0,0,3,3,3,0,0,0,0,,,,,,,,,0,0,0,0,0,2,2,2,,,,,,,,,,,,,,,,,,,,,,,,,,,,,,,,,,,,,,,,,,,,,,,,523.4250888180004,527.1317196640002,,,,,,,,,,,,,,,,,,,,,,,,,,,,,,,,,,,,,,,,,,,,,,,,,,,,,,,,,,,,,,,,,,,,072821,1,3,0,3,1,1,2,0,54,2021_Jul_28_1612,listening_fmri,3.2.4,59.98155555173552,
3,parcelated_audio/14/14_4.ogg,,,,,,,,,0,0,0,0,0,3,3,3,0,0,0,0,,,,,,,,,0,0,0,0,0,3,3,3,,,,,,,,,,,,,,,,,,,,,,,,,,,,,,,,,,,,,,,,,,,,,,,,527.1321900800003,535.0806526290003,,,,,,,,,,,,,,,,,,,,,,,,,,,,,,,,,,,,,,,,,,,,,,,,,,,,,,,,,,,,,,,,,,,,072821,1,3,0,3,1,1,2,0,54,2021_Jul_28_1612,listening_fmri,3.2.4,59.98155555173552,
3,parcelated_audio/14/14_5.ogg,,,,,,,,,0,0,0,0,0,3,3,3,0,0,0,0,,,,,,,,,0,0,0,0,0,4,4,4,,,,,,,,,,,,,,,,,,,,,,,,,,,,,,,,,,,,,,,,,,,,,,,,535.0810987150003,539.9475808970001,,,,,,,,,,,,,,,,,,,,,,,,,,,,,,,,,,,,,,,,,,,,,,,,,,,,,,,,,,,,,,,,,,,,072821,1,3,0,3,1,1,2,0,54,2021_Jul_28_1612,listening_fmri,3.2.4,59.98155555173552,
3,parcelated_audio/14/14_6.ogg,,,,,,,,,0,0,0,0,0,3,3,3,0,0,0,0,,,,,,,,,0,0,0,0,0,5,5,5,,,,,,,,,,,,,,,,,,,,,,,,,,,,,,,,,,,,,,,,,,,,,,,,539.947959048,545.8068085910004,,,,,,,,,,,,,,,,,,,,,,,,,,,,,,,,,,,,,,,,,,,,,,,,,,,,,,,,,,,,,,,,,,,,072821,1,3,0,3,1,1,2,0,54,2021_Jul_28_1612,listening_fmri,3.2.4,59.98155555173552,
3,parcelated_audio/14/14_7.ogg,,,,,,,,,0,0,0,0,0,3,3,3,0,0,0,0,,,,,,,,,0,0,0,0,0,6,6,6,,,,,,,,,,,,,,,,,,,,,,,,,,,,,,,,,,,,,,,,,,,,,,,,545.8072345980004,555.465245332,,,,,,,,,,,,,,,,,,,,,,,,,,,,,,,,,,,,,,,,,,,,,,,,,,,,,,,,,,,,,,,,,,,,072821,1,3,0,3,1,1,2,0,54,2021_Jul_28_1612,listening_fmri,3.2.4,59.98155555173552,
3,parcelated_audio/14/14_8.ogg,,,,,,,,,0,0,0,0,0,3,3,3,0,0,0,0,,,,,,,,,0,0,0,0,0,7,7,7,,,,,,,,,,,,,,,,,,,,,,,,,,,,,,,,,,,,,,,,,,,,,,,,555.46561234,560.6724980100003,,,,,,,,,,,,,,,,,,,,,,,,,,,,,,,,,,,,,,,,,,,,,,,,,,,,,,,,,,,,,,,,,,,,072821,1,3,0,3,1,1,2,0,54,2021_Jul_28_1612,listening_fmri,3.2.4,59.98155555173552,
3,parcelated_audio/14/14_9.ogg,,,,,,,,,0,0,0,0,0,3,3,3,0,0,0,0,,,,,,,,,0,0,0,0,0,8,8,8,,,,,,,,,,,,,,,,,,,,,,,,,,,,,,,,,,,,,,,,,,,,,,,,560.672845216,564.4264530980004,,,,,,,,,,,,,,,,,,,,,,,,,,,,,,,,,,,,,,,,,,,,,,,,,,,,,,,,,,,,,,,,,,,,072821,1,3,0,3,1,1,2,0,54,2021_Jul_28_1612,listening_fmri,3.2.4,59.98155555173552,
3,parcelated_audio/14/14_10.ogg,,,,,,,,,0,0,0,0,0,3,3,3,0,0,0,0,,,,,,,,,0,0,0,0,0,9,9,9,,,,,,,,,,,,,,,,,,,,,,,,,,,,,,,,,,,,,,,,,,,,,,,,564.4267898730004,575.6798353190002,,,,,,,,,,,,,,,,,,,,,,,,,,,,,,,,,,,,,,,,,,,,,,,,,,,,,,,,,,,,,,,,,,,,072821,1,3,0,3,1,1,2,0,54,2021_Jul_28_1612,listening_fmri,3.2.4,59.98155555173552,
3,parcelated_audio/14/14_11.ogg,,,,,,,,,0,0,0,0,0,3,3,3,0,0,0,0,,,,,,,,,0,0,0,0,0,10,10,10,,,,,,,,,,,,,,,,,,,,,,,,,,,,,,,,,,,,,,,,,,,,,,,,575.6801791090002,582.9038383680004,,,,,,,,,,,,,,,,,,,,,,,,,,,,,,,,,,,,,,,,,,,,,,,,,,,,,,,,,,,,,,,,,,,,072821,1,3,0,3,1,1,2,0,54,2021_Jul_28_1612,listening_fmri,3.2.4,59.98155555173552,
3,parcelated_audio/14/14_12.ogg,,,,,,,,,0,0,0,0,0,3,3,3,0,0,0,0,,,,,,,,,0,0,0,0,0,11,11,11,,,,,,,,,,,,,,,,,,,,,,,,,,,,,,,,,,,,,,,,,,,,,,,,582.9042724520004,590.91897341,,,,,,,,,,,,,,,,,,,,,,,,,,,,,,,,,,,,,,,,,,,,,,,,,,,,,,,,,,,,,,,,,,,,072821,1,3,0,3,1,1,2,0,54,2021_Jul_28_1612,listening_fmri,3.2.4,59.98155555173552,
3,parcelated_audio/14/14_13.ogg,,,,,,,,,0,0,0,0,0,3,3,3,0,0,0,0,,,,,,,,,0,0,0,0,0,12,12,12,,,,,,,,,,,,,,,,,,,,,,,,,,,,,,,,,,,,,,,,,,,,,,,,590.9194373270002,597.0436811440004,,,,,,,,,,,,,,,,,,,,,,,,,,,,,,,,,,,,,,,,,,,,,,,,,,,,,,,,,,,,,,,,,,,,072821,1,3,0,3,1,1,2,0,54,2021_Jul_28_1612,listening_fmri,3.2.4,59.98155555173552,
3,parcelated_audio/14/14_14.ogg,,,,,,,,,0,0,0,0,0,3,3,3,0,0,0,0,,,,,,,,,0,0,0,0,0,13,13,13,,,,,,,,,,,,,,,,,,,,,,,,,,,,,,,,,,,,,,,,,,,,,,,,597.0440846430001,603.6111517480003,,,,,,,,,,,,,,,,,,,,,,,,,,,,,,,,,,,,,,,,,,,,,,,,,,,,,,,,,,,,,,,,,,,,072821,1,3,0,3,1,1,2,0,54,2021_Jul_28_1612,listening_fmri,3.2.4,59.98155555173552,
3,parcelated_audio/14/14_15.ogg,,,,,,,,,0,0,0,0,0,3,3,3,0,0,0,0,,,,,,,,,0,0,0,0,0,14,14,14,,,,,,,,,,,,,,,,,,,,,,,,,,,,,,,,,,,,,,,,,,,,,,,,603.6116068330002,610.7519982230001,,,,,,,,,,,,,,,,,,,,,,,,,,,,,,,,,,,,,,,,,,,,,,,,,,,,,,,,,,,,,,,,,,,,072821,1,3,0,3,1,1,2,0,54,2021_Jul_28_1612,listening_fmri,3.2.4,59.98155555173552,
3,parcelated_audio/14/14_16.ogg,,,,,,,,,0,0,0,0,0,3,3,3,0,0,0,0,,,,,,,,,0,0,0,0,0,15,15,15,,,,,,,,,,,,,,,,,,,,,,,,,,,,,,,,,,,,,,,,,,,,,,,,610.7523515590001,616.1783910010004,,,,,,,,,,,,,,,,,,,,,,,,,,,,,,,,,,,,,,,,,,,,,,,,,,,,,,,,,,,,,,,,,,,,072821,1,3,0,3,1,1,2,0,54,2021_Jul_28_1612,listening_fmri,3.2.4,59.98155555173552,
3,parcelated_audio/14/14_17.ogg,,,,,,,,,0,0,0,0,0,3,3,3,0,0,0,0,,,,,,,,,0,0,0,0,0,16,16,16,,,,,,,,,,,,,,,,,,,,,,,,,,,,,,,,,,,,,,,,,,,,,,,,616.1787436960003,625.874513275,,,,,,,,,,,,,,,,,,,,,,,,,,,,,,,,,,,,,,,,,,,,,,,,,,,,,,,,,,,,,,,,,,,,072821,1,3,0,3,1,1,2,0,54,2021_Jul_28_1612,listening_fmri,3.2.4,59.98155555173552,
3,parcelated_audio/14/14_18.ogg,,,,,,,,,0,0,0,0,0,3,3,3,0,0,0,0,,,,,,,,,0,0,0,0,0,17,17,17,,,,,,,,,,,,,,,,,,,,,,,,,,,,,,,,,,,,,,,,,,,,,,,,625.8750014630004,633.4664158720002,,,,,,,,,,,,,,,,,,,,,,,,,,,,,,,,,,,,,,,,,,,,,,,,,,,,,,,,,,,,,,,,,,,,072821,1,3,0,3,1,1,2,0,54,2021_Jul_28_1612,listening_fmri,3.2.4,59.98155555173552,
3,parcelated_audio/14/14_19.ogg,,,,,,,,,0,0,0,0,0,3,3,3,0,0,0,0,,,,,,,,,0,0,0,0,0,18,18,18,,,,,,,,,,,,,,,,,,,,,,,,,,,,,,,,,,,,,,,,,,,,,,,,633.4667669630003,636.3289695540002,,,,,,,,,,,,,,,,,,,,,,,,,,,,,,,,,,,,,,,,,,,,,,,,,,,,,,,,,,,,,,,,,,,,072821,1,3,0,3,1,1,2,0,54,2021_Jul_28_1612,listening_fmri,3.2.4,59.98155555173552,
3,parcelated_audio/14/14_20.ogg,,,,,,,,,0,0,0,0,0,3,3,3,0,0,0,0,,,,,,,,,0,0,0,0,0,19,19,19,,,,,,,,,,,,,,,,,,,,,,,,,,,,,,,,,,,,,,,,,,,,,,,,636.3294590120004,638.4719183540001,,,,,,,,,,,,,,,,,,,,,,,,,,,,,,,,,,,,,,,,,,,,,,,,,,,,,,,,,,,,,,,,,,,,072821,1,3,0,3,1,1,2,0,54,2021_Jul_28_1612,listening_fmri,3.2.4,59.98155555173552,
3,parcelated_audio/14/14_21.ogg,,,,,,,,,0,0,0,0,0,3,3,3,0,0,0,0,,,,,,,,,0,0,0,0,0,20,20,20,,,,,,,,,,,,,,,,,,,,,,,,,,,,,,,,,,,,,,,,,,,,,,,,638.4722714490003,648.0474495120002,,,,,,,,,,,,,,,,,,,,,,,,,,,,,,,,,,,,,,,,,,,,,,,,,,,,,,,,,,,,,,,,,,,,072821,1,3,0,3,1,1,2,0,54,2021_Jul_28_1612,listening_fmri,3.2.4,59.98155555173552,
3,parcelated_audio/14/14_22.ogg,,,,,,,,,0,0,0,0,0,3,3,3,0,0,0,0,,,,,,,,,0,0,0,0,0,21,21,21,,,,,,,,,,,,,,,,,,,,,,,,,,,,,,,,,,,,,,,,,,,,,,,,648.0478335800003,654.3885899680004,,,,,,,,,,,,,,,,,,,,,,,,,,,,,,,,,,,,,,,,,,,,,,,,,,,,,,,,,,,,,,,,,,,,072821,1,3,0,3,1,1,2,0,54,2021_Jul_28_1612,listening_fmri,3.2.4,59.98155555173552,
3,parcelated_audio/14/14_23.ogg,,,,,,,,,0,0,0,0,0,3,3,3,0,0,0,0,,,,,,,,,0,0,0,0,0,22,22,22,,,,,,,,,,,,,,,,,,,,,,,,,,,,,,,,,,,,,,,,,,,,,,,,654.3889495650001,659.4477467890001,,,,,,,,,,,,,,,,,,,,,,,,,,,,,,,,,,,,,,,,,,,,,,,,,,,,,,,,,,,,,,,,,,,,072821,1,3,0,3,1,1,2,0,54,2021_Jul_28_1612,listening_fmri,3.2.4,59.98155555173552,
3,parcelated_audio/14/14_24.ogg,,,,,,,,,0,0,0,0,0,3,3,3,0,0,0,0,,,,,,,,,0,0,0,0,0,23,23,23,,,,,,,,,,,,,,,,,,,,,,,,,,,,,,,,,,,,,,,,,,,,,,,,659.4484023640002,670.3638287980002,,,,,,,,,,,,,,,,,,,,,,,,,,,,,,,,,,,,,,,,,,,,,,,,,,,,,,,,,,,,,,,,,,,,072821,1,3,0,3,1,1,2,0,54,2021_Jul_28_1612,listening_fmri,3.2.4,59.98155555173552,
3,parcelated_audio/14/14_25.ogg,,,,,,,,,0,0,0,0,0,3,3,3,0,0,0,0,,,,,,,,,0,0,0,0,0,24,24,24,,,,,,,,,,,,,,,,,,,,,,,,,,,,,,,,,,,,,,,,,,,,,,,,670.3641782700001,677.0410092750003,,,,,,,,,,,,,,,,,,,,,,,,,,,,,,,,,,,,,,,,,,,,,,,,,,,,,,,,,,,,,,,,,,,,072821,1,3,0,3,1,1,2,0,54,2021_Jul_28_1612,listening_fmri,3.2.4,59.98155555173552,
3,parcelated_audio/14/14_26.ogg,,,,,,,,,0,0,0,0,0,3,3,3,0,0,0,0,,,,,,,,,0,0,0,0,0,25,25,25,,,,,,,,,,,,,,,,,,,,,,,,,,,,,,,,,,,,,,,,,,,,,,,,677.0414374860002,679.2183913810004,,,,,,,,,,,,,,,,,,,,,,,,,,,,,,,,,,,,,,,,,,,,,,,,,,,,,,,,,,,,,,,,,,,,072821,1,3,0,3,1,1,2,0,54,2021_Jul_28_1612,listening_fmri,3.2.4,59.98155555173552,
3,parcelated_audio/14/14_27.ogg,,,,,,,,,0,0,0,0,0,3,3,3,0,0,0,0,,,,,,,,,0,0,0,0,0,26,26,26,,,,,,,,,,,,,,,,,,,,,,,,,,,,,,,,,,,,,,,,,,,,,,,,679.2187526760003,685.2453977130003,,,,,,,,,,,,,,,,,,,,,,,,,,,,,,,,,,,,,,,,,,,,,,,,,,,,,,,,,,,,,,,,,,,,072821,1,3,0,3,1,1,2,0,54,2021_Jul_28_1612,listening_fmri,3.2.4,59.98155555173552,
3,parcelated_audio/14/14_28.ogg,,,,,,,,,0,0,0,0,0,3,3,3,0,0,0,0,,,,,,,,,0,0,0,0,0,27,27,27,,,,,,,,,,,,,,,,,,,,,,,,,,,,,,,,,,,,,,,,,,,,,,,,685.2457495390004,688.2291351850004,,,,,,,,,,,,,,,,,,,,,,,,,,,,,,,,,,,,,,,,,,,,,,,,,,,,,,,,,,,,,,,,,,,,072821,1,3,0,3,1,1,2,0,54,2021_Jul_28_1612,listening_fmri,3.2.4,59.98155555173552,
3,parcelated_audio/14/14_29.ogg,,,,,,,,,0,0,0,0,0,3,3,3,0,0,0,0,,,,,,,,,0,0,0,0,0,28,28,28,,,,,,,,,,,,,,,,,,,,,,,,,,,,,,,,,,,,,,,,,,,,,,,,688.229488424,690.5994531320002,,,,,,,,,,,,,,,,,,,,,,,,,,,,,,,,,,,,,,,,,,,,,,,,,,,,,,,,,,,,,,,,,,,,072821,1,3,0,3,1,1,2,0,54,2021_Jul_28_1612,listening_fmri,3.2.4,59.98155555173552,
3,parcelated_audio/14/14_30.ogg,,,,,,,,,0,0,0,0,0,3,3,3,0,0,0,0,,,,,,,,,0,0,0,0,0,29,29,29,,,,,,,,,,,,,,,,,,,,,,,,,,,,,,,,,,,,,,,,,,,,,,,,690.6008263600002,694.8628968840003,,,,,,,,,,,,,,,,,,,,,,,,,,,,,,,,,,,,,,,,,,,,,,,,,,,,,,,,,,,,,,,,,,,,072821,1,3,0,3,1,1,2,0,54,2021_Jul_28_1612,listening_fmri,3.2.4,59.98155555173552,
3,parcelated_audio/14/14_31.ogg,,,,,,,,,0,0,0,0,0,3,3,3,0,0,0,0,,,,,,,,,0,0,0,0,0,30,30,30,,,,,,,,,,,,,,,,,,,,,,,,,,,,,,,,,,,,,,,,,,,,,,,,694.8638363530004,702.2288038230004,,,,,,,,,,,,,,,,,,,,,,,,,,,,,,,,,,,,,,,,,,,,,,,,,,,,,,,,,,,,,,,,,,,,072821,1,3,0,3,1,1,2,0,54,2021_Jul_28_1612,listening_fmri,3.2.4,59.98155555173552,
3,parcelated_audio/14/14_32.ogg,,,,,,,,,0,0,0,0,0,3,3,3,0,0,0,0,,,,,,,,,0,0,0,0,0,31,31,31,,,,,,,,,,,,,,,,,,,,,,,,,,,,,,,,,,,,,,,,,,,,,,,,702.2291560580002,709.3807300960002,,,,,,,,,,,,,,,,,,,,,,,,,,,,,,,,,,,,,,,,,,,,,,,,,,,,,,,,,,,,,,,,,,,,072821,1,3,0,3,1,1,2,0,54,2021_Jul_28_1612,listening_fmri,3.2.4,59.98155555173552,
3,parcelated_audio/14/14_33.ogg,,,,,,,,,0,0,0,0,0,3,3,3,0,0,0,0,,,,,,,,,0,0,0,0,0,32,32,32,,,,,,,,,,,,,,,,,,,,,,,,,,,,,,,,,,,,,,,,,,,,,,,,709.3810846290003,715.9368345540001,,,,,,,,,,,,,,,,,,,,,,,,,,,,,,,,,,,,,,,,,,,,,,,,,,,,,,,,,,,,,,,,,,,,072821,1,3,0,3,1,1,2,0,54,2021_Jul_28_1612,listening_fmri,3.2.4,59.98155555173552,
3,,,,,,,,,,0,0,0,0,0,3,3,3,0,0,0,0,,,,,,,,,0,0,0,0,,,,,,,,,,,,,,,,,,,,,,,,,,,,,,,,,,,,,,,,,,,,,,,,,,,,,,,,,,,,,,,,,,,,,,,,,,,,,,,,,,,,,,,,,,,,,,,,,,,,,,,,,,,,,,,,,,,,,,,,,072821,1,3,0,3,1,1,2,0,54,2021_Jul_28_1612,listening_fmri,3.2.4,59.98155555173552,
3,,,,,,,,,,0,0,0,0,0,3,3,3,0,0,0,0,,,,,,,,,,,,,,,,,,,,,,,,,,,,,,,,,,,,,,,,,,715.9373297510001,721.9249546420001,751.7394844230002,None,,,,,,,,,,,,,,,,,,,,,757.7321371560001,None,757.7321371560001,None,,,,,,,,,,,,,,,,,,,,,,,,,,,,,,,,,,,,,,,,,,,,,,,,,,,,,,,,,,,,,,,,072821,1,3,0,3,1,1,2,0,54,2021_Jul_28_1612,listening_fmri,3.2.4,59.98155555173552,
3,,,,,,,,,,0,0,0,0,0,3,3,3,,,,,,,,,,,,,,,,,,,,,,,,,,,,,,,,,,,,,,,,,,,,,,,,,,,,,,,,,,,,,,,,,,,,,,,,,,,,,,,,,,,,,,,,,,,,,,,,,,,,,,,,,,,,,,,,,,,,,,,,,,,,,,,,,,,,,,,,,072821,1,3,0,3,1,1,2,0,54,2021_Jul_28_1612,listening_fmri,3.2.4,59.98155555173552,
4,,,,,,,,,,0,0,0,0,0,4,4,4,0,0,0,0,0,0,0,0,,,,,,,,,,,,,,,,,0,0,0,0,,,,,,,,,,,,,,,,,,,,,,758.7563796310001,None,758.7563796310001,None,5,0.025452479999785282,758.7563796310001,None,758.7563796310001,None,,,,,,,,,,,,,,,758.8154090880003,None,5,0.9664981880000596,758.8154090880003,None,758.8154090880003,None,759.8235635170004,None,759.8235635170004,None,759.8235635170004,None,5,0.9583680539999477,759.8235635170004,None,760.806197639,None,5,0.9756821430000855,760.806197639,None,760.806197639,None,761.8888511120003,None,761.8888511120003,None,761.8888511120003,None,761.8888511120003,None,761.8888511120003,None,761.8888511120003,None,761.8888511120003,None,None,761.8888511120003,None,,,,,,,,,,,,,,,,,,,,,072821,1,3,0,3,1,1,2,0,54,2021_Jul_28_1612,listening_fmri,3.2.4,59.98155555173552,
4,,,,,,,,,,0,0,0,0,0,4,4,4,0,0,0,0,0,0,0,0,,,,,,,,,,,,,,,,,1,0,1,0,,,,,,,,,,,,,,,,,,,,,,,,,,,,,,,,,,,,,,,,,,,,,,,,,,,,,,780.348909977,None,780.348909977,None,780.348909977,None,5,0.4330737999998746,780.348909977,None,780.7988288750003,None,5,0.9830161119998593,780.7988288750003,None,780.7988288750003,None,781.8729021570002,None,781.8729021570002,None,781.8729021570002,None,781.8729021570002,None,781.8729021570002,None,781.8729021570002,None,781.8729021570002,None,None,781.8729021570002,None,,,,,,,,,,,,,,,,,,,,,072821,1,3,0,3,1,1,2,0,54,2021_Jul_28_1612,listening_fmri,3.2.4,59.98155555173552,
4,,,,,,,,,,0,0,0,0,0,4,4,4,0,0,0,0,0,0,0,0,,,,,,,,,,,,,,,,,2,0,2,0,,,,,,,,,,,,,,,,,,,,,,,,,,,,,,,,,,,,,,,,,,,,,,,,,,,,,,790.7052152200004,None,790.7052152200004,None,790.7052152200004,None,5,0.07673214400028883,790.7052152200004,None,790.7992003940003,None,5,0.9827675340002315,790.7992003940003,None,790.7992003940003,None,791.889430836,None,791.889430836,None,791.889430836,None,791.889430836,None,791.889430836,None,791.889430836,None,791.889430836,None,None,791.889430836,None,,,,,,,,,,,,,,,,,,,,,072821,1,3,0,3,1,1,2,0,54,2021_Jul_28_1612,listening_fmri,3.2.4,59.98155555173552,
4,,,,,,,,,,0,0,0,0,0,4,4,4,0,0,0,0,0,0,0,0,,,,,,,,,,,,,,,,,,,,,,,,,,,,,,,,,,,,,,,,,,,,,,,,,,,,,,,,,,,,,,,,,,,,,,,,,,,,,,,,,,,,,,,,,,,,,,,,,,,,,,,,,,,,,807.665013583,None,5,0.11601669699984996,807.665013583,None,807.665013583,None,807.8392186650003,None,807.8392186650003,None,807.8392186650003,None,5,0.9416545109997969,807.8392186650003,None,,,072821,1,3,0,3,1,1,2,0,54,2021_Jul_28_1612,listening_fmri,3.2.4,59.98155555173552,
4,parcelated_audio/23/23_1.ogg,,,,,,,,,0,0,0,0,0,4,4,4,0,0,0,0,,,,,,,,,0,0,0,0,0,0,0,0,,,,,,,,,,,,,,,,,,,,,,,,,,,,,,,,,,,,,,,,808.7985659340002,None,5,0.9824601830000574,808.7985659340002,None,774.0149468310001,777.0168679010003,777.0252217760003,787.4237841630002,,,,,,,,,,,,,,,,,,,,,,,,,,,,,,,,,,,,,,,,,,,,,,,,,,,,,,,,,,,,,,,,,,,,072821,1,3,0,3,1,1,2,0,54,2021_Jul_28_1612,listening_fmri,3.2.4,59.98155555173552,
4,parcelated_audio/23/23_2.ogg,,,,,,,,,0,0,0,0,0,4,4,4,0,0,0,0,,,,,,,,,0,0,0,0,0,1,1,1,,,,,,,,,,,,,,,,,,,,,,,,,,,,,,,,,,,,,,,,,,,,,,,,787.4241386600002,794.3018550700003,,,,,,,,,,,,,,,,,,,,,,,,,,,,,,,,,,,,,,,,,,,,,,,,,,,,,,,,,,,,,,,,,,,,072821,1,3,0,3,1,1,2,0,54,2021_Jul_28_1612,listening_fmri,3.2.4,59.98155555173552,
4,parcelated_audio/23/23_3.ogg,,,,,,,,,0,0,0,0,0,4,4,4,0,0,0,0,,,,,,,,,0,0,0,0,0,2,2,2,,,,,,,,,,,,,,,,,,,,,,,,,,,,,,,,,,,,,,,,,,,,,,,,794.3022038010004,800.0692392810001,,,,,,,,,,,,,,,,,,,,,,,,,,,,,,,,,,,,,,,,,,,,,,,,,,,,,,,,,,,,,,,,,,,,072821,1,3,0,3,1,1,2,0,54,2021_Jul_28_1612,listening_fmri,3.2.4,59.98155555173552,
4,parcelated_audio/23/23_4.ogg,,,,,,,,,0,0,0,0,0,4,4,4,0,0,0,0,,,,,,,,,0,0,0,0,0,3,3,3,,,,,,,,,,,,,,,,,,,,,,,,,,,,,,,,,,,,,,,,,,,,,,,,800.0700367960003,811.3546897210003,,,,,,,,,,,,,,,,,,,,,,,,,,,,,,,,,,,,,,,,,,,,,,,,,,,,,,,,,,,,,,,,,,,,072821,1,3,0,3,1,1,2,0,54,2021_Jul_28_1612,listening_fmri,3.2.4,59.98155555173552,
4,parcelated_audio/23/23_5.ogg,,,,,,,,,0,0,0,0,0,4,4,4,0,0,0,0,,,,,,,,,0,0,0,0,0,4,4,4,,,,,,,,,,,,,,,,,,,,,,,,,,,,,,,,,,,,,,,,,,,,,,,,811.3550418590003,817.569962088,,,,,,,,,,,,,,,,,,,,,,,,,,,,,,,,,,,,,,,,,,,,,,,,,,,,,,,,,,,,,,,,,,,,072821,1,3,0,3,1,1,2,0,54,2021_Jul_28_1612,listening_fmri,3.2.4,59.98155555173552,
4,parcelated_audio/23/23_6.ogg,,,,,,,,,0,0,0,0,0,4,4,4,0,0,0,0,,,,,,,,,0,0,0,0,0,5,5,5,,,,,,,,,,,,,,,,,,,,,,,,,,,,,,,,,,,,,,,,,,,,,,,,817.5708983280001,824.9702898830001,,,,,,,,,,,,,,,,,,,,,,,,,,,,,,,,,,,,,,,,,,,,,,,,,,,,,,,,,,,,,,,,,,,,072821,1,3,0,3,1,1,2,0,54,2021_Jul_28_1612,listening_fmri,3.2.4,59.98155555173552,
4,parcelated_audio/23/23_7.ogg,,,,,,,,,0,0,0,0,0,4,4,4,0,0,0,0,,,,,,,,,0,0,0,0,0,6,6,6,,,,,,,,,,,,,,,,,,,,,,,,,,,,,,,,,,,,,,,,,,,,,,,,824.9706563310001,831.7238664450001,,,,,,,,,,,,,,,,,,,,,,,,,,,,,,,,,,,,,,,,,,,,,,,,,,,,,,,,,,,,,,,,,,,,072821,1,3,0,3,1,1,2,0,54,2021_Jul_28_1612,listening_fmri,3.2.4,59.98155555173552,
4,parcelated_audio/23/23_8.ogg,,,,,,,,,0,0,0,0,0,4,4,4,0,0,0,0,,,,,,,,,0,0,0,0,0,7,7,7,,,,,,,,,,,,,,,,,,,,,,,,,,,,,,,,,,,,,,,,,,,,,,,,831.724288933,837.1381354590003,,,,,,,,,,,,,,,,,,,,,,,,,,,,,,,,,,,,,,,,,,,,,,,,,,,,,,,,,,,,,,,,,,,,072821,1,3,0,3,1,1,2,0,54,2021_Jul_28_1612,listening_fmri,3.2.4,59.98155555173552,
4,parcelated_audio/23/23_9.ogg,,,,,,,,,0,0,0,0,0,4,4,4,0,0,0,0,,,,,,,,,0,0,0,0,0,8,8,8,,,,,,,,,,,,,,,,,,,,,,,,,,,,,,,,,,,,,,,,,,,,,,,,837.1387454200003,841.522359605,,,,,,,,,,,,,,,,,,,,,,,,,,,,,,,,,,,,,,,,,,,,,,,,,,,,,,,,,,,,,,,,,,,,072821,1,3,0,3,1,1,2,0,54,2021_Jul_28_1612,listening_fmri,3.2.4,59.98155555173552,
4,parcelated_audio/23/23_10.ogg,,,,,,,,,0,0,0,0,0,4,4,4,0,0,0,0,,,,,,,,,0,0,0,0,0,9,9,9,,,,,,,,,,,,,,,,,,,,,,,,,,,,,,,,,,,,,,,,,,,,,,,,841.5227296570001,845.4728643550002,,,,,,,,,,,,,,,,,,,,,,,,,,,,,,,,,,,,,,,,,,,,,,,,,,,,,,,,,,,,,,,,,,,,072821,1,3,0,3,1,1,2,0,54,2021_Jul_28_1612,listening_fmri,3.2.4,59.98155555173552,
4,parcelated_audio/23/23_11.ogg,,,,,,,,,0,0,0,0,0,4,4,4,0,0,0,0,,,,,,,,,0,0,0,0,0,10,10,10,,,,,,,,,,,,,,,,,,,,,,,,,,,,,,,,,,,,,,,,,,,,,,,,845.4732160610001,853.6005586780002,,,,,,,,,,,,,,,,,,,,,,,,,,,,,,,,,,,,,,,,,,,,,,,,,,,,,,,,,,,,,,,,,,,,072821,1,3,0,3,1,1,2,0,54,2021_Jul_28_1612,listening_fmri,3.2.4,59.98155555173552,
4,parcelated_audio/23/23_12.ogg,,,,,,,,,0,0,0,0,0,4,4,4,0,0,0,0,,,,,,,,,0,0,0,0,0,11,11,11,,,,,,,,,,,,,,,,,,,,,,,,,,,,,,,,,,,,,,,,,,,,,,,,853.6009049670001,860.7542422460001,,,,,,,,,,,,,,,,,,,,,,,,,,,,,,,,,,,,,,,,,,,,,,,,,,,,,,,,,,,,,,,,,,,,072821,1,3,0,3,1,1,2,0,54,2021_Jul_28_1612,listening_fmri,3.2.4,59.98155555173552,
4,parcelated_audio/23/23_13.ogg,,,,,,,,,0,0,0,0,0,4,4,4,0,0,0,0,,,,,,,,,0,0,0,0,0,12,12,12,,,,,,,,,,,,,,,,,,,,,,,,,,,,,,,,,,,,,,,,,,,,,,,,860.7545521360003,867.5394630810001,,,,,,,,,,,,,,,,,,,,,,,,,,,,,,,,,,,,,,,,,,,,,,,,,,,,,,,,,,,,,,,,,,,,072821,1,3,0,3,1,1,2,0,54,2021_Jul_28_1612,listening_fmri,3.2.4,59.98155555173552,
4,parcelated_audio/23/23_14.ogg,,,,,,,,,0,0,0,0,0,4,4,4,0,0,0,0,,,,,,,,,0,0,0,0,0,13,13,13,,,,,,,,,,,,,,,,,,,,,,,,,,,,,,,,,,,,,,,,,,,,,,,,867.5399177710001,871.9466834020004,,,,,,,,,,,,,,,,,,,,,,,,,,,,,,,,,,,,,,,,,,,,,,,,,,,,,,,,,,,,,,,,,,,,072821,1,3,0,3,1,1,2,0,54,2021_Jul_28_1612,listening_fmri,3.2.4,59.98155555173552,
4,parcelated_audio/23/23_15.ogg,,,,,,,,,0,0,0,0,0,4,4,4,0,0,0,0,,,,,,,,,0,0,0,0,0,14,14,14,,,,,,,,,,,,,,,,,,,,,,,,,,,,,,,,,,,,,,,,,,,,,,,,871.9470420560001,876.3627305980003,,,,,,,,,,,,,,,,,,,,,,,,,,,,,,,,,,,,,,,,,,,,,,,,,,,,,,,,,,,,,,,,,,,,072821,1,3,0,3,1,1,2,0,54,2021_Jul_28_1612,listening_fmri,3.2.4,59.98155555173552,
4,parcelated_audio/23/23_16.ogg,,,,,,,,,0,0,0,0,0,4,4,4,0,0,0,0,,,,,,,,,0,0,0,0,0,15,15,15,,,,,,,,,,,,,,,,,,,,,,,,,,,,,,,,,,,,,,,,,,,,,,,,876.3630937730004,882.9368906430004,,,,,,,,,,,,,,,,,,,,,,,,,,,,,,,,,,,,,,,,,,,,,,,,,,,,,,,,,,,,,,,,,,,,072821,1,3,0,3,1,1,2,0,54,2021_Jul_28_1612,listening_fmri,3.2.4,59.98155555173552,
4,parcelated_audio/23/23_17.ogg,,,,,,,,,0,0,0,0,0,4,4,4,0,0,0,0,,,,,,,,,0,0,0,0,0,16,16,16,,,,,,,,,,,,,,,,,,,,,,,,,,,,,,,,,,,,,,,,,,,,,,,,882.9373414430002,889.6731279150004,,,,,,,,,,,,,,,,,,,,,,,,,,,,,,,,,,,,,,,,,,,,,,,,,,,,,,,,,,,,,,,,,,,,072821,1,3,0,3,1,1,2,0,54,2021_Jul_28_1612,listening_fmri,3.2.4,59.98155555173552,
4,parcelated_audio/23/23_18.ogg,,,,,,,,,0,0,0,0,0,4,4,4,0,0,0,0,,,,,,,,,0,0,0,0,0,17,17,17,,,,,,,,,,,,,,,,,,,,,,,,,,,,,,,,,,,,,,,,,,,,,,,,889.673494396,901.6608640130003,,,,,,,,,,,,,,,,,,,,,,,,,,,,,,,,,,,,,,,,,,,,,,,,,,,,,,,,,,,,,,,,,,,,072821,1,3,0,3,1,1,2,0,54,2021_Jul_28_1612,listening_fmri,3.2.4,59.98155555173552,
4,parcelated_audio/23/23_19.ogg,,,,,,,,,0,0,0,0,0,4,4,4,0,0,0,0,,,,,,,,,0,0,0,0,0,18,18,18,,,,,,,,,,,,,,,,,,,,,,,,,,,,,,,,,,,,,,,,,,,,,,,,901.6612129210002,907.4207748030003,,,,,,,,,,,,,,,,,,,,,,,,,,,,,,,,,,,,,,,,,,,,,,,,,,,,,,,,,,,,,,,,,,,,072821,1,3,0,3,1,1,2,0,54,2021_Jul_28_1612,listening_fmri,3.2.4,59.98155555173552,
4,parcelated_audio/23/23_20.ogg,,,,,,,,,0,0,0,0,0,4,4,4,0,0,0,0,,,,,,,,,0,0,0,0,0,19,19,19,,,,,,,,,,,,,,,,,,,,,,,,,,,,,,,,,,,,,,,,,,,,,,,,907.4213676910003,910.2941042670004,,,,,,,,,,,,,,,,,,,,,,,,,,,,,,,,,,,,,,,,,,,,,,,,,,,,,,,,,,,,,,,,,,,,072821,1,3,0,3,1,1,2,0,54,2021_Jul_28_1612,listening_fmri,3.2.4,59.98155555173552,
4,parcelated_audio/23/23_21.ogg,,,,,,,,,0,0,0,0,0,4,4,4,0,0,0,0,,,,,,,,,0,0,0,0,0,20,20,20,,,,,,,,,,,,,,,,,,,,,,,,,,,,,,,,,,,,,,,,,,,,,,,,910.2943798360002,917.9563093490001,,,,,,,,,,,,,,,,,,,,,,,,,,,,,,,,,,,,,,,,,,,,,,,,,,,,,,,,,,,,,,,,,,,,072821,1,3,0,3,1,1,2,0,54,2021_Jul_28_1612,listening_fmri,3.2.4,59.98155555173552,
4,parcelated_audio/23/23_22.ogg,,,,,,,,,0,0,0,0,0,4,4,4,0,0,0,0,,,,,,,,,0,0,0,0,0,21,21,21,,,,,,,,,,,,,,,,,,,,,,,,,,,,,,,,,,,,,,,,,,,,,,,,917.9566566900003,920.6127306980002,,,,,,,,,,,,,,,,,,,,,,,,,,,,,,,,,,,,,,,,,,,,,,,,,,,,,,,,,,,,,,,,,,,,072821,1,3,0,3,1,1,2,0,54,2021_Jul_28_1612,listening_fmri,3.2.4,59.98155555173552,
4,parcelated_audio/23/23_23.ogg,,,,,,,,,0,0,0,0,0,4,4,4,0,0,0,0,,,,,,,,,0,0,0,0,0,22,22,22,,,,,,,,,,,,,,,,,,,,,,,,,,,,,,,,,,,,,,,,,,,,,,,,920.6130504380003,924.7778922820003,,,,,,,,,,,,,,,,,,,,,,,,,,,,,,,,,,,,,,,,,,,,,,,,,,,,,,,,,,,,,,,,,,,,072821,1,3,0,3,1,1,2,0,54,2021_Jul_28_1612,listening_fmri,3.2.4,59.98155555173552,
4,parcelated_audio/23/23_24.ogg,,,,,,,,,0,0,0,0,0,4,4,4,0,0,0,0,,,,,,,,,0,0,0,0,0,23,23,23,,,,,,,,,,,,,,,,,,,,,,,,,,,,,,,,,,,,,,,,,,,,,,,,924.7782528890002,928.234463964,,,,,,,,,,,,,,,,,,,,,,,,,,,,,,,,,,,,,,,,,,,,,,,,,,,,,,,,,,,,,,,,,,,,072821,1,3,0,3,1,1,2,0,54,2021_Jul_28_1612,listening_fmri,3.2.4,59.98155555173552,
4,parcelated_audio/23/23_25.ogg,,,,,,,,,0,0,0,0,0,4,4,4,0,0,0,0,,,,,,,,,0,0,0,0,0,24,24,24,,,,,,,,,,,,,,,,,,,,,,,,,,,,,,,,,,,,,,,,,,,,,,,,928.2348440590004,932.3787409230004,,,,,,,,,,,,,,,,,,,,,,,,,,,,,,,,,,,,,,,,,,,,,,,,,,,,,,,,,,,,,,,,,,,,072821,1,3,0,3,1,1,2,0,54,2021_Jul_28_1612,listening_fmri,3.2.4,59.98155555173552,
4,parcelated_audio/23/23_26.ogg,,,,,,,,,0,0,0,0,0,4,4,4,0,0,0,0,,,,,,,,,0,0,0,0,0,25,25,25,,,,,,,,,,,,,,,,,,,,,,,,,,,,,,,,,,,,,,,,,,,,,,,,932.3790932520001,938.6076829840003,,,,,,,,,,,,,,,,,,,,,,,,,,,,,,,,,,,,,,,,,,,,,,,,,,,,,,,,,,,,,,,,,,,,072821,1,3,0,3,1,1,2,0,54,2021_Jul_28_1612,listening_fmri,3.2.4,59.98155555173552,
4,parcelated_audio/23/23_27.ogg,,,,,,,,,0,0,0,0,0,4,4,4,0,0,0,0,,,,,,,,,0,0,0,0,0,26,26,26,,,,,,,,,,,,,,,,,,,,,,,,,,,,,,,,,,,,,,,,,,,,,,,,938.6080615650003,943.8717733870003,,,,,,,,,,,,,,,,,,,,,,,,,,,,,,,,,,,,,,,,,,,,,,,,,,,,,,,,,,,,,,,,,,,,072821,1,3,0,3,1,1,2,0,54,2021_Jul_28_1612,listening_fmri,3.2.4,59.98155555173552,
4,parcelated_audio/23/23_28.ogg,,,,,,,,,0,0,0,0,0,4,4,4,0,0,0,0,,,,,,,,,0,0,0,0,0,27,27,27,,,,,,,,,,,,,,,,,,,,,,,,,,,,,,,,,,,,,,,,,,,,,,,,943.8748486230002,951.8372664200001,,,,,,,,,,,,,,,,,,,,,,,,,,,,,,,,,,,,,,,,,,,,,,,,,,,,,,,,,,,,,,,,,,,,072821,1,3,0,3,1,1,2,0,54,2021_Jul_28_1612,listening_fmri,3.2.4,59.98155555173552,
4,parcelated_audio/23/23_29.ogg,,,,,,,,,0,0,0,0,0,4,4,4,0,0,0,0,,,,,,,,,0,0,0,0,0,28,28,28,,,,,,,,,,,,,,,,,,,,,,,,,,,,,,,,,,,,,,,,,,,,,,,,951.837678585,955.6003455180003,,,,,,,,,,,,,,,,,,,,,,,,,,,,,,,,,,,,,,,,,,,,,,,,,,,,,,,,,,,,,,,,,,,,072821,1,3,0,3,1,1,2,0,54,2021_Jul_28_1612,listening_fmri,3.2.4,59.98155555173552,
4,parcelated_audio/23/23_30.ogg,,,,,,,,,0,0,0,0,0,4,4,4,0,0,0,0,,,,,,,,,0,0,0,0,0,29,29,29,,,,,,,,,,,,,,,,,,,,,,,,,,,,,,,,,,,,,,,,,,,,,,,,955.601400043,961.509918792,,,,,,,,,,,,,,,,,,,,,,,,,,,,,,,,,,,,,,,,,,,,,,,,,,,,,,,,,,,,,,,,,,,,072821,1,3,0,3,1,1,2,0,54,2021_Jul_28_1612,listening_fmri,3.2.4,59.98155555173552,
4,parcelated_audio/23/23_31.ogg,,,,,,,,,0,0,0,0,0,4,4,4,0,0,0,0,,,,,,,,,0,0,0,0,0,30,30,30,,,,,,,,,,,,,,,,,,,,,,,,,,,,,,,,,,,,,,,,,,,,,,,,961.5101985190004,963.5179509720001,,,,,,,,,,,,,,,,,,,,,,,,,,,,,,,,,,,,,,,,,,,,,,,,,,,,,,,,,,,,,,,,,,,,072821,1,3,0,3,1,1,2,0,54,2021_Jul_28_1612,listening_fmri,3.2.4,59.98155555173552,
4,parcelated_audio/23/23_32.ogg,,,,,,,,,0,0,0,0,0,4,4,4,0,0,0,0,,,,,,,,,0,0,0,0,0,31,31,31,,,,,,,,,,,,,,,,,,,,,,,,,,,,,,,,,,,,,,,,,,,,,,,,963.5183072310001,967.1197874140003,,,,,,,,,,,,,,,,,,,,,,,,,,,,,,,,,,,,,,,,,,,,,,,,,,,,,,,,,,,,,,,,,,,,072821,1,3,0,3,1,1,2,0,54,2021_Jul_28_1612,listening_fmri,3.2.4,59.98155555173552,
4,parcelated_audio/23/23_33.ogg,,,,,,,,,0,0,0,0,0,4,4,4,0,0,0,0,,,,,,,,,0,0,0,0,0,32,32,32,,,,,,,,,,,,,,,,,,,,,,,,,,,,,,,,,,,,,,,,,,,,,,,,967.1206124570003,973.1619520180002,,,,,,,,,,,,,,,,,,,,,,,,,,,,,,,,,,,,,,,,,,,,,,,,,,,,,,,,,,,,,,,,,,,,072821,1,3,0,3,1,1,2,0,54,2021_Jul_28_1612,listening_fmri,3.2.4,59.98155555173552,
4,parcelated_audio/23/23_34.ogg,,,,,,,,,0,0,0,0,0,4,4,4,0,0,0,0,,,,,,,,,0,0,0,0,0,33,33,33,,,,,,,,,,,,,,,,,,,,,,,,,,,,,,,,,,,,,,,,,,,,,,,,973.1623091210004,976.7063651140002,,,,,,,,,,,,,,,,,,,,,,,,,,,,,,,,,,,,,,,,,,,,,,,,,,,,,,,,,,,,,,,,,,,,072821,1,3,0,3,1,1,2,0,54,2021_Jul_28_1612,listening_fmri,3.2.4,59.98155555173552,
4,parcelated_audio/23/23_35.ogg,,,,,,,,,0,0,0,0,0,4,4,4,0,0,0,0,,,,,,,,,0,0,0,0,0,34,34,34,,,,,,,,,,,,,,,,,,,,,,,,,,,,,,,,,,,,,,,,,,,,,,,,976.7066195270004,980.9992401560003,,,,,,,,,,,,,,,,,,,,,,,,,,,,,,,,,,,,,,,,,,,,,,,,,,,,,,,,,,,,,,,,,,,,072821,1,3,0,3,1,1,2,0,54,2021_Jul_28_1612,listening_fmri,3.2.4,59.98155555173552,
4,parcelated_audio/23/23_36.ogg,,,,,,,,,0,0,0,0,0,4,4,4,0,0,0,0,,,,,,,,,0,0,0,0,0,35,35,35,,,,,,,,,,,,,,,,,,,,,,,,,,,,,,,,,,,,,,,,,,,,,,,,980.9995162,985.6131500800002,,,,,,,,,,,,,,,,,,,,,,,,,,,,,,,,,,,,,,,,,,,,,,,,,,,,,,,,,,,,,,,,,,,,072821,1,3,0,3,1,1,2,0,54,2021_Jul_28_1612,listening_fmri,3.2.4,59.98155555173552,
4,parcelated_audio/23/23_37.ogg,,,,,,,,,0,0,0,0,0,4,4,4,0,0,0,0,,,,,,,,,0,0,0,0,0,36,36,36,,,,,,,,,,,,,,,,,,,,,,,,,,,,,,,,,,,,,,,,,,,,,,,,985.6135392860001,990.4053825880001,,,,,,,,,,,,,,,,,,,,,,,,,,,,,,,,,,,,,,,,,,,,,,,,,,,,,,,,,,,,,,,,,,,,072821,1,3,0,3,1,1,2,0,54,2021_Jul_28_1612,listening_fmri,3.2.4,59.98155555173552,
4,parcelated_audio/23/23_38.ogg,,,,,,,,,0,0,0,0,0,4,4,4,0,0,0,0,,,,,,,,,0,0,0,0,0,37,37,37,,,,,,,,,,,,,,,,,,,,,,,,,,,,,,,,,,,,,,,,,,,,,,,,990.4057355520004,997.8958545720002,,,,,,,,,,,,,,,,,,,,,,,,,,,,,,,,,,,,,,,,,,,,,,,,,,,,,,,,,,,,,,,,,,,,072821,1,3,0,3,1,1,2,0,54,2021_Jul_28_1612,listening_fmri,3.2.4,59.98155555173552,
4,parcelated_audio/23/23_39.ogg,,,,,,,,,0,0,0,0,0,4,4,4,0,0,0,0,,,,,,,,,0,0,0,0,0,38,38,38,,,,,,,,,,,,,,,,,,,,,,,,,,,,,,,,,,,,,,,,,,,,,,,,997.8962136700002,1004.1792837050002,,,,,,,,,,,,,,,,,,,,,,,,,,,,,,,,,,,,,,,,,,,,,,,,,,,,,,,,,,,,,,,,,,,,072821,1,3,0,3,1,1,2,0,54,2021_Jul_28_1612,listening_fmri,3.2.4,59.98155555173552,
4,,,,,,,,,,0,0,0,0,0,4,4,4,0,0,0,0,,,,,,,,,0,0,0,0,,,,,,,,,,,,,,,,,,,,,,,,,,,,,,,,,,,,,,,,,,,,,,,,,,,,,,,,,,,,,,,,,,,,,,,,,,,,,,,,,,,,,,,,,,,,,,,,,,,,,,,,,,,,,,,,,,,,,,,,,072821,1,3,0,3,1,1,2,0,54,2021_Jul_28_1612,listening_fmri,3.2.4,59.98155555173552,
4,,,,,,,,,,0,0,0,0,0,4,4,4,0,0,0,0,,,,,,,,,,,,,,,,,,,,,,,,,,,,,,,,,,,,,,,,,,1004.1796820560003,1010.1677308470003,1039.9819214210002,None,,,,,,,,,,,,,,,,,,,,,1045.982851788,None,1045.982851788,None,,,,,,,,,,,,,,,,,,,,,,,,,,,,,,,,,,,,,,,,,,,,,,,,,,,,,,,,,,,,,,,,072821,1,3,0,3,1,1,2,0,54,2021_Jul_28_1612,listening_fmri,3.2.4,59.98155555173552,
4,,,,,,,,,,0,0,0,0,0,4,4,4,,,,,,,,,,,,,,,,,,,,,,,,,,,,,,,,,,,,,,,,,,,,,,,,,,,,,,,,,,,,,,,,,,,,,,,,,,,,,,,,,,,,,,,,,,,,,,,,,,,,,,,,,,,,,,,,,,,,,,,,,,,,,,,,,,,,,,,,,072821,1,3,0,3,1,1,2,0,54,2021_Jul_28_1612,listening_fmri,3.2.4,59.98155555173552,
5,parcelated_audio/12/12_1.ogg,,,,,,,,,0,0,0,0,0,5,5,5,0,0,0,0,,,,,,,,,0,0,0,0,0,0,0,0,,,,,,,,,,,,,,,,,,,,,,,,,,,,,,1047.015629637,None,1047.015629637,None,5,0.7634190979997584,1047.015629637,None,1047.015629637,None,1047.7997581250002,None,3,0.10625906699988263,1047.7997581250002,None,1012.1276500620002,1015.1344141110003,1015.1425087340003,1024.99089597,,,,,,,,,,,,,,,,,,,,,,,,,,,,,,,,,,,,,,,,,,,,,,,,,,,,,,,,,,,,,,,,,,,,072821,1,3,0,3,1,1,2,0,54,2021_Jul_28_1612,listening_fmri,3.2.4,59.98155555173552,
5,parcelated_audio/12/12_2.ogg,,,,,,,,,0,0,0,0,0,5,5,5,0,0,0,0,,,,,,,,,0,0,0,0,0,1,1,1,,,,,,,,,,,,,,,,,,,,,,,,,,,,,,,,,,,,,,,,,,,,,,,,1024.9915956640002,1032.8228276930004,,,,,,,,,,,,,,,,,,,,,,,,,,,,,,,,,,,,,,,,,,,,,,,,,,,,,,,,,,,,,,,,,,,,072821,1,3,0,3,1,1,2,0,54,2021_Jul_28_1612,listening_fmri,3.2.4,59.98155555173552,
5,parcelated_audio/12/12_3.ogg,,,,,,,,,0,0,0,0,0,5,5,5,0,0,0,0,,,,,,,,,0,0,0,0,0,2,2,2,,,,,,,,,,,,,,,,,,,,,,,,,,,,,,,,,,,,,,,,,,,,,,,,1032.823852298,1040.166913173,,,,,,,,,,,,,,,,,,,,,,,,,,,,,,,,,,,,,,,,,,,,,,,,,,,,,,,,,,,,,,,,,,,,072821,1,3,0,3,1,1,2,0,54,2021_Jul_28_1612,listening_fmri,3.2.4,59.98155555173552,
5,parcelated_audio/12/12_4.ogg,,,,,,,,,0,0,0,0,0,5,5,5,0,0,0,0,,,,,,,,,0,0,0,0,0,3,3,3,,,,,,,,,,,,,,,,,,,,,,,,,,,,,,,,,,,,,,,,,,,,,,,,1040.1672722990002,1046.7374729390003,,,,,,,,,,,,,,,,,,,,,,,,,,,,,,,,,,,,,,,,,,,,,,,,,,,,,,,,,,,,,,,,,,,,072821,1,3,0,3,1,1,2,0,54,2021_Jul_28_1612,listening_fmri,3.2.4,59.98155555173552,
5,parcelated_audio/12/12_5.ogg,,,,,,,,,0,0,0,0,0,5,5,5,0,0,0,0,,,,,,,,,0,0,0,0,0,4,4,4,,,,,,,,,,,,,,,,,,,,,,,,,,,,,,,,,,,,,,,,,,,,,,,,1046.7378468600004,1054.690489523,,,,,,,,,,,,,,,,,,,,,,,,,,,,,,,,,,,,,,,,,,,,,,,,,,,,,,,,,,,,,,,,,,,,072821,1,3,0,3,1,1,2,0,54,2021_Jul_28_1612,listening_fmri,3.2.4,59.98155555173552,
5,parcelated_audio/12/12_6.ogg,,,,,,,,,0,0,0,0,0,5,5,5,0,0,0,0,,,,,,,,,0,0,0,0,0,5,5,5,,,,,,,,,,,,,,,,,,,,,,,,,,,,,,,,,,,,,,,,,,,,,,,,1054.690916258,1058.2947545820002,,,,,,,,,,,,,,,,,,,,,,,,,,,,,,,,,,,,,,,,,,,,,,,,,,,,,,,,,,,,,,,,,,,,072821,1,3,0,3,1,1,2,0,54,2021_Jul_28_1612,listening_fmri,3.2.4,59.98155555173552,
5,parcelated_audio/12/12_7.ogg,,,,,,,,,0,0,0,0,0,5,5,5,0,0,0,0,,,,,,,,,0,0,0,0,0,6,6,6,,,,,,,,,,,,,,,,,,,,,,,,,,,,,,,,,,,,,,,,,,,,,,,,1058.2951089390003,1068.6172598960002,,,,,,,,,,,,,,,,,,,,,,,,,,,,,,,,,,,,,,,,,,,,,,,,,,,,,,,,,,,,,,,,,,,,072821,1,3,0,3,1,1,2,0,54,2021_Jul_28_1612,listening_fmri,3.2.4,59.98155555173552,
5,parcelated_audio/12/12_8.ogg,,,,,,,,,0,0,0,0,0,5,5,5,0,0,0,0,,,,,,,,,0,0,0,0,0,7,7,7,,,,,,,,,,,,,,,,,,,,,,,,,,,,,,,,,,,,,,,,,,,,,,,,1068.6176867050003,1077.4157502040002,,,,,,,,,,,,,,,,,,,,,,,,,,,,,,,,,,,,,,,,,,,,,,,,,,,,,,,,,,,,,,,,,,,,072821,1,3,0,3,1,1,2,0,54,2021_Jul_28_1612,listening_fmri,3.2.4,59.98155555173552,
5,parcelated_audio/12/12_9.ogg,,,,,,,,,0,0,0,0,0,5,5,5,0,0,0,0,,,,,,,,,0,0,0,0,0,8,8,8,,,,,,,,,,,,,,,,,,,,,,,,,,,,,,,,,,,,,,,,,,,,,,,,1077.4160928850001,1081.2707639160003,,,,,,,,,,,,,,,,,,,,,,,,,,,,,,,,,,,,,,,,,,,,,,,,,,,,,,,,,,,,,,,,,,,,072821,1,3,0,3,1,1,2,0,54,2021_Jul_28_1612,listening_fmri,3.2.4,59.98155555173552,
5,parcelated_audio/12/12_10.ogg,,,,,,,,,0,0,0,0,0,5,5,5,0,0,0,0,,,,,,,,,0,0,0,0,0,9,9,9,,,,,,,,,,,,,,,,,,,,,,,,,,,,,,,,,,,,,,,,,,,,,,,,1081.2711190730001,1086.0691635300004,,,,,,,,,,,,,,,,,,,,,,,,,,,,,,,,,,,,,,,,,,,,,,,,,,,,,,,,,,,,,,,,,,,,072821,1,3,0,3,1,1,2,0,54,2021_Jul_28_1612,listening_fmri,3.2.4,59.98155555173552,
5,parcelated_audio/12/12_11.ogg,,,,,,,,,0,0,0,0,0,5,5,5,0,0,0,0,,,,,,,,,0,0,0,0,0,10,10,10,,,,,,,,,,,,,,,,,,,,,,,,,,,,,,,,,,,,,,,,,,,,,,,,1086.069523827,1088.948341577,,,,,,,,,,,,,,,,,,,,,,,,,,,,,,,,,,,,,,,,,,,,,,,,,,,,,,,,,,,,,,,,,,,,072821,1,3,0,3,1,1,2,0,54,2021_Jul_28_1612,listening_fmri,3.2.4,59.98155555173552,
5,parcelated_audio/12/12_12.ogg,,,,,,,,,0,0,0,0,0,5,5,5,0,0,0,0,,,,,,,,,0,0,0,0,0,11,11,11,,,,,,,,,,,,,,,,,,,,,,,,,,,,,,,,,,,,,,,,,,,,,,,,1088.9486952000002,1097.801386651,,,,,,,,,,,,,,,,,,,,,,,,,,,,,,,,,,,,,,,,,,,,,,,,,,,,,,,,,,,,,,,,,,,,072821,1,3,0,3,1,1,2,0,54,2021_Jul_28_1612,listening_fmri,3.2.4,59.98155555173552,
5,parcelated_audio/12/12_13.ogg,,,,,,,,,0,0,0,0,0,5,5,5,0,0,0,0,,,,,,,,,0,0,0,0,0,12,12,12,,,,,,,,,,,,,,,,,,,,,,,,,,,,,,,,,,,,,,,,,,,,,,,,1097.8017359660003,1103.0513683470003,,,,,,,,,,,,,,,,,,,,,,,,,,,,,,,,,,,,,,,,,,,,,,,,,,,,,,,,,,,,,,,,,,,,072821,1,3,0,3,1,1,2,0,54,2021_Jul_28_1612,listening_fmri,3.2.4,59.98155555173552,
5,parcelated_audio/12/12_14.ogg,,,,,,,,,0,0,0,0,0,5,5,5,0,0,0,0,,,,,,,,,0,0,0,0,0,13,13,13,,,,,,,,,,,,,,,,,,,,,,,,,,,,,,,,,,,,,,,,,,,,,,,,1103.051817863,1107.970689276,,,,,,,,,,,,,,,,,,,,,,,,,,,,,,,,,,,,,,,,,,,,,,,,,,,,,,,,,,,,,,,,,,,,072821,1,3,0,3,1,1,2,0,54,2021_Jul_28_1612,listening_fmri,3.2.4,59.98155555173552,
5,parcelated_audio/12/12_15.ogg,,,,,,,,,0,0,0,0,0,5,5,5,0,0,0,0,,,,,,,,,0,0,0,0,0,14,14,14,,,,,,,,,,,,,,,,,,,,,,,,,,,,,,,,,,,,,,,,,,,,,,,,1107.9710420000001,1113.9598231120003,,,,,,,,,,,,,,,,,,,,,,,,,,,,,,,,,,,,,,,,,,,,,,,,,,,,,,,,,,,,,,,,,,,,072821,1,3,0,3,1,1,2,0,54,2021_Jul_28_1612,listening_fmri,3.2.4,59.98155555173552,
5,parcelated_audio/12/12_16.ogg,,,,,,,,,0,0,0,0,0,5,5,5,0,0,0,0,,,,,,,,,0,0,0,0,0,15,15,15,,,,,,,,,,,,,,,,,,,,,,,,,,,,,,,,,,,,,,,,,,,,,,,,1113.9601660390003,1118.1678450210002,,,,,,,,,,,,,,,,,,,,,,,,,,,,,,,,,,,,,,,,,,,,,,,,,,,,,,,,,,,,,,,,,,,,072821,1,3,0,3,1,1,2,0,54,2021_Jul_28_1612,listening_fmri,3.2.4,59.98155555173552,
5,parcelated_audio/12/12_17.ogg,,,,,,,,,0,0,0,0,0,5,5,5,0,0,0,0,,,,,,,,,0,0,0,0,0,16,16,16,,,,,,,,,,,,,,,,,,,,,,,,,,,,,,,,,,,,,,,,,,,,,,,,1118.1682035860003,1123.153212871,,,,,,,,,,,,,,,,,,,,,,,,,,,,,,,,,,,,,,,,,,,,,,,,,,,,,,,,,,,,,,,,,,,,072821,1,3,0,3,1,1,2,0,54,2021_Jul_28_1612,listening_fmri,3.2.4,59.98155555173552,
5,parcelated_audio/12/12_18.ogg,,,,,,,,,0,0,0,0,0,5,5,5,0,0,0,0,,,,,,,,,0,0,0,0,0,17,17,17,,,,,,,,,,,,,,,,,,,,,,,,,,,,,,,,,,,,,,,,,,,,,,,,1123.1535647810001,1132.3545236550003,,,,,,,,,,,,,,,,,,,,,,,,,,,,,,,,,,,,,,,,,,,,,,,,,,,,,,,,,,,,,,,,,,,,072821,1,3,0,3,1,1,2,0,54,2021_Jul_28_1612,listening_fmri,3.2.4,59.98155555173552,
5,parcelated_audio/12/12_19.ogg,,,,,,,,,0,0,0,0,0,5,5,5,0,0,0,0,,,,,,,,,0,0,0,0,0,18,18,18,,,,,,,,,,,,,,,,,,,,,,,,,,,,,,,,,,,,,,,,,,,,,,,,1132.3548750460004,1142.3571500900002,,,,,,,,,,,,,,,,,,,,,,,,,,,,,,,,,,,,,,,,,,,,,,,,,,,,,,,,,,,,,,,,,,,,072821,1,3,0,3,1,1,2,0,54,2021_Jul_28_1612,listening_fmri,3.2.4,59.98155555173552,
5,parcelated_audio/12/12_20.ogg,,,,,,,,,0,0,0,0,0,5,5,5,0,0,0,0,,,,,,,,,0,0,0,0,0,19,19,19,,,,,,,,,,,,,,,,,,,,,,,,,,,,,,,,,,,,,,,,,,,,,,,,1142.3576346970003,1150.1569919580002,,,,,,,,,,,,,,,,,,,,,,,,,,,,,,,,,,,,,,,,,,,,,,,,,,,,,,,,,,,,,,,,,,,,072821,1,3,0,3,1,1,2,0,54,2021_Jul_28_1612,listening_fmri,3.2.4,59.98155555173552,
5,parcelated_audio/12/12_21.ogg,,,,,,,,,0,0,0,0,0,5,5,5,0,0,0,0,,,,,,,,,0,0,0,0,0,20,20,20,,,,,,,,,,,,,,,,,,,,,,,,,,,,,,,,,,,,,,,,,,,,,,,,1150.157344008,1155.6528584080002,,,,,,,,,,,,,,,,,,,,,,,,,,,,,,,,,,,,,,,,,,,,,,,,,,,,,,,,,,,,,,,,,,,,072821,1,3,0,3,1,1,2,0,54,2021_Jul_28_1612,listening_fmri,3.2.4,59.98155555173552,
5,parcelated_audio/12/12_22.ogg,,,,,,,,,0,0,0,0,0,5,5,5,0,0,0,0,,,,,,,,,0,0,0,0,0,21,21,21,,,,,,,,,,,,,,,,,,,,,,,,,,,,,,,,,,,,,,,,,,,,,,,,1155.6532127670002,1159.5089149310002,,,,,,,,,,,,,,,,,,,,,,,,,,,,,,,,,,,,,,,,,,,,,,,,,,,,,,,,,,,,,,,,,,,,072821,1,3,0,3,1,1,2,0,54,2021_Jul_28_1612,listening_fmri,3.2.4,59.98155555173552,
5,parcelated_audio/12/12_23.ogg,,,,,,,,,0,0,0,0,0,5,5,5,0,0,0,0,,,,,,,,,0,0,0,0,0,22,22,22,,,,,,,,,,,,,,,,,,,,,,,,,,,,,,,,,,,,,,,,,,,,,,,,1159.509266514,1166.4533123740002,,,,,,,,,,,,,,,,,,,,,,,,,,,,,,,,,,,,,,,,,,,,,,,,,,,,,,,,,,,,,,,,,,,,072821,1,3,0,3,1,1,2,0,54,2021_Jul_28_1612,listening_fmri,3.2.4,59.98155555173552,
5,parcelated_audio/12/12_24.ogg,,,,,,,,,0,0,0,0,0,5,5,5,0,0,0,0,,,,,,,,,0,0,0,0,0,23,23,23,,,,,,,,,,,,,,,,,,,,,,,,,,,,,,,,,,,,,,,,,,,,,,,,1166.453675922,1170.6318389730004,,,,,,,,,,,,,,,,,,,,,,,,,,,,,,,,,,,,,,,,,,,,,,,,,,,,,,,,,,,,,,,,,,,,072821,1,3,0,3,1,1,2,0,54,2021_Jul_28_1612,listening_fmri,3.2.4,59.98155555173552,
5,parcelated_audio/12/12_25.ogg,,,,,,,,,0,0,0,0,0,5,5,5,0,0,0,0,,,,,,,,,0,0,0,0,0,24,24,24,,,,,,,,,,,,,,,,,,,,,,,,,,,,,,,,,,,,,,,,,,,,,,,,1170.632185288,1180.9845446080003,,,,,,,,,,,,,,,,,,,,,,,,,,,,,,,,,,,,,,,,,,,,,,,,,,,,,,,,,,,,,,,,,,,,072821,1,3,0,3,1,1,2,0,54,2021_Jul_28_1612,listening_fmri,3.2.4,59.98155555173552,
5,parcelated_audio/12/12_26.ogg,,,,,,,,,0,0,0,0,0,5,5,5,0,0,0,0,,,,,,,,,0,0,0,0,0,25,25,25,,,,,,,,,,,,,,,,,,,,,,,,,,,,,,,,,,,,,,,,,,,,,,,,1180.9850656480003,1186.2170361970002,,,,,,,,,,,,,,,,,,,,,,,,,,,,,,,,,,,,,,,,,,,,,,,,,,,,,,,,,,,,,,,,,,,,072821,1,3,0,3,1,1,2,0,54,2021_Jul_28_1612,listening_fmri,3.2.4,59.98155555173552,
5,parcelated_audio/12/12_27.ogg,,,,,,,,,0,0,0,0,0,5,5,5,0,0,0,0,,,,,,,,,0,0,0,0,0,26,26,26,,,,,,,,,,,,,,,,,,,,,,,,,,,,,,,,,,,,,,,,,,,,,,,,1186.217391262,1193.8823768640004,,,,,,,,,,,,,,,,,,,,,,,,,,,,,,,,,,,,,,,,,,,,,,,,,,,,,,,,,,,,,,,,,,,,072821,1,3,0,3,1,1,2,0,54,2021_Jul_28_1612,listening_fmri,3.2.4,59.98155555173552,
5,parcelated_audio/12/12_28.ogg,,,,,,,,,0,0,0,0,0,5,5,5,0,0,0,0,,,,,,,,,0,0,0,0,0,27,27,27,,,,,,,,,,,,,,,,,,,,,,,,,,,,,,,,,,,,,,,,,,,,,,,,1193.882730489,1204.8639679840003,,,,,,,,,,,,,,,,,,,,,,,,,,,,,,,,,,,,,,,,,,,,,,,,,,,,,,,,,,,,,,,,,,,,072821,1,3,0,3,1,1,2,0,54,2021_Jul_28_1612,listening_fmri,3.2.4,59.98155555173552,
5,parcelated_audio/12/12_29.ogg,,,,,,,,,0,0,0,0,0,5,5,5,0,0,0,0,,,,,,,,,0,0,0,0,0,28,28,28,,,,,,,,,,,,,,,,,,,,,,,,,,,,,,,,,,,,,,,,,,,,,,,,1204.8643705110003,1210.9420246430004,,,,,,,,,,,,,,,,,,,,,,,,,,,,,,,,,,,,,,,,,,,,,,,,,,,,,,,,,,,,,,,,,,,,072821,1,3,0,3,1,1,2,0,54,2021_Jul_28_1612,listening_fmri,3.2.4,59.98155555173552,
5,parcelated_audio/12/12_30.ogg,,,,,,,,,0,0,0,0,0,5,5,5,0,0,0,0,,,,,,,,,0,0,0,0,0,29,29,29,,,,,,,,,,,,,,,,,,,,,,,,,,,,,,,,,,,,,,,,,,,,,,,,1210.9432555600001,1217.9012881550002,,,,,,,,,,,,,,,,,,,,,,,,,,,,,,,,,,,,,,,,,,,,,,,,,,,,,,,,,,,,,,,,,,,,072821,1,3,0,3,1,1,2,0,54,2021_Jul_28_1612,listening_fmri,3.2.4,59.98155555173552,
5,parcelated_audio/12/12_31.ogg,,,,,,,,,0,0,0,0,0,5,5,5,0,0,0,0,,,,,,,,,0,0,0,0,0,30,30,30,,,,,,,,,,,,,,,,,,,,,,,,,,,,,,,,,,,,,,,,,,,,,,,,1217.9015900240001,1225.0325270800004,,,,,,,,,,,,,,,,,,,,,,,,,,,,,,,,,,,,,,,,,,,,,,,,,,,,,,,,,,,,,,,,,,,,072821,1,3,0,3,1,1,2,0,54,2021_Jul_28_1612,listening_fmri,3.2.4,59.98155555173552,
5,,,,,,,,,,0,0,0,0,0,5,5,5,0,0,0,0,,,,,,,,,0,0,0,0,,,,,,,,,,,,,,,,,,,,,,,,,,,,,,,,,,,,,,,,,,,,,,,,,,,,,,,,,,,,,,,,,,,,,,,,,,,,,,,,,,,,,,,,,,,,,,,,,,,,,,,,,,,,,,,,,,,,,,,,,072821,1,3,0,3,1,1,2,0,54,2021_Jul_28_1612,listening_fmri,3.2.4,59.98155555173552,
5,,,,,,,,,,0,0,0,0,0,5,5,5,0,0,0,0,,,,,,,,,,,,,,,,,,,,,,,,,,,,,,,,,,,,,,,,,,1225.0330379770003,1231.0342102560003,1260.8497306980003,None,,,,,,,,,,,,,,,,,,,,,1266.9164083660003,None,1266.9164083660003,None,,,,,,,,,,,,,,,,,,,,,,,,,,,,,,,,,,,,,,,,,,,,,,,,,,,,,,,,,,,,,,,,072821,1,3,0,3,1,1,2,0,54,2021_Jul_28_1612,listening_fmri,3.2.4,59.98155555173552,
5,,,,,,,,,,0,0,0,0,0,5,5,5,,,,,,,,,,,,,,,,,,,,,,,,,,,,,,,,,,,,,,,,,,,,,,,,,,,,,,,,,,,,,,,,,,,,,,,,,,,,,,,,,,,,,,,,,,,,,,,,,,,,,,,,,,,,,,,,,,,,,,,,,,,,,,,,,,,,,,,,,072821,1,3,0,3,1,1,2,0,54,2021_Jul_28_1612,listening_fmri,3.2.4,59.98155555173552,
6,,,,,,,,,,0,0,0,0,0,6,6,6,,,,,,,,,,,,,,,,,,,,,,,,,,,,,,,,,,,,,,,,,,,,,,,,,,,,,,,,,,,,,,,,,,,,,,,,,,,,,,,,,,,,,,,,,,,,,,,,,,,,,,,,,,,,,,,,,,,,,,,,,,,,,,,,,,,,,,,,,072821,1,3,0,3,1,1,2,0,54,2021_Jul_28_1612,listening_fmri,3.2.4,59.98155555173552,
7,,,,,,,,,,0,0,0,0,0,7,7,7,0,0,0,0,0,0,0,0,,,,,,,,,,,,,,,,,0,0,0,0,,,,,,,,,,,,,,,,,,,,,,1267.883205772,None,1267.883205772,None,3,0.6208188249997875,1267.883205772,None,1267.883205772,None,,,,,,,,,,,,,,,1268.5331775240002,None,5,0.24388458800012813,1268.5331775240002,None,1268.5331775240002,None,1268.8161031230002,None,1268.8161031230002,None,1268.8161031230002,None,5,0.9609418289996938,1268.8161031230002,None,1269.8001260160004,None,5,0.9769442060000983,1269.8001260160004,None,1269.8001260160004,None,1270.8824375050003,None,1270.8824375050003,None,1270.8824375050003,None,1270.8824375050003,None,1270.8824375050003,None,1270.8824375050003,None,1270.8824375050003,None,None,1270.8824375050003,None,,,,,,,,,,,,,,,,,,,,,072821,1,3,0,3,1,1,2,0,54,2021_Jul_28_1612,listening_fmri,3.2.4,59.98155555173552,
7,,,,,,,,,,0,0,0,0,0,7,7,7,0,0,0,0,0,0,0,0,,,,,,,,,,,,,,,,,1,0,1,0,,,,,,,,,,,,,,,,,,,,,,,,,,,,,,,,,,,,,,,,,,,,,,,,,,,,,,1282.065814859,None,1282.065814859,None,1282.065814859,None,5,0.710237546999906,1282.065814859,None,1282.799818386,None,5,0.9762267090000023,1282.799818386,None,1282.799818386,None,1283.882329771,None,1283.882329771,None,1283.882329771,None,1283.882329771,None,1283.882329771,None,1283.882329771,None,1283.882329771,None,None,1283.882329771,None,,,,,,,,,,,,,,,,,,,,,072821,1,3,0,3,1,1,2,0,54,2021_Jul_28_1612,listening_fmri,3.2.4,59.98155555173552,
7,,,,,,,,,,0,0,0,0,0,7,7,7,0,0,0,0,0,0,0,0,,,,,,,,,,,,,,,,,,,,,,,,,,,,,,,,,,,,,,,,,,,,,,,,,,,,,,,,,,,,,,,,,,,,,,,,,,,,,,,,,,,,,,,,,,,,,,,,,,,,,,,,,,,,,1300.1827434420002,None,5,0.5932379949999813,1300.1827434420002,None,1300.1827434420002,None,1300.8493719750004,None,1300.8493719750004,None,1300.8493719750004,None,2,0.7155400510000618,1300.8493719750004,None,,,072821,1,3,0,3,1,1,2,0,54,2021_Jul_28_1612,listening_fmri,3.2.4,59.98155555173552,
7,parcelated_audio/34/34_1.ogg,,,,,,,,,0,0,0,0,0,7,7,7,0,0,0,0,,,,,,,,,0,0,0,0,0,0,0,0,,,,,,,,,,,,,,,,,,,,,,,,,,,,,,,,,,,,,,,,1301.5825050610001,None,5,0.19353714799990485,1301.5825050610001,None,1265.9927925650004,1269.0007306910002,1269.005923479,1277.7095181280001,,,,,,,,,,,,,,,,,,,,,,,,,,,,,,,,,,,,,,,,,,,,,,,,,,,,,,,,,,,,,,,,,,,,072821,1,3,0,3,1,1,2,0,54,2021_Jul_28_1612,listening_fmri,3.2.4,59.98155555173552,
7,parcelated_audio/34/34_2.ogg,,,,,,,,,0,0,0,0,0,7,7,7,0,0,0,0,,,,,,,,,0,0,0,0,0,1,1,1,,,,,,,,,,,,,,,,,,,,,,,,,,,,,,,,,,,,,,,,,,,,,,,,1277.7098570950002,1282.2608095940004,,,,,,,,,,,,,,,,,,,,,,,,,,,,,,,,,,,,,,,,,,,,,,,,,,,,,,,,,,,,,,,,,,,,072821,1,3,0,3,1,1,2,0,54,2021_Jul_28_1612,listening_fmri,3.2.4,59.98155555173552,
7,parcelated_audio/34/34_3.ogg,,,,,,,,,0,0,0,0,0,7,7,7,0,0,0,0,,,,,,,,,0,0,0,0,0,2,2,2,,,,,,,,,,,,,,,,,,,,,,,,,,,,,,,,,,,,,,,,,,,,,,,,1282.2612752240002,1286.905861184,,,,,,,,,,,,,,,,,,,,,,,,,,,,,,,,,,,,,,,,,,,,,,,,,,,,,,,,,,,,,,,,,,,,072821,1,3,0,3,1,1,2,0,54,2021_Jul_28_1612,listening_fmri,3.2.4,59.98155555173552,
7,parcelated_audio/34/34_4.ogg,,,,,,,,,0,0,0,0,0,7,7,7,0,0,0,0,,,,,,,,,0,0,0,0,0,3,3,3,,,,,,,,,,,,,,,,,,,,,,,,,,,,,,,,,,,,,,,,,,,,,,,,1286.9069001930002,1296.5278785280002,,,,,,,,,,,,,,,,,,,,,,,,,,,,,,,,,,,,,,,,,,,,,,,,,,,,,,,,,,,,,,,,,,,,072821,1,3,0,3,1,1,2,0,54,2021_Jul_28_1612,listening_fmri,3.2.4,59.98155555173552,
7,parcelated_audio/34/34_5.ogg,,,,,,,,,0,0,0,0,0,7,7,7,0,0,0,0,,,,,,,,,0,0,0,0,0,4,4,4,,,,,,,,,,,,,,,,,,,,,,,,,,,,,,,,,,,,,,,,,,,,,,,,1296.528670185,1307.0397641630002,,,,,,,,,,,,,,,,,,,,,,,,,,,,,,,,,,,,,,,,,,,,,,,,,,,,,,,,,,,,,,,,,,,,072821,1,3,0,3,1,1,2,0,54,2021_Jul_28_1612,listening_fmri,3.2.4,59.98155555173552,
7,parcelated_audio/34/34_6.ogg,,,,,,,,,0,0,0,0,0,7,7,7,0,0,0,0,,,,,,,,,0,0,0,0,0,5,5,5,,,,,,,,,,,,,,,,,,,,,,,,,,,,,,,,,,,,,,,,,,,,,,,,1307.0401211330004,1315.746254481,,,,,,,,,,,,,,,,,,,,,,,,,,,,,,,,,,,,,,,,,,,,,,,,,,,,,,,,,,,,,,,,,,,,072821,1,3,0,3,1,1,2,0,54,2021_Jul_28_1612,listening_fmri,3.2.4,59.98155555173552,
7,parcelated_audio/34/34_7.ogg,,,,,,,,,0,0,0,0,0,7,7,7,0,0,0,0,,,,,,,,,0,0,0,0,0,6,6,6,,,,,,,,,,,,,,,,,,,,,,,,,,,,,,,,,,,,,,,,,,,,,,,,1315.7473913340004,1321.7339199050002,,,,,,,,,,,,,,,,,,,,,,,,,,,,,,,,,,,,,,,,,,,,,,,,,,,,,,,,,,,,,,,,,,,,072821,1,3,0,3,1,1,2,0,54,2021_Jul_28_1612,listening_fmri,3.2.4,59.98155555173552,
7,parcelated_audio/34/34_8.ogg,,,,,,,,,0,0,0,0,0,7,7,7,0,0,0,0,,,,,,,,,0,0,0,0,0,7,7,7,,,,,,,,,,,,,,,,,,,,,,,,,,,,,,,,,,,,,,,,,,,,,,,,1321.7342010790003,1329.7127654260003,,,,,,,,,,,,,,,,,,,,,,,,,,,,,,,,,,,,,,,,,,,,,,,,,,,,,,,,,,,,,,,,,,,,072821,1,3,0,3,1,1,2,0,54,2021_Jul_28_1612,listening_fmri,3.2.4,59.98155555173552,
7,parcelated_audio/34/34_9.ogg,,,,,,,,,0,0,0,0,0,7,7,7,0,0,0,0,,,,,,,,,0,0,0,0,0,8,8,8,,,,,,,,,,,,,,,,,,,,,,,,,,,,,,,,,,,,,,,,,,,,,,,,1329.7131162210003,1334.4997023740002,,,,,,,,,,,,,,,,,,,,,,,,,,,,,,,,,,,,,,,,,,,,,,,,,,,,,,,,,,,,,,,,,,,,072821,1,3,0,3,1,1,2,0,54,2021_Jul_28_1612,listening_fmri,3.2.4,59.98155555173552,
7,parcelated_audio/34/34_10.ogg,,,,,,,,,0,0,0,0,0,7,7,7,0,0,0,0,,,,,,,,,0,0,0,0,0,9,9,9,,,,,,,,,,,,,,,,,,,,,,,,,,,,,,,,,,,,,,,,,,,,,,,,1334.5004588390002,1341.6043779780002,,,,,,,,,,,,,,,,,,,,,,,,,,,,,,,,,,,,,,,,,,,,,,,,,,,,,,,,,,,,,,,,,,,,072821,1,3,0,3,1,1,2,0,54,2021_Jul_28_1612,listening_fmri,3.2.4,59.98155555173552,
7,parcelated_audio/34/34_11.ogg,,,,,,,,,0,0,0,0,0,7,7,7,0,0,0,0,,,,,,,,,0,0,0,0,0,10,10,10,,,,,,,,,,,,,,,,,,,,,,,,,,,,,,,,,,,,,,,,,,,,,,,,1341.6047287650003,1345.0488591850003,,,,,,,,,,,,,,,,,,,,,,,,,,,,,,,,,,,,,,,,,,,,,,,,,,,,,,,,,,,,,,,,,,,,072821,1,3,0,3,1,1,2,0,54,2021_Jul_28_1612,listening_fmri,3.2.4,59.98155555173552,
7,parcelated_audio/34/34_12.ogg,,,,,,,,,0,0,0,0,0,7,7,7,0,0,0,0,,,,,,,,,0,0,0,0,0,11,11,11,,,,,,,,,,,,,,,,,,,,,,,,,,,,,,,,,,,,,,,,,,,,,,,,1345.0492226180004,1353.2051802990004,,,,,,,,,,,,,,,,,,,,,,,,,,,,,,,,,,,,,,,,,,,,,,,,,,,,,,,,,,,,,,,,,,,,072821,1,3,0,3,1,1,2,0,54,2021_Jul_28_1612,listening_fmri,3.2.4,59.98155555173552,
7,parcelated_audio/34/34_13.ogg,,,,,,,,,0,0,0,0,0,7,7,7,0,0,0,0,,,,,,,,,0,0,0,0,0,12,12,12,,,,,,,,,,,,,,,,,,,,,,,,,,,,,,,,,,,,,,,,,,,,,,,,1353.205532161,1357.0996715590004,,,,,,,,,,,,,,,,,,,,,,,,,,,,,,,,,,,,,,,,,,,,,,,,,,,,,,,,,,,,,,,,,,,,072821,1,3,0,3,1,1,2,0,54,2021_Jul_28_1612,listening_fmri,3.2.4,59.98155555173552,
7,parcelated_audio/34/34_14.ogg,,,,,,,,,0,0,0,0,0,7,7,7,0,0,0,0,,,,,,,,,0,0,0,0,0,13,13,13,,,,,,,,,,,,,,,,,,,,,,,,,,,,,,,,,,,,,,,,,,,,,,,,1357.1001829820002,1361.7385160620001,,,,,,,,,,,,,,,,,,,,,,,,,,,,,,,,,,,,,,,,,,,,,,,,,,,,,,,,,,,,,,,,,,,,072821,1,3,0,3,1,1,2,0,54,2021_Jul_28_1612,listening_fmri,3.2.4,59.98155555173552,
7,parcelated_audio/34/34_15.ogg,,,,,,,,,0,0,0,0,0,7,7,7,0,0,0,0,,,,,,,,,0,0,0,0,0,14,14,14,,,,,,,,,,,,,,,,,,,,,,,,,,,,,,,,,,,,,,,,,,,,,,,,1361.7388675430002,1365.9358669930002,,,,,,,,,,,,,,,,,,,,,,,,,,,,,,,,,,,,,,,,,,,,,,,,,,,,,,,,,,,,,,,,,,,,072821,1,3,0,3,1,1,2,0,54,2021_Jul_28_1612,listening_fmri,3.2.4,59.98155555173552,
7,parcelated_audio/34/34_16.ogg,,,,,,,,,0,0,0,0,0,7,7,7,0,0,0,0,,,,,,,,,0,0,0,0,0,15,15,15,,,,,,,,,,,,,,,,,,,,,,,,,,,,,,,,,,,,,,,,,,,,,,,,1365.9362207130002,1378.9360493500003,,,,,,,,,,,,,,,,,,,,,,,,,,,,,,,,,,,,,,,,,,,,,,,,,,,,,,,,,,,,,,,,,,,,072821,1,3,0,3,1,1,2,0,54,2021_Jul_28_1612,listening_fmri,3.2.4,59.98155555173552,
7,parcelated_audio/34/34_17.ogg,,,,,,,,,0,0,0,0,0,7,7,7,0,0,0,0,,,,,,,,,0,0,0,0,0,16,16,16,,,,,,,,,,,,,,,,,,,,,,,,,,,,,,,,,,,,,,,,,,,,,,,,1378.936549249,1387.8614299690003,,,,,,,,,,,,,,,,,,,,,,,,,,,,,,,,,,,,,,,,,,,,,,,,,,,,,,,,,,,,,,,,,,,,072821,1,3,0,3,1,1,2,0,54,2021_Jul_28_1612,listening_fmri,3.2.4,59.98155555173552,
7,parcelated_audio/34/34_18.ogg,,,,,,,,,0,0,0,0,0,7,7,7,0,0,0,0,,,,,,,,,0,0,0,0,0,17,17,17,,,,,,,,,,,,,,,,,,,,,,,,,,,,,,,,,,,,,,,,,,,,,,,,1387.8617815780003,1393.7357547320003,,,,,,,,,,,,,,,,,,,,,,,,,,,,,,,,,,,,,,,,,,,,,,,,,,,,,,,,,,,,,,,,,,,,072821,1,3,0,3,1,1,2,0,54,2021_Jul_28_1612,listening_fmri,3.2.4,59.98155555173552,
7,parcelated_audio/34/34_19.ogg,,,,,,,,,0,0,0,0,0,7,7,7,0,0,0,0,,,,,,,,,0,0,0,0,0,18,18,18,,,,,,,,,,,,,,,,,,,,,,,,,,,,,,,,,,,,,,,,,,,,,,,,1393.7361132630003,1399.9489233630002,,,,,,,,,,,,,,,,,,,,,,,,,,,,,,,,,,,,,,,,,,,,,,,,,,,,,,,,,,,,,,,,,,,,072821,1,3,0,3,1,1,2,0,54,2021_Jul_28_1612,listening_fmri,3.2.4,59.98155555173552,
7,parcelated_audio/34/34_20.ogg,,,,,,,,,0,0,0,0,0,7,7,7,0,0,0,0,,,,,,,,,0,0,0,0,0,19,19,19,,,,,,,,,,,,,,,,,,,,,,,,,,,,,,,,,,,,,,,,,,,,,,,,1399.9492773910001,1408.4017484620003,,,,,,,,,,,,,,,,,,,,,,,,,,,,,,,,,,,,,,,,,,,,,,,,,,,,,,,,,,,,,,,,,,,,072821,1,3,0,3,1,1,2,0,54,2021_Jul_28_1612,listening_fmri,3.2.4,59.98155555173552,
7,parcelated_audio/34/34_21.ogg,,,,,,,,,0,0,0,0,0,7,7,7,0,0,0,0,,,,,,,,,0,0,0,0,0,20,20,20,,,,,,,,,,,,,,,,,,,,,,,,,,,,,,,,,,,,,,,,,,,,,,,,1408.4021765080001,1414.7667494500001,,,,,,,,,,,,,,,,,,,,,,,,,,,,,,,,,,,,,,,,,,,,,,,,,,,,,,,,,,,,,,,,,,,,072821,1,3,0,3,1,1,2,0,54,2021_Jul_28_1612,listening_fmri,3.2.4,59.98155555173552,
7,parcelated_audio/34/34_22.ogg,,,,,,,,,0,0,0,0,0,7,7,7,0,0,0,0,,,,,,,,,0,0,0,0,0,21,21,21,,,,,,,,,,,,,,,,,,,,,,,,,,,,,,,,,,,,,,,,,,,,,,,,1414.7670936640002,1419.890549317,,,,,,,,,,,,,,,,,,,,,,,,,,,,,,,,,,,,,,,,,,,,,,,,,,,,,,,,,,,,,,,,,,,,072821,1,3,0,3,1,1,2,0,54,2021_Jul_28_1612,listening_fmri,3.2.4,59.98155555173552,
7,parcelated_audio/34/34_23.ogg,,,,,,,,,0,0,0,0,0,7,7,7,0,0,0,0,,,,,,,,,0,0,0,0,0,22,22,22,,,,,,,,,,,,,,,,,,,,,,,,,,,,,,,,,,,,,,,,,,,,,,,,1419.8910723080003,1427.6718563590002,,,,,,,,,,,,,,,,,,,,,,,,,,,,,,,,,,,,,,,,,,,,,,,,,,,,,,,,,,,,,,,,,,,,072821,1,3,0,3,1,1,2,0,54,2021_Jul_28_1612,listening_fmri,3.2.4,59.98155555173552,
7,parcelated_audio/34/34_24.ogg,,,,,,,,,0,0,0,0,0,7,7,7,0,0,0,0,,,,,,,,,0,0,0,0,0,23,23,23,,,,,,,,,,,,,,,,,,,,,,,,,,,,,,,,,,,,,,,,,,,,,,,,1427.6722129420004,1433.4598768370001,,,,,,,,,,,,,,,,,,,,,,,,,,,,,,,,,,,,,,,,,,,,,,,,,,,,,,,,,,,,,,,,,,,,072821,1,3,0,3,1,1,2,0,54,2021_Jul_28_1612,listening_fmri,3.2.4,59.98155555173552,
7,parcelated_audio/34/34_25.ogg,,,,,,,,,0,0,0,0,0,7,7,7,0,0,0,0,,,,,,,,,0,0,0,0,0,24,24,24,,,,,,,,,,,,,,,,,,,,,,,,,,,,,,,,,,,,,,,,,,,,,,,,1433.4602275250004,1440.0518385060004,,,,,,,,,,,,,,,,,,,,,,,,,,,,,,,,,,,,,,,,,,,,,,,,,,,,,,,,,,,,,,,,,,,,072821,1,3,0,3,1,1,2,0,54,2021_Jul_28_1612,listening_fmri,3.2.4,59.98155555173552,
7,parcelated_audio/34/34_26.ogg,,,,,,,,,0,0,0,0,0,7,7,7,0,0,0,0,,,,,,,,,0,0,0,0,0,25,25,25,,,,,,,,,,,,,,,,,,,,,,,,,,,,,,,,,,,,,,,,,,,,,,,,1440.052345779,1449.7049257400004,,,,,,,,,,,,,,,,,,,,,,,,,,,,,,,,,,,,,,,,,,,,,,,,,,,,,,,,,,,,,,,,,,,,072821,1,3,0,3,1,1,2,0,54,2021_Jul_28_1612,listening_fmri,3.2.4,59.98155555173552,
7,parcelated_audio/34/34_27.ogg,,,,,,,,,0,0,0,0,0,7,7,7,0,0,0,0,,,,,,,,,0,0,0,0,0,26,26,26,,,,,,,,,,,,,,,,,,,,,,,,,,,,,,,,,,,,,,,,,,,,,,,,1449.705282162,1457.204742929,,,,,,,,,,,,,,,,,,,,,,,,,,,,,,,,,,,,,,,,,,,,,,,,,,,,,,,,,,,,,,,,,,,,072821,1,3,0,3,1,1,2,0,54,2021_Jul_28_1612,listening_fmri,3.2.4,59.98155555173552,
7,,,,,,,,,,0,0,0,0,0,7,7,7,0,0,0,0,,,,,,,,,0,0,0,0,,,,,,,,,,,,,,,,,,,,,,,,,,,,,,,,,,,,,,,,,,,,,,,,,,,,,,,,,,,,,,,,,,,,,,,,,,,,,,,,,,,,,,,,,,,,,,,,,,,,,,,,,,,,,,,,,,,,,,,,,072821,1,3,0,3,1,1,2,0,54,2021_Jul_28_1612,listening_fmri,3.2.4,59.98155555173552,
7,,,,,,,,,,0,0,0,0,0,7,7,7,0,0,0,0,,,,,,,,,,,,,,,,,,,,,,,,,,,,,,,,,,,,,,,,,,1457.205216714,1463.2018508150004,1493.013698532,None,,,,,,,,,,,,,,,,,,,,,1499.0161470520002,None,1499.0161470520002,None,,,,,,,,,,,,,,,,,,,,,,,,,,,,,,,,,,,,,,,,,,,,,,,,,,,,,,,,,,,,,,,,072821,1,3,0,3,1,1,2,0,54,2021_Jul_28_1612,listening_fmri,3.2.4,59.98155555173552,
7,,,,,,,,,,0,0,0,0,0,7,7,7,,,,,,,,,,,,,,,,,,,,,,,,,,,,,,,,,,,,,,,,,,,,,,,,,,,,,,,,,,,,,,,,,,,,,,,,,,,,,,,,,,,,,,,,,,,,,,,,,,,,,,,,,,,,,,,,,,,,,,,,,,,,,,,,,,,,,,,,,072821,1,3,0,3,1,1,2,0,54,2021_Jul_28_1612,listening_fmri,3.2.4,59.98155555173552,
,,,,,,,,,,0,0,0,0,,,,,,,,,,,,,,,,,,,,,,,,,,,,,,,,,,,,,,,,,,,,,,,,,,,,,,,,,,,,,,,,,,,,,,,,,,,,,,,,,,,,,,,,,,,,,,,,,,,,,,,,,,,,,,,,,,,,,,,,,,,,,,,,,,,,,,,,,,,,,072821,1,3,0,3,1,1,2,0,54,2021_Jul_28_1612,listening_fmri,3.2.4,59.98155555173552,
,,,,,,,,,,,,,,,,,,,,,,,,,,,,,,,,,,,,,,,,,,,,,,0,0,0,0,,,,,,,,,,,,,,,,,,,,,,,,,,,,,,,,,,,,,,,,,,,,,,,,,,,,,,,,,,,,,,,,,,,,,,,,,,,,,,,,,,,,,,,,,,,,,,,,,,,,,,,1500.046510565,None,072821,1,3,0,3,1,1,2,0,54,2021_Jul_28_1612,listening_fmri,3.2.4,59.98155555173552,
,,,,,,,,,,,,,,,,,,,,,,,,,,,,,,,,,,,,,,,,,,,,,,1,0,1,0,,,,,,,,,,,,,,,,,,,,,,,,,,,,,,,,,,,,,,,,,,,,,,,,,,,,,,,,,,,,,,,,,,,,,,,,,,,,,,,,,,,,,,,,,,,,,,,,,,,,,,,1500.533196844,None,072821,1,3,0,3,1,1,2,0,54,2021_Jul_28_1612,listening_fmri,3.2.4,59.98155555173552,
,,,,,,,,,,,,,,,,,,,,,,,,,,,,,,,,,,,,,,,,,,,,,,2,0,2,0,,,,,,,,,,,,,,,,,,,,,,,,,,,,,,,,,,,,,,,,,,,,,,,,,,,,,,,,,,,,,,,,,,,,,,,,,,,,,,,,,,,,,,,,,,,,,,,,,,,,,,,1501.033179221,None,072821,1,3,0,3,1,1,2,0,54,2021_Jul_28_1612,listening_fmri,3.2.4,59.98155555173552,
,,,,,,,,,,,,,,,,,,,,,,,,,,,,,,,,,,,,,,,,,,,,,,3,0,3,0,,,,,,,,,,,,,,,,,,,,,,,,,,,,,,,,,,,,,,,,,,,,,,,,,,,,,,,,,,,,,,,,,,,,,,,,,,,,,,,,,,,,,,,,,,,,,,,,,,,,,,,1501.533136732,None,072821,1,3,0,3,1,1,2,0,54,2021_Jul_28_1612,listening_fmri,3.2.4,59.98155555173552,
,,,,,,,,,,,,,,,,,,,,,,,,,,,,,,,,,,,,,,,,,,,,,,4,0,4,0,,,,,,,,,,,,,,,,,,,,,,,,,,,,,,,,,,,,,,,,,,,,,,,,,,,,,,,,,,,,,,,,,,,,,,,,,,,,,,,,,,,,,,,,,,,,,,,,,,,,,,,1502.0332097250002,None,072821,1,3,0,3,1,1,2,0,54,2021_Jul_28_1612,listening_fmri,3.2.4,59.98155555173552,
