count,behav_recall_instructions.thisRepN,behav_recall_instructions.thisTrialN,behav_recall_instructions.thisN,behav_recall_instructions.thisIndex,trials.thisRepN,trials.thisTrialN,trials.thisN,trials.thisIndex,trials_4.thisRepN,trials_4.thisTrialN,trials_4.thisN,trials_4.thisIndex,trials_13.thisRepN,trials_13.thisTrialN,trials_13.thisN,trials_13.thisIndex,trials_17.thisRepN,trials_17.thisTrialN,trials_17.thisN,trials_17.thisIndex,story_list_block1,action_list_block1,text_76.started,text_76.stopped,key_resp_30.keys,key_resp_30.rt,key_resp_30.started,key_resp_30.stopped,textTrigger.started,textTrigger.stopped,getTrigger.keys,getTrigger.rt,getTrigger.started,getTrigger.stopped,triggerTime,text_77.started,text_77.stopped,text_78.started,text_78.stopped,waitStart,image_23.started,image_23.stopped,waitEnd,text_41.started,text_41.stopped,key_resp_26.keys,key_resp_26.rt,key_resp_26.started,key_resp_26.stopped,text_42.started,text_42.stopped,text_51.started,text_51.stopped,recall_StartTime,recall_EndTime,image_18.started,image_18.stopped,text_69.started,text_69.stopped,recall_audio.filename,recall_audio.started,recall_audio.stopped,key_resp_25.keys,key_resp_25.rt,key_resp_25.started,key_resp_25.stopped,text_80.started,text_80.stopped,participant,sA,sB,lA,lB,block_struct,block,behavioral,random_seed,date,expName,psychopyVersion,frameRate,
,,,,,,,,,,,,,,,,,,,,,[42 31 24 11 13 22 33 44],[1 2 3 2 4 1 4 3],24.648833815000003,None,space,34.38804994799999,24.648833815000003,None,,,,,,,,,,,,,,,,,,,,,,,,,,,,,,,,,,,,,,,,,072821,1,3,0,3,1,1,0,54,2021_Jul_28_1639,recall_fmri,3.2.4,59.91139703492534,
0,,,,,0,0,0,0,0,0,0,0,,,,,0,0,0,0,,,,,,,,,59.06680183200001,None,equal,32.51756708400001,59.06680183200001,None,66.947196948,59.06680183200001,None,59.06680183200001,None,0.0003041009999833477,91.601453155,None,5.999387796999997,97.63239316900001,None,1,1.7769437270000026,97.63239316900001,None,97.63239316900001,None,97.63239316900001,None,7.833419421000002,89.81572897099997,99.531917048,None,99.531917048,None,/Users/columbiadpml/Documents/GitHub/ebs/fMRI experiment/psychopy code/data/072821_bk1_recall_fmri_wav/recall_audio-1627504872.513.wav,0.004930905799994889,None,2,81.860510151,99.531917048,None,99.531917048,None,072821,1,3,0,3,1,1,0,54,2021_Jul_28_1639,recall_fmri,3.2.4,59.91139703492534,
﻿count,behav_recall_instructions.thisRepN,behav_recall_instructions.thisTrialN,behav_recall_instructions.thisN,behav_recall_instructions.thisIndex,trials.thisRepN,trials.thisTrialN,trials.thisN,trials.thisIndex,trials_4.thisRepN,trials_4.thisTrialN,trials_4.thisN,trials_4.thisIndex,trials_13.thisRepN,trials_13.thisTrialN,trials_13.thisN,trials_13.thisIndex,trials_17.thisRepN,trials_17.thisTrialN,trials_17.thisN,trials_17.thisIndex,story_list_block1,action_list_block1,text_76.started,text_76.stopped,key_resp_30.keys,key_resp_30.rt,key_resp_30.started,key_resp_30.stopped,textTrigger.started,textTrigger.stopped,getTrigger.keys,getTrigger.rt,getTrigger.started,getTrigger.stopped,triggerTime,text_77.started,text_77.stopped,text_78.started,text_78.stopped,waitStart,image_23.started,image_23.stopped,waitEnd,text_41.started,text_41.stopped,key_resp_26.keys,key_resp_26.rt,key_resp_26.started,key_resp_26.stopped,text_42.started,text_42.stopped,text_51.started,text_51.stopped,recall_StartTime,recall_EndTime,image_18.started,image_18.stopped,text_69.started,text_69.stopped,recall_audio.filename,recall_audio.started,recall_audio.stopped,key_resp_25.keys,key_resp_25.rt,key_resp_25.started,key_resp_25.stopped,text_80.started,text_80.stopped,participant,sA,sB,lA,lB,block_struct,block,behavioral,random_seed,date,expName,psychopyVersion,frameRate,
,,,,,,,,,,,,,,,,,,,,,[42 31 24 11 13 22 33 44],[1 2 3 2 4 1 4 3],24.648833815000003,None,space,34.38804994799999,24.648833815000003,None,,,,,,,,,,,,,,,,,,,,,,,,,,,,,,,,,,,,,,,,,072821,1,3,0,3,1,1,0,54,2021_Jul_28_1639,recall_fmri,3.2.4,59.91139703492534,
0,,,,,0,0,0,0,0,0,0,0,,,,,0,0,0,0,,,,,,,,,59.06680183200001,None,equal,32.51756708400001,59.06680183200001,None,66.947196948,59.06680183200001,None,59.06680183200001,None,0.0003041009999833477,91.601453155,None,5.999387796999997,97.63239316900001,None,1,1.7769437270000026,97.63239316900001,None,97.63239316900001,None,97.63239316900001,None,7.833419421000002,89.81572897099997,99.531917048,None,99.531917048,None,/Users/columbiadpml/Documents/GitHub/ebs/fMRI experiment/psychopy code/data/072821_bk1_recall_fmri_wav/recall_audio-1627504872.513.wav,0.004930905799994889,None,2,81.860510151,99.531917048,None,99.531917048,None,072821,1,3,0,3,1,1,0,54,2021_Jul_28_1639,recall_fmri,3.2.4,59.91139703492534,
0,,,,,0,0,0,0,0,0,0,0,,,,,,,,,,,,,,,,,,,,,,,,,,,,89.81859662399998,181.41760557900002,None,95.81566356099998,,,,,,,,,,,,,,,,,,,,,,,,,,072821,1,3,0,3,1,1,0,54,2021_Jul_28_1639,recall_fmri,3.2.4,59.91139703492534,
1,,,,,0,0,0,0,0,1,1,1,,,,,0,0,0,0,,,,,,,,,,,,,,,,,,,,,,,,187.417624105,None,1,1.6028111759999888,187.417624105,None,187.417624105,None,187.417624105,None,97.45002919099997,180.88323583000002,189.064266242,None,189.064266242,None,/Users/columbiadpml/Documents/GitHub/ebs/fMRI experiment/psychopy code/data/072821_bk1_recall_fmri_wav/recall_audio-1627504962.055.wav,0.012272366600029727,None,1,83.387984744,189.064266242,None,189.064266242,None,072821,1,3,0,3,1,1,0,54,2021_Jul_28_1639,recall_fmri,3.2.4,59.91139703492534,
﻿count,behav_recall_instructions.thisRepN,behav_recall_instructions.thisTrialN,behav_recall_instructions.thisN,behav_recall_instructions.thisIndex,trials.thisRepN,trials.thisTrialN,trials.thisN,trials.thisIndex,trials_4.thisRepN,trials_4.thisTrialN,trials_4.thisN,trials_4.thisIndex,trials_13.thisRepN,trials_13.thisTrialN,trials_13.thisN,trials_13.thisIndex,trials_17.thisRepN,trials_17.thisTrialN,trials_17.thisN,trials_17.thisIndex,story_list_block1,action_list_block1,text_76.started,text_76.stopped,key_resp_30.keys,key_resp_30.rt,key_resp_30.started,key_resp_30.stopped,textTrigger.started,textTrigger.stopped,getTrigger.keys,getTrigger.rt,getTrigger.started,getTrigger.stopped,triggerTime,text_77.started,text_77.stopped,text_78.started,text_78.stopped,waitStart,image_23.started,image_23.stopped,waitEnd,text_41.started,text_41.stopped,key_resp_26.keys,key_resp_26.rt,key_resp_26.started,key_resp_26.stopped,text_42.started,text_42.stopped,text_51.started,text_51.stopped,recall_StartTime,recall_EndTime,image_18.started,image_18.stopped,text_69.started,text_69.stopped,recall_audio.filename,recall_audio.started,recall_audio.stopped,key_resp_25.keys,key_resp_25.rt,key_resp_25.started,key_resp_25.stopped,text_80.started,text_80.stopped,participant,sA,sB,lA,lB,block_struct,block,behavioral,random_seed,date,expName,psychopyVersion,frameRate,
,,,,,,,,,,,,,,,,,,,,,[42 31 24 11 13 22 33 44],[1 2 3 2 4 1 4 3],24.648833815000003,None,space,34.38804994799999,24.648833815000003,None,,,,,,,,,,,,,,,,,,,,,,,,,,,,,,,,,,,,,,,,,072821,1,3,0,3,1,1,0,54,2021_Jul_28_1639,recall_fmri,3.2.4,59.91139703492534,
0,,,,,0,0,0,0,0,0,0,0,,,,,0,0,0,0,,,,,,,,,59.06680183200001,None,equal,32.51756708400001,59.06680183200001,None,66.947196948,59.06680183200001,None,59.06680183200001,None,0.0003041009999833477,91.601453155,None,5.999387796999997,97.63239316900001,None,1,1.7769437270000026,97.63239316900001,None,97.63239316900001,None,97.63239316900001,None,7.833419421000002,89.81572897099997,99.531917048,None,99.531917048,None,/Users/columbiadpml/Documents/GitHub/ebs/fMRI experiment/psychopy code/data/072821_bk1_recall_fmri_wav/recall_audio-1627504872.513.wav,0.004930905799994889,None,2,81.860510151,99.531917048,None,99.531917048,None,072821,1,3,0,3,1,1,0,54,2021_Jul_28_1639,recall_fmri,3.2.4,59.91139703492534,
0,,,,,0,0,0,0,0,0,0,0,,,,,,,,,,,,,,,,,,,,,,,,,,,,89.81859662399998,181.41760557900002,None,95.81566356099998,,,,,,,,,,,,,,,,,,,,,,,,,,072821,1,3,0,3,1,1,0,54,2021_Jul_28_1639,recall_fmri,3.2.4,59.91139703492534,
1,,,,,0,0,0,0,0,1,1,1,,,,,0,0,0,0,,,,,,,,,,,,,,,,,,,,,,,,187.417624105,None,1,1.6028111759999888,187.417624105,None,187.417624105,None,187.417624105,None,97.45002919099997,180.88323583000002,189.064266242,None,189.064266242,None,/Users/columbiadpml/Documents/GitHub/ebs/fMRI experiment/psychopy code/data/072821_bk1_recall_fmri_wav/recall_audio-1627504962.055.wav,0.012272366600029727,None,1,83.387984744,189.064266242,None,189.064266242,None,072821,1,3,0,3,1,1,0,54,2021_Jul_28_1639,recall_fmri,3.2.4,59.91139703492534,
1,,,,,0,0,0,0,0,1,1,1,,,,,,,,,,,,,,,,,,,,,,,,,,,,180.88624932500002,272.48482419100003,None,186.88268831899998,,,,,,,,,,,,,,,,,,,,,,,,,,072821,1,3,0,3,1,1,0,54,2021_Jul_28_1639,recall_fmri,3.2.4,59.91139703492534,
﻿count,behav_recall_instructions.thisRepN,behav_recall_instructions.thisTrialN,behav_recall_instructions.thisN,behav_recall_instructions.thisIndex,trials.thisRepN,trials.thisTrialN,trials.thisN,trials.thisIndex,trials_4.thisRepN,trials_4.thisTrialN,trials_4.thisN,trials_4.thisIndex,trials_13.thisRepN,trials_13.thisTrialN,trials_13.thisN,trials_13.thisIndex,trials_17.thisRepN,trials_17.thisTrialN,trials_17.thisN,trials_17.thisIndex,story_list_block1,action_list_block1,text_76.started,text_76.stopped,key_resp_30.keys,key_resp_30.rt,key_resp_30.started,key_resp_30.stopped,textTrigger.started,textTrigger.stopped,getTrigger.keys,getTrigger.rt,getTrigger.started,getTrigger.stopped,triggerTime,text_77.started,text_77.stopped,text_78.started,text_78.stopped,waitStart,image_23.started,image_23.stopped,waitEnd,text_41.started,text_41.stopped,key_resp_26.keys,key_resp_26.rt,key_resp_26.started,key_resp_26.stopped,text_42.started,text_42.stopped,text_51.started,text_51.stopped,recall_StartTime,recall_EndTime,image_18.started,image_18.stopped,text_69.started,text_69.stopped,recall_audio.filename,recall_audio.started,recall_audio.stopped,key_resp_25.keys,key_resp_25.rt,key_resp_25.started,key_resp_25.stopped,text_80.started,text_80.stopped,participant,sA,sB,lA,lB,block_struct,block,behavioral,random_seed,date,expName,psychopyVersion,frameRate,
,,,,,,,,,,,,,,,,,,,,,[42 31 24 11 13 22 33 44],[1 2 3 2 4 1 4 3],24.648833815000003,None,space,34.38804994799999,24.648833815000003,None,,,,,,,,,,,,,,,,,,,,,,,,,,,,,,,,,,,,,,,,,072821,1,3,0,3,1,1,0,54,2021_Jul_28_1639,recall_fmri,3.2.4,59.91139703492534,
0,,,,,0,0,0,0,0,0,0,0,,,,,0,0,0,0,,,,,,,,,59.06680183200001,None,equal,32.51756708400001,59.06680183200001,None,66.947196948,59.06680183200001,None,59.06680183200001,None,0.0003041009999833477,91.601453155,None,5.999387796999997,97.63239316900001,None,1,1.7769437270000026,97.63239316900001,None,97.63239316900001,None,97.63239316900001,None,7.833419421000002,89.81572897099997,99.531917048,None,99.531917048,None,/Users/columbiadpml/Documents/GitHub/ebs/fMRI experiment/psychopy code/data/072821_bk1_recall_fmri_wav/recall_audio-1627504872.513.wav,0.004930905799994889,None,2,81.860510151,99.531917048,None,99.531917048,None,072821,1,3,0,3,1,1,0,54,2021_Jul_28_1639,recall_fmri,3.2.4,59.91139703492534,
0,,,,,0,0,0,0,0,0,0,0,,,,,,,,,,,,,,,,,,,,,,,,,,,,89.81859662399998,181.41760557900002,None,95.81566356099998,,,,,,,,,,,,,,,,,,,,,,,,,,072821,1,3,0,3,1,1,0,54,2021_Jul_28_1639,recall_fmri,3.2.4,59.91139703492534,
1,,,,,0,0,0,0,0,1,1,1,,,,,0,0,0,0,,,,,,,,,,,,,,,,,,,,,,,,187.417624105,None,1,1.6028111759999888,187.417624105,None,187.417624105,None,187.417624105,None,97.45002919099997,180.88323583000002,189.064266242,None,189.064266242,None,/Users/columbiadpml/Documents/GitHub/ebs/fMRI experiment/psychopy code/data/072821_bk1_recall_fmri_wav/recall_audio-1627504962.055.wav,0.012272366600029727,None,1,83.387984744,189.064266242,None,189.064266242,None,072821,1,3,0,3,1,1,0,54,2021_Jul_28_1639,recall_fmri,3.2.4,59.91139703492534,
1,,,,,0,0,0,0,0,1,1,1,,,,,,,,,,,,,,,,,,,,,,,,,,,,180.88624932500002,272.48482419100003,None,186.88268831899998,,,,,,,,,,,,,,,,,,,,,,,,,,072821,1,3,0,3,1,1,0,54,2021_Jul_28_1639,recall_fmri,3.2.4,59.91139703492534,
2,,,,,0,0,0,0,0,2,2,2,,,,,,,,,,,,,,,,,,,,,,,,,,,,186.88507069,278.49583855799995,278.49583855799995,192.89923531100004,,,,,,,,,,,,,,,,,,,,,,,,,,072821,1,3,0,3,1,1,0,54,2021_Jul_28_1639,recall_fmri,3.2.4,59.91139703492534,
3,,,,,0,0,0,0,0,3,3,3,,,,,0,0,0,0,,,,,,,,,,,,,,,,,,,,,,,,284.50166193200005,None,2,1.6867772229999787,284.50166193200005,None,284.50166193200005,None,284.50166193200005,None,194.62807740499994,352.116529704,286.24599029700005,None,286.24599029700005,None,/Users/columbiadpml/Documents/GitHub/ebs/fMRI experiment/psychopy code/data/072821_bk1_recall_fmri_wav/recall_audio-1627505059.235.wav,0.010721719600098822,None,1,157.44152500099995,286.24599029700005,None,286.24599029700005,None,072821,1,3,0,3,1,1,0,54,2021_Jul_28_1639,recall_fmri,3.2.4,59.91139703492534,
﻿count,behav_recall_instructions.thisRepN,behav_recall_instructions.thisTrialN,behav_recall_instructions.thisN,behav_recall_instructions.thisIndex,trials.thisRepN,trials.thisTrialN,trials.thisN,trials.thisIndex,trials_4.thisRepN,trials_4.thisTrialN,trials_4.thisN,trials_4.thisIndex,trials_13.thisRepN,trials_13.thisTrialN,trials_13.thisN,trials_13.thisIndex,trials_17.thisRepN,trials_17.thisTrialN,trials_17.thisN,trials_17.thisIndex,story_list_block1,action_list_block1,text_76.started,text_76.stopped,key_resp_30.keys,key_resp_30.rt,key_resp_30.started,key_resp_30.stopped,textTrigger.started,textTrigger.stopped,getTrigger.keys,getTrigger.rt,getTrigger.started,getTrigger.stopped,triggerTime,text_77.started,text_77.stopped,text_78.started,text_78.stopped,waitStart,image_23.started,image_23.stopped,waitEnd,text_41.started,text_41.stopped,key_resp_26.keys,key_resp_26.rt,key_resp_26.started,key_resp_26.stopped,text_42.started,text_42.stopped,text_51.started,text_51.stopped,recall_StartTime,recall_EndTime,image_18.started,image_18.stopped,text_69.started,text_69.stopped,recall_audio.filename,recall_audio.started,recall_audio.stopped,key_resp_25.keys,key_resp_25.rt,key_resp_25.started,key_resp_25.stopped,text_80.started,text_80.stopped,participant,sA,sB,lA,lB,block_struct,block,behavioral,random_seed,date,expName,psychopyVersion,frameRate,
,,,,,,,,,,,,,,,,,,,,,[42 31 24 11 13 22 33 44],[1 2 3 2 4 1 4 3],24.648833815000003,None,space,34.38804994799999,24.648833815000003,None,,,,,,,,,,,,,,,,,,,,,,,,,,,,,,,,,,,,,,,,,072821,1,3,0,3,1,1,0,54,2021_Jul_28_1639,recall_fmri,3.2.4,59.91139703492534,
0,,,,,0,0,0,0,0,0,0,0,,,,,0,0,0,0,,,,,,,,,59.06680183200001,None,equal,32.51756708400001,59.06680183200001,None,66.947196948,59.06680183200001,None,59.06680183200001,None,0.0003041009999833477,91.601453155,None,5.999387796999997,97.63239316900001,None,1,1.7769437270000026,97.63239316900001,None,97.63239316900001,None,97.63239316900001,None,7.833419421000002,89.81572897099997,99.531917048,None,99.531917048,None,/Users/columbiadpml/Documents/GitHub/ebs/fMRI experiment/psychopy code/data/072821_bk1_recall_fmri_wav/recall_audio-1627504872.513.wav,0.004930905799994889,None,2,81.860510151,99.531917048,None,99.531917048,None,072821,1,3,0,3,1,1,0,54,2021_Jul_28_1639,recall_fmri,3.2.4,59.91139703492534,
0,,,,,0,0,0,0,0,0,0,0,,,,,,,,,,,,,,,,,,,,,,,,,,,,89.81859662399998,181.41760557900002,None,95.81566356099998,,,,,,,,,,,,,,,,,,,,,,,,,,072821,1,3,0,3,1,1,0,54,2021_Jul_28_1639,recall_fmri,3.2.4,59.91139703492534,
1,,,,,0,0,0,0,0,1,1,1,,,,,0,0,0,0,,,,,,,,,,,,,,,,,,,,,,,,187.417624105,None,1,1.6028111759999888,187.417624105,None,187.417624105,None,187.417624105,None,97.45002919099997,180.88323583000002,189.064266242,None,189.064266242,None,/Users/columbiadpml/Documents/GitHub/ebs/fMRI experiment/psychopy code/data/072821_bk1_recall_fmri_wav/recall_audio-1627504962.055.wav,0.012272366600029727,None,1,83.387984744,189.064266242,None,189.064266242,None,072821,1,3,0,3,1,1,0,54,2021_Jul_28_1639,recall_fmri,3.2.4,59.91139703492534,
1,,,,,0,0,0,0,0,1,1,1,,,,,,,,,,,,,,,,,,,,,,,,,,,,180.88624932500002,272.48482419100003,None,186.88268831899998,,,,,,,,,,,,,,,,,,,,,,,,,,072821,1,3,0,3,1,1,0,54,2021_Jul_28_1639,recall_fmri,3.2.4,59.91139703492534,
2,,,,,0,0,0,0,0,2,2,2,,,,,,,,,,,,,,,,,,,,,,,,,,,,186.88507069,278.49583855799995,278.49583855799995,192.89923531100004,,,,,,,,,,,,,,,,,,,,,,,,,,072821,1,3,0,3,1,1,0,54,2021_Jul_28_1639,recall_fmri,3.2.4,59.91139703492534,
3,,,,,0,0,0,0,0,3,3,3,,,,,0,0,0,0,,,,,,,,,,,,,,,,,,,,,,,,284.50166193200005,None,2,1.6867772229999787,284.50166193200005,None,284.50166193200005,None,284.50166193200005,None,194.62807740499994,352.116529704,286.24599029700005,None,286.24599029700005,None,/Users/columbiadpml/Documents/GitHub/ebs/fMRI experiment/psychopy code/data/072821_bk1_recall_fmri_wav/recall_audio-1627505059.235.wav,0.010721719600098822,None,1,157.44152500099995,286.24599029700005,None,286.24599029700005,None,072821,1,3,0,3,1,1,0,54,2021_Jul_28_1639,recall_fmri,3.2.4,59.91139703492534,
3,,,,,0,0,0,0,0,3,3,3,,,,,,,,,,,,,,,,,,,,,,,,,,,,352.120144101,443.727350686,None,358.13239125599995,,,,,,,,,,,,,,,,,,,,,,,,,,072821,1,3,0,3,1,1,0,54,2021_Jul_28_1639,recall_fmri,3.2.4,59.91139703492534,
4,,,,,0,0,0,0,0,4,4,4,,,,,0,0,0,0,,,,,,,,,,,,,,,,,,,,,,,,449.743915045,None,2,1.3025338520000105,449.743915045,None,449.743915045,None,449.743915045,None,359.467496229,478.083153933,451.084839645,None,451.084839645,None,/Users/columbiadpml/Documents/GitHub/ebs/fMRI experiment/psychopy code/data/072821_bk1_recall_fmri_wav/recall_audio-1627505224.073.wav,0.012751885600096102,None,2,118.5755959060001,451.084839645,None,451.084839645,None,072821,1,3,0,3,1,1,0,54,2021_Jul_28_1639,recall_fmri,3.2.4,59.91139703492534,
﻿count,behav_recall_instructions.thisRepN,behav_recall_instructions.thisTrialN,behav_recall_instructions.thisN,behav_recall_instructions.thisIndex,trials.thisRepN,trials.thisTrialN,trials.thisN,trials.thisIndex,trials_4.thisRepN,trials_4.thisTrialN,trials_4.thisN,trials_4.thisIndex,trials_13.thisRepN,trials_13.thisTrialN,trials_13.thisN,trials_13.thisIndex,trials_17.thisRepN,trials_17.thisTrialN,trials_17.thisN,trials_17.thisIndex,story_list_block1,action_list_block1,text_76.started,text_76.stopped,key_resp_30.keys,key_resp_30.rt,key_resp_30.started,key_resp_30.stopped,textTrigger.started,textTrigger.stopped,getTrigger.keys,getTrigger.rt,getTrigger.started,getTrigger.stopped,triggerTime,text_77.started,text_77.stopped,text_78.started,text_78.stopped,waitStart,image_23.started,image_23.stopped,waitEnd,text_41.started,text_41.stopped,key_resp_26.keys,key_resp_26.rt,key_resp_26.started,key_resp_26.stopped,text_42.started,text_42.stopped,text_51.started,text_51.stopped,recall_StartTime,recall_EndTime,image_18.started,image_18.stopped,text_69.started,text_69.stopped,recall_audio.filename,recall_audio.started,recall_audio.stopped,key_resp_25.keys,key_resp_25.rt,key_resp_25.started,key_resp_25.stopped,text_80.started,text_80.stopped,participant,sA,sB,lA,lB,block_struct,block,behavioral,random_seed,date,expName,psychopyVersion,frameRate,
,,,,,,,,,,,,,,,,,,,,,[42 31 24 11 13 22 33 44],[1 2 3 2 4 1 4 3],24.648833815000003,None,space,34.38804994799999,24.648833815000003,None,,,,,,,,,,,,,,,,,,,,,,,,,,,,,,,,,,,,,,,,,072821,1,3,0,3,1,1,0,54,2021_Jul_28_1639,recall_fmri,3.2.4,59.91139703492534,
0,,,,,0,0,0,0,0,0,0,0,,,,,0,0,0,0,,,,,,,,,59.06680183200001,None,equal,32.51756708400001,59.06680183200001,None,66.947196948,59.06680183200001,None,59.06680183200001,None,0.0003041009999833477,91.601453155,None,5.999387796999997,97.63239316900001,None,1,1.7769437270000026,97.63239316900001,None,97.63239316900001,None,97.63239316900001,None,7.833419421000002,89.81572897099997,99.531917048,None,99.531917048,None,/Users/columbiadpml/Documents/GitHub/ebs/fMRI experiment/psychopy code/data/072821_bk1_recall_fmri_wav/recall_audio-1627504872.513.wav,0.004930905799994889,None,2,81.860510151,99.531917048,None,99.531917048,None,072821,1,3,0,3,1,1,0,54,2021_Jul_28_1639,recall_fmri,3.2.4,59.91139703492534,
0,,,,,0,0,0,0,0,0,0,0,,,,,,,,,,,,,,,,,,,,,,,,,,,,89.81859662399998,181.41760557900002,None,95.81566356099998,,,,,,,,,,,,,,,,,,,,,,,,,,072821,1,3,0,3,1,1,0,54,2021_Jul_28_1639,recall_fmri,3.2.4,59.91139703492534,
1,,,,,0,0,0,0,0,1,1,1,,,,,0,0,0,0,,,,,,,,,,,,,,,,,,,,,,,,187.417624105,None,1,1.6028111759999888,187.417624105,None,187.417624105,None,187.417624105,None,97.45002919099997,180.88323583000002,189.064266242,None,189.064266242,None,/Users/columbiadpml/Documents/GitHub/ebs/fMRI experiment/psychopy code/data/072821_bk1_recall_fmri_wav/recall_audio-1627504962.055.wav,0.012272366600029727,None,1,83.387984744,189.064266242,None,189.064266242,None,072821,1,3,0,3,1,1,0,54,2021_Jul_28_1639,recall_fmri,3.2.4,59.91139703492534,
1,,,,,0,0,0,0,0,1,1,1,,,,,,,,,,,,,,,,,,,,,,,,,,,,180.88624932500002,272.48482419100003,None,186.88268831899998,,,,,,,,,,,,,,,,,,,,,,,,,,072821,1,3,0,3,1,1,0,54,2021_Jul_28_1639,recall_fmri,3.2.4,59.91139703492534,
2,,,,,0,0,0,0,0,2,2,2,,,,,,,,,,,,,,,,,,,,,,,,,,,,186.88507069,278.49583855799995,278.49583855799995,192.89923531100004,,,,,,,,,,,,,,,,,,,,,,,,,,072821,1,3,0,3,1,1,0,54,2021_Jul_28_1639,recall_fmri,3.2.4,59.91139703492534,
3,,,,,0,0,0,0,0,3,3,3,,,,,0,0,0,0,,,,,,,,,,,,,,,,,,,,,,,,284.50166193200005,None,2,1.6867772229999787,284.50166193200005,None,284.50166193200005,None,284.50166193200005,None,194.62807740499994,352.116529704,286.24599029700005,None,286.24599029700005,None,/Users/columbiadpml/Documents/GitHub/ebs/fMRI experiment/psychopy code/data/072821_bk1_recall_fmri_wav/recall_audio-1627505059.235.wav,0.010721719600098822,None,1,157.44152500099995,286.24599029700005,None,286.24599029700005,None,072821,1,3,0,3,1,1,0,54,2021_Jul_28_1639,recall_fmri,3.2.4,59.91139703492534,
3,,,,,0,0,0,0,0,3,3,3,,,,,,,,,,,,,,,,,,,,,,,,,,,,352.120144101,443.727350686,None,358.13239125599995,,,,,,,,,,,,,,,,,,,,,,,,,,072821,1,3,0,3,1,1,0,54,2021_Jul_28_1639,recall_fmri,3.2.4,59.91139703492534,
4,,,,,0,0,0,0,0,4,4,4,,,,,0,0,0,0,,,,,,,,,,,,,,,,,,,,,,,,449.743915045,None,2,1.3025338520000105,449.743915045,None,449.743915045,None,449.743915045,None,359.467496229,478.083153933,451.084839645,None,451.084839645,None,/Users/columbiadpml/Documents/GitHub/ebs/fMRI experiment/psychopy code/data/072821_bk1_recall_fmri_wav/recall_audio-1627505224.073.wav,0.012751885600096102,None,2,118.5755959060001,451.084839645,None,451.084839645,None,072821,1,3,0,3,1,1,0,54,2021_Jul_28_1639,recall_fmri,3.2.4,59.91139703492534,
4,,,,,0,0,0,0,0,4,4,4,,,,,,,,,,,,,,,,,,,,,,,,,,,,478.087031752,569.684112537,None,484.08955284999996,,,,,,,,,,,,,,,,,,,,,,,,,,072821,1,3,0,3,1,1,0,54,2021_Jul_28_1639,recall_fmri,3.2.4,59.91139703492534,
5,,,,,0,0,0,0,0,5,5,5,,,,,0,0,0,0,,,,,,,,,,,,,,,,,,,,,,,,575.692079773,None,1,1.2813852040000029,575.692079773,None,575.692079773,None,575.692079773,None,485.400306566,613.4051384469999,577.018304154,None,577.018304154,None,/Users/columbiadpml/Documents/GitHub/ebs/fMRI experiment/psychopy code/data/072821_bk1_recall_fmri_wav/recall_audio-1627505350.008.wav,0.010581029599961767,None,2,127.969141434,577.018304154,None,577.018304154,None,072821,1,3,0,3,1,1,0,54,2021_Jul_28_1639,recall_fmri,3.2.4,59.91139703492534,
﻿count,behav_recall_instructions.thisRepN,behav_recall_instructions.thisTrialN,behav_recall_instructions.thisN,behav_recall_instructions.thisIndex,trials.thisRepN,trials.thisTrialN,trials.thisN,trials.thisIndex,trials_4.thisRepN,trials_4.thisTrialN,trials_4.thisN,trials_4.thisIndex,trials_13.thisRepN,trials_13.thisTrialN,trials_13.thisN,trials_13.thisIndex,trials_17.thisRepN,trials_17.thisTrialN,trials_17.thisN,trials_17.thisIndex,story_list_block1,action_list_block1,text_76.started,text_76.stopped,key_resp_30.keys,key_resp_30.rt,key_resp_30.started,key_resp_30.stopped,textTrigger.started,textTrigger.stopped,getTrigger.keys,getTrigger.rt,getTrigger.started,getTrigger.stopped,triggerTime,text_77.started,text_77.stopped,text_78.started,text_78.stopped,waitStart,image_23.started,image_23.stopped,waitEnd,text_41.started,text_41.stopped,key_resp_26.keys,key_resp_26.rt,key_resp_26.started,key_resp_26.stopped,text_42.started,text_42.stopped,text_51.started,text_51.stopped,recall_StartTime,recall_EndTime,image_18.started,image_18.stopped,text_69.started,text_69.stopped,recall_audio.filename,recall_audio.started,recall_audio.stopped,key_resp_25.keys,key_resp_25.rt,key_resp_25.started,key_resp_25.stopped,text_80.started,text_80.stopped,participant,sA,sB,lA,lB,block_struct,block,behavioral,random_seed,date,expName,psychopyVersion,frameRate,
,,,,,,,,,,,,,,,,,,,,,[42 31 24 11 13 22 33 44],[1 2 3 2 4 1 4 3],9.175586745999908,None,space,32.79823086199997,9.175586745999908,None,,,,,,,,,,,,,,,,,,,,,,,,,,,,,,,,,,,,,,,,,072821,1,3,0,3,1,1,0,54,2021_Jul_28_1653,recall_fmri,3.2.4,60.24604883970856,
0,,,,,0,0,0,0,0,0,0,0,,,,,0,0,0,0,,,,,,,,,41.99406194699998,None,equal,17.248922437000033,41.99406194699998,None,50.08025228700001,41.99406194699998,None,41.99406194699998,None,0.00034471700007543404,59.26159337699994,None,5.999378891000106,65.26068662199998,None,space,0.6074043429999847,65.26068662199998,None,65.26068662199998,None,65.26068662199998,None,6.6335235669999975,7.099473388000092,65.99271678499997,None,65.99271678499997,None,/Users/columbiadpml/Documents/GitHub/ebs/fMRI experiment/psychopy code/data/072821_bk1_recall_fmri_wav/recall_audio-1627505694.967.wav,0.011231338600055096,None,space,0.3371224559999746,65.99271678499997,None,65.99271678499997,None,072821,1,3,0,3,1,1,0,54,2021_Jul_28_1653,recall_fmri,3.2.4,60.24604883970856,
﻿count,behav_recall_instructions.thisRepN,behav_recall_instructions.thisTrialN,behav_recall_instructions.thisN,behav_recall_instructions.thisIndex,trials.thisRepN,trials.thisTrialN,trials.thisN,trials.thisIndex,trials_4.thisRepN,trials_4.thisTrialN,trials_4.thisN,trials_4.thisIndex,trials_13.thisRepN,trials_13.thisTrialN,trials_13.thisN,trials_13.thisIndex,trials_17.thisRepN,trials_17.thisTrialN,trials_17.thisN,trials_17.thisIndex,story_list_block1,action_list_block1,text_76.started,text_76.stopped,key_resp_30.keys,key_resp_30.rt,key_resp_30.started,key_resp_30.stopped,textTrigger.started,textTrigger.stopped,getTrigger.keys,getTrigger.rt,getTrigger.started,getTrigger.stopped,triggerTime,text_77.started,text_77.stopped,text_78.started,text_78.stopped,waitStart,image_23.started,image_23.stopped,waitEnd,text_41.started,text_41.stopped,key_resp_26.keys,key_resp_26.rt,key_resp_26.started,key_resp_26.stopped,text_42.started,text_42.stopped,text_51.started,text_51.stopped,recall_StartTime,recall_EndTime,image_18.started,image_18.stopped,text_69.started,text_69.stopped,recall_audio.filename,recall_audio.started,recall_audio.stopped,key_resp_25.keys,key_resp_25.rt,key_resp_25.started,key_resp_25.stopped,text_80.started,text_80.stopped,participant,sA,sB,lA,lB,block_struct,block,behavioral,random_seed,date,expName,psychopyVersion,frameRate,
,,,,,,,,,,,,,,,,,,,,,[42 31 24 11 13 22 33 44],[1 2 3 2 4 1 4 3],9.175586745999908,None,space,32.79823086199997,9.175586745999908,None,,,,,,,,,,,,,,,,,,,,,,,,,,,,,,,,,,,,,,,,,072821,1,3,0,3,1,1,0,54,2021_Jul_28_1653,recall_fmri,3.2.4,60.24604883970856,
0,,,,,0,0,0,0,0,0,0,0,,,,,0,0,0,0,,,,,,,,,41.99406194699998,None,equal,17.248922437000033,41.99406194699998,None,50.08025228700001,41.99406194699998,None,41.99406194699998,None,0.00034471700007543404,59.26159337699994,None,5.999378891000106,65.26068662199998,None,space,0.6074043429999847,65.26068662199998,None,65.26068662199998,None,65.26068662199998,None,6.6335235669999975,7.099473388000092,65.99271678499997,None,65.99271678499997,None,/Users/columbiadpml/Documents/GitHub/ebs/fMRI experiment/psychopy code/data/072821_bk1_recall_fmri_wav/recall_audio-1627505694.967.wav,0.011231338600055096,None,space,0.3371224559999746,65.99271678499997,None,65.99271678499997,None,072821,1,3,0,3,1,1,0,54,2021_Jul_28_1653,recall_fmri,3.2.4,60.24604883970856,
0,,,,,0,0,0,0,0,0,0,0,,,,,,,,,,,,,,,,,,,,,,,,,,,,7.102632837000101,66.36153960899992,None,13.099139148000063,,,,,,,,,,,,,,,,,,,,,,,,,,072821,1,3,0,3,1,1,0,54,2021_Jul_28_1653,recall_fmri,3.2.4,60.24604883970856,
1,,,,,0,0,0,0,0,1,1,1,,,,,0,0,0,0,,,,,,,,,,,,,,,,,,,,,,,,72.36126514799992,None,space,0.4947350730000153,72.36126514799992,None,72.36126514799992,None,72.36126514799992,None,13.616585013000076,13.932416775000092,72.89211776299999,None,72.89211776299999,None,/Users/columbiadpml/Documents/GitHub/ebs/fMRI experiment/psychopy code/data/072821_bk1_recall_fmri_wav/recall_audio-1627505701.877.wav,0.0008203885998909755,None,space,0.2845512100000178,72.89211776299999,None,72.89211776299999,None,072821,1,3,0,3,1,1,0,54,2021_Jul_28_1653,recall_fmri,3.2.4,60.24604883970856,
﻿count,behav_recall_instructions.thisRepN,behav_recall_instructions.thisTrialN,behav_recall_instructions.thisN,behav_recall_instructions.thisIndex,trials.thisRepN,trials.thisTrialN,trials.thisN,trials.thisIndex,trials_4.thisRepN,trials_4.thisTrialN,trials_4.thisN,trials_4.thisIndex,trials_13.thisRepN,trials_13.thisTrialN,trials_13.thisN,trials_13.thisIndex,trials_17.thisRepN,trials_17.thisTrialN,trials_17.thisN,trials_17.thisIndex,story_list_block1,action_list_block1,text_76.started,text_76.stopped,key_resp_30.keys,key_resp_30.rt,key_resp_30.started,key_resp_30.stopped,textTrigger.started,textTrigger.stopped,getTrigger.keys,getTrigger.rt,getTrigger.started,getTrigger.stopped,triggerTime,text_77.started,text_77.stopped,text_78.started,text_78.stopped,waitStart,image_23.started,image_23.stopped,waitEnd,text_41.started,text_41.stopped,key_resp_26.keys,key_resp_26.rt,key_resp_26.started,key_resp_26.stopped,text_42.started,text_42.stopped,text_51.started,text_51.stopped,recall_StartTime,recall_EndTime,image_18.started,image_18.stopped,text_69.started,text_69.stopped,recall_audio.filename,recall_audio.started,recall_audio.stopped,key_resp_25.keys,key_resp_25.rt,key_resp_25.started,key_resp_25.stopped,text_80.started,text_80.stopped,participant,sA,sB,lA,lB,block_struct,block,behavioral,random_seed,date,expName,psychopyVersion,frameRate,
,,,,,,,,,,,,,,,,,,,,,[42 31 24 11 13 22 33 44],[1 2 3 2 4 1 4 3],9.175586745999908,None,space,32.79823086199997,9.175586745999908,None,,,,,,,,,,,,,,,,,,,,,,,,,,,,,,,,,,,,,,,,,072821,1,3,0,3,1,1,0,54,2021_Jul_28_1653,recall_fmri,3.2.4,60.24604883970856,
0,,,,,0,0,0,0,0,0,0,0,,,,,0,0,0,0,,,,,,,,,41.99406194699998,None,equal,17.248922437000033,41.99406194699998,None,50.08025228700001,41.99406194699998,None,41.99406194699998,None,0.00034471700007543404,59.26159337699994,None,5.999378891000106,65.26068662199998,None,space,0.6074043429999847,65.26068662199998,None,65.26068662199998,None,65.26068662199998,None,6.6335235669999975,7.099473388000092,65.99271678499997,None,65.99271678499997,None,/Users/columbiadpml/Documents/GitHub/ebs/fMRI experiment/psychopy code/data/072821_bk1_recall_fmri_wav/recall_audio-1627505694.967.wav,0.011231338600055096,None,space,0.3371224559999746,65.99271678499997,None,65.99271678499997,None,072821,1,3,0,3,1,1,0,54,2021_Jul_28_1653,recall_fmri,3.2.4,60.24604883970856,
0,,,,,0,0,0,0,0,0,0,0,,,,,,,,,,,,,,,,,,,,,,,,,,,,7.102632837000101,66.36153960899992,None,13.099139148000063,,,,,,,,,,,,,,,,,,,,,,,,,,072821,1,3,0,3,1,1,0,54,2021_Jul_28_1653,recall_fmri,3.2.4,60.24604883970856,
1,,,,,0,0,0,0,0,1,1,1,,,,,0,0,0,0,,,,,,,,,,,,,,,,,,,,,,,,72.36126514799992,None,space,0.4947350730000153,72.36126514799992,None,72.36126514799992,None,72.36126514799992,None,13.616585013000076,13.932416775000092,72.89211776299999,None,72.89211776299999,None,/Users/columbiadpml/Documents/GitHub/ebs/fMRI experiment/psychopy code/data/072821_bk1_recall_fmri_wav/recall_audio-1627505701.877.wav,0.0008203885998909755,None,space,0.2845512100000178,72.89211776299999,None,72.89211776299999,None,072821,1,3,0,3,1,1,0,54,2021_Jul_28_1653,recall_fmri,3.2.4,60.24604883970856,
1,,,,,0,0,0,0,0,1,1,1,,,,,,,,,,,,,,,,,,,,,,,,,,,,13.935151425000072,73.19502260799993,None,19.932851999000036,,,,,,,,,,,,,,,,,,,,,,,,,,072821,1,3,0,3,1,1,0,54,2021_Jul_28_1653,recall_fmri,3.2.4,60.24604883970856,
﻿count,behav_recall_instructions.thisRepN,behav_recall_instructions.thisTrialN,behav_recall_instructions.thisN,behav_recall_instructions.thisIndex,trials.thisRepN,trials.thisTrialN,trials.thisN,trials.thisIndex,trials_4.thisRepN,trials_4.thisTrialN,trials_4.thisN,trials_4.thisIndex,trials_13.thisRepN,trials_13.thisTrialN,trials_13.thisN,trials_13.thisIndex,trials_17.thisRepN,trials_17.thisTrialN,trials_17.thisN,trials_17.thisIndex,story_list_block1,action_list_block1,text_76.started,text_76.stopped,key_resp_30.keys,key_resp_30.rt,key_resp_30.started,key_resp_30.stopped,textTrigger.started,textTrigger.stopped,getTrigger.keys,getTrigger.rt,getTrigger.started,getTrigger.stopped,triggerTime,text_77.started,text_77.stopped,text_78.started,text_78.stopped,waitStart,image_23.started,image_23.stopped,waitEnd,text_41.started,text_41.stopped,key_resp_26.keys,key_resp_26.rt,key_resp_26.started,key_resp_26.stopped,text_42.started,text_42.stopped,text_51.started,text_51.stopped,recall_StartTime,recall_EndTime,image_18.started,image_18.stopped,text_69.started,text_69.stopped,recall_audio.filename,recall_audio.started,recall_audio.stopped,key_resp_25.keys,key_resp_25.rt,key_resp_25.started,key_resp_25.stopped,text_80.started,text_80.stopped,participant,sA,sB,lA,lB,block_struct,block,behavioral,random_seed,date,expName,psychopyVersion,frameRate,
,,,,,,,,,,,,,,,,,,,,,[42 31 24 11 13 22 33 44],[1 2 3 2 4 1 4 3],9.175586745999908,None,space,32.79823086199997,9.175586745999908,None,,,,,,,,,,,,,,,,,,,,,,,,,,,,,,,,,,,,,,,,,072821,1,3,0,3,1,1,0,54,2021_Jul_28_1653,recall_fmri,3.2.4,60.24604883970856,
0,,,,,0,0,0,0,0,0,0,0,,,,,0,0,0,0,,,,,,,,,41.99406194699998,None,equal,17.248922437000033,41.99406194699998,None,50.08025228700001,41.99406194699998,None,41.99406194699998,None,0.00034471700007543404,59.26159337699994,None,5.999378891000106,65.26068662199998,None,space,0.6074043429999847,65.26068662199998,None,65.26068662199998,None,65.26068662199998,None,6.6335235669999975,7.099473388000092,65.99271678499997,None,65.99271678499997,None,/Users/columbiadpml/Documents/GitHub/ebs/fMRI experiment/psychopy code/data/072821_bk1_recall_fmri_wav/recall_audio-1627505694.967.wav,0.011231338600055096,None,space,0.3371224559999746,65.99271678499997,None,65.99271678499997,None,072821,1,3,0,3,1,1,0,54,2021_Jul_28_1653,recall_fmri,3.2.4,60.24604883970856,
0,,,,,0,0,0,0,0,0,0,0,,,,,,,,,,,,,,,,,,,,,,,,,,,,7.102632837000101,66.36153960899992,None,13.099139148000063,,,,,,,,,,,,,,,,,,,,,,,,,,072821,1,3,0,3,1,1,0,54,2021_Jul_28_1653,recall_fmri,3.2.4,60.24604883970856,
1,,,,,0,0,0,0,0,1,1,1,,,,,0,0,0,0,,,,,,,,,,,,,,,,,,,,,,,,72.36126514799992,None,space,0.4947350730000153,72.36126514799992,None,72.36126514799992,None,72.36126514799992,None,13.616585013000076,13.932416775000092,72.89211776299999,None,72.89211776299999,None,/Users/columbiadpml/Documents/GitHub/ebs/fMRI experiment/psychopy code/data/072821_bk1_recall_fmri_wav/recall_audio-1627505701.877.wav,0.0008203885998909755,None,space,0.2845512100000178,72.89211776299999,None,72.89211776299999,None,072821,1,3,0,3,1,1,0,54,2021_Jul_28_1653,recall_fmri,3.2.4,60.24604883970856,
1,,,,,0,0,0,0,0,1,1,1,,,,,,,,,,,,,,,,,,,,,,,,,,,,13.935151425000072,73.19502260799993,None,19.932851999000036,,,,,,,,,,,,,,,,,,,,,,,,,,072821,1,3,0,3,1,1,0,54,2021_Jul_28_1653,recall_fmri,3.2.4,60.24604883970856,
2,,,,,0,0,0,0,0,2,2,2,,,,,,,,,,,,,,,,,,,,,,,,,,,,19.935715254,79.19508340200002,79.19508340200002,25.932598400000074,,,,,,,,,,,,,,,,,,,,,,,,,,072821,1,3,0,3,1,1,0,54,2021_Jul_28_1653,recall_fmri,3.2.4,60.24604883970856,
3,,,,,0,0,0,0,0,3,3,3,,,,,0,0,0,0,,,,,,,,,,,,,,,,,,,,,,,,85.19439777699984,None,space,0.5017064270000446,85.19439777699984,None,85.19439777699984,None,85.19439777699984,None,26.466997965000132,26.899733260000062,85.74235951000003,None,85.74235951000003,None,/Users/columbiadpml/Documents/GitHub/ebs/fMRI experiment/psychopy code/data/072821_bk1_recall_fmri_wav/recall_audio-1627505714.728.wav,0.0011481585997898947,None,space,0.39483200700010457,85.74235951000003,None,85.74235951000003,None,072821,1,3,0,3,1,1,0,54,2021_Jul_28_1653,recall_fmri,3.2.4,60.24604883970856,
﻿count,behav_recall_instructions.thisRepN,behav_recall_instructions.thisTrialN,behav_recall_instructions.thisN,behav_recall_instructions.thisIndex,trials.thisRepN,trials.thisTrialN,trials.thisN,trials.thisIndex,trials_4.thisRepN,trials_4.thisTrialN,trials_4.thisN,trials_4.thisIndex,trials_13.thisRepN,trials_13.thisTrialN,trials_13.thisN,trials_13.thisIndex,trials_17.thisRepN,trials_17.thisTrialN,trials_17.thisN,trials_17.thisIndex,story_list_block1,action_list_block1,text_76.started,text_76.stopped,key_resp_30.keys,key_resp_30.rt,key_resp_30.started,key_resp_30.stopped,textTrigger.started,textTrigger.stopped,getTrigger.keys,getTrigger.rt,getTrigger.started,getTrigger.stopped,triggerTime,text_77.started,text_77.stopped,text_78.started,text_78.stopped,waitStart,image_23.started,image_23.stopped,waitEnd,text_41.started,text_41.stopped,key_resp_26.keys,key_resp_26.rt,key_resp_26.started,key_resp_26.stopped,text_42.started,text_42.stopped,text_51.started,text_51.stopped,recall_StartTime,recall_EndTime,image_18.started,image_18.stopped,text_69.started,text_69.stopped,recall_audio.filename,recall_audio.started,recall_audio.stopped,key_resp_25.keys,key_resp_25.rt,key_resp_25.started,key_resp_25.stopped,text_80.started,text_80.stopped,participant,sA,sB,lA,lB,block_struct,block,behavioral,random_seed,date,expName,psychopyVersion,frameRate,
,,,,,,,,,,,,,,,,,,,,,[42 31 24 11 13 22 33 44],[1 2 3 2 4 1 4 3],9.175586745999908,None,space,32.79823086199997,9.175586745999908,None,,,,,,,,,,,,,,,,,,,,,,,,,,,,,,,,,,,,,,,,,072821,1,3,0,3,1,1,0,54,2021_Jul_28_1653,recall_fmri,3.2.4,60.24604883970856,
0,,,,,0,0,0,0,0,0,0,0,,,,,0,0,0,0,,,,,,,,,41.99406194699998,None,equal,17.248922437000033,41.99406194699998,None,50.08025228700001,41.99406194699998,None,41.99406194699998,None,0.00034471700007543404,59.26159337699994,None,5.999378891000106,65.26068662199998,None,space,0.6074043429999847,65.26068662199998,None,65.26068662199998,None,65.26068662199998,None,6.6335235669999975,7.099473388000092,65.99271678499997,None,65.99271678499997,None,/Users/columbiadpml/Documents/GitHub/ebs/fMRI experiment/psychopy code/data/072821_bk1_recall_fmri_wav/recall_audio-1627505694.967.wav,0.011231338600055096,None,space,0.3371224559999746,65.99271678499997,None,65.99271678499997,None,072821,1,3,0,3,1,1,0,54,2021_Jul_28_1653,recall_fmri,3.2.4,60.24604883970856,
0,,,,,0,0,0,0,0,0,0,0,,,,,,,,,,,,,,,,,,,,,,,,,,,,7.102632837000101,66.36153960899992,None,13.099139148000063,,,,,,,,,,,,,,,,,,,,,,,,,,072821,1,3,0,3,1,1,0,54,2021_Jul_28_1653,recall_fmri,3.2.4,60.24604883970856,
1,,,,,0,0,0,0,0,1,1,1,,,,,0,0,0,0,,,,,,,,,,,,,,,,,,,,,,,,72.36126514799992,None,space,0.4947350730000153,72.36126514799992,None,72.36126514799992,None,72.36126514799992,None,13.616585013000076,13.932416775000092,72.89211776299999,None,72.89211776299999,None,/Users/columbiadpml/Documents/GitHub/ebs/fMRI experiment/psychopy code/data/072821_bk1_recall_fmri_wav/recall_audio-1627505701.877.wav,0.0008203885998909755,None,space,0.2845512100000178,72.89211776299999,None,72.89211776299999,None,072821,1,3,0,3,1,1,0,54,2021_Jul_28_1653,recall_fmri,3.2.4,60.24604883970856,
1,,,,,0,0,0,0,0,1,1,1,,,,,,,,,,,,,,,,,,,,,,,,,,,,13.935151425000072,73.19502260799993,None,19.932851999000036,,,,,,,,,,,,,,,,,,,,,,,,,,072821,1,3,0,3,1,1,0,54,2021_Jul_28_1653,recall_fmri,3.2.4,60.24604883970856,
2,,,,,0,0,0,0,0,2,2,2,,,,,,,,,,,,,,,,,,,,,,,,,,,,19.935715254,79.19508340200002,79.19508340200002,25.932598400000074,,,,,,,,,,,,,,,,,,,,,,,,,,072821,1,3,0,3,1,1,0,54,2021_Jul_28_1653,recall_fmri,3.2.4,60.24604883970856,
3,,,,,0,0,0,0,0,3,3,3,,,,,0,0,0,0,,,,,,,,,,,,,,,,,,,,,,,,85.19439777699984,None,space,0.5017064270000446,85.19439777699984,None,85.19439777699984,None,85.19439777699984,None,26.466997965000132,26.899733260000062,85.74235951000003,None,85.74235951000003,None,/Users/columbiadpml/Documents/GitHub/ebs/fMRI experiment/psychopy code/data/072821_bk1_recall_fmri_wav/recall_audio-1627505714.728.wav,0.0011481585997898947,None,space,0.39483200700010457,85.74235951000003,None,85.74235951000003,None,072821,1,3,0,3,1,1,0,54,2021_Jul_28_1653,recall_fmri,3.2.4,60.24604883970856,
3,,,,,0,0,0,0,0,3,3,3,,,,,,,,,,,,,,,,,,,,,,,,,,,,26.902844200999994,86.1613931149999,None,32.898777029000144,,,,,,,,,,,,,,,,,,,,,,,,,,072821,1,3,0,3,1,1,0,54,2021_Jul_28_1653,recall_fmri,3.2.4,60.24604883970856,
4,,,,,0,0,0,0,0,4,4,4,,,,,0,0,0,0,,,,,,,,,,,,,,,,,,,,,,,,92.16153813199992,None,space,0.5435555130000012,92.16153813199992,None,92.16153813199992,None,92.16153813199992,None,33.46723926900006,33.864805718999946,92.74185892000003,None,92.74185892000003,None,/Users/columbiadpml/Documents/GitHub/ebs/fMRI experiment/psychopy code/data/072821_bk1_recall_fmri_wav/recall_audio-1627505721.728.wav,0.0007594716000767221,None,space,0.36701360200004274,92.74185892000003,None,92.74185892000003,None,072821,1,3,0,3,1,1,0,54,2021_Jul_28_1653,recall_fmri,3.2.4,60.24604883970856,
﻿count,behav_recall_instructions.thisRepN,behav_recall_instructions.thisTrialN,behav_recall_instructions.thisN,behav_recall_instructions.thisIndex,trials.thisRepN,trials.thisTrialN,trials.thisN,trials.thisIndex,trials_4.thisRepN,trials_4.thisTrialN,trials_4.thisN,trials_4.thisIndex,trials_13.thisRepN,trials_13.thisTrialN,trials_13.thisN,trials_13.thisIndex,trials_17.thisRepN,trials_17.thisTrialN,trials_17.thisN,trials_17.thisIndex,story_list_block1,action_list_block1,text_76.started,text_76.stopped,key_resp_30.keys,key_resp_30.rt,key_resp_30.started,key_resp_30.stopped,textTrigger.started,textTrigger.stopped,getTrigger.keys,getTrigger.rt,getTrigger.started,getTrigger.stopped,triggerTime,text_77.started,text_77.stopped,text_78.started,text_78.stopped,waitStart,image_23.started,image_23.stopped,waitEnd,text_41.started,text_41.stopped,key_resp_26.keys,key_resp_26.rt,key_resp_26.started,key_resp_26.stopped,text_42.started,text_42.stopped,text_51.started,text_51.stopped,recall_StartTime,recall_EndTime,image_18.started,image_18.stopped,text_69.started,text_69.stopped,recall_audio.filename,recall_audio.started,recall_audio.stopped,key_resp_25.keys,key_resp_25.rt,key_resp_25.started,key_resp_25.stopped,text_80.started,text_80.stopped,participant,sA,sB,lA,lB,block_struct,block,behavioral,random_seed,date,expName,psychopyVersion,frameRate,
,,,,,,,,,,,,,,,,,,,,,[42 31 24 11 13 22 33 44],[1 2 3 2 4 1 4 3],9.175586745999908,None,space,32.79823086199997,9.175586745999908,None,,,,,,,,,,,,,,,,,,,,,,,,,,,,,,,,,,,,,,,,,072821,1,3,0,3,1,1,0,54,2021_Jul_28_1653,recall_fmri,3.2.4,60.24604883970856,
0,,,,,0,0,0,0,0,0,0,0,,,,,0,0,0,0,,,,,,,,,41.99406194699998,None,equal,17.248922437000033,41.99406194699998,None,50.08025228700001,41.99406194699998,None,41.99406194699998,None,0.00034471700007543404,59.26159337699994,None,5.999378891000106,65.26068662199998,None,space,0.6074043429999847,65.26068662199998,None,65.26068662199998,None,65.26068662199998,None,6.6335235669999975,7.099473388000092,65.99271678499997,None,65.99271678499997,None,/Users/columbiadpml/Documents/GitHub/ebs/fMRI experiment/psychopy code/data/072821_bk1_recall_fmri_wav/recall_audio-1627505694.967.wav,0.011231338600055096,None,space,0.3371224559999746,65.99271678499997,None,65.99271678499997,None,072821,1,3,0,3,1,1,0,54,2021_Jul_28_1653,recall_fmri,3.2.4,60.24604883970856,
0,,,,,0,0,0,0,0,0,0,0,,,,,,,,,,,,,,,,,,,,,,,,,,,,7.102632837000101,66.36153960899992,None,13.099139148000063,,,,,,,,,,,,,,,,,,,,,,,,,,072821,1,3,0,3,1,1,0,54,2021_Jul_28_1653,recall_fmri,3.2.4,60.24604883970856,
1,,,,,0,0,0,0,0,1,1,1,,,,,0,0,0,0,,,,,,,,,,,,,,,,,,,,,,,,72.36126514799992,None,space,0.4947350730000153,72.36126514799992,None,72.36126514799992,None,72.36126514799992,None,13.616585013000076,13.932416775000092,72.89211776299999,None,72.89211776299999,None,/Users/columbiadpml/Documents/GitHub/ebs/fMRI experiment/psychopy code/data/072821_bk1_recall_fmri_wav/recall_audio-1627505701.877.wav,0.0008203885998909755,None,space,0.2845512100000178,72.89211776299999,None,72.89211776299999,None,072821,1,3,0,3,1,1,0,54,2021_Jul_28_1653,recall_fmri,3.2.4,60.24604883970856,
1,,,,,0,0,0,0,0,1,1,1,,,,,,,,,,,,,,,,,,,,,,,,,,,,13.935151425000072,73.19502260799993,None,19.932851999000036,,,,,,,,,,,,,,,,,,,,,,,,,,072821,1,3,0,3,1,1,0,54,2021_Jul_28_1653,recall_fmri,3.2.4,60.24604883970856,
2,,,,,0,0,0,0,0,2,2,2,,,,,,,,,,,,,,,,,,,,,,,,,,,,19.935715254,79.19508340200002,79.19508340200002,25.932598400000074,,,,,,,,,,,,,,,,,,,,,,,,,,072821,1,3,0,3,1,1,0,54,2021_Jul_28_1653,recall_fmri,3.2.4,60.24604883970856,
3,,,,,0,0,0,0,0,3,3,3,,,,,0,0,0,0,,,,,,,,,,,,,,,,,,,,,,,,85.19439777699984,None,space,0.5017064270000446,85.19439777699984,None,85.19439777699984,None,85.19439777699984,None,26.466997965000132,26.899733260000062,85.74235951000003,None,85.74235951000003,None,/Users/columbiadpml/Documents/GitHub/ebs/fMRI experiment/psychopy code/data/072821_bk1_recall_fmri_wav/recall_audio-1627505714.728.wav,0.0011481585997898947,None,space,0.39483200700010457,85.74235951000003,None,85.74235951000003,None,072821,1,3,0,3,1,1,0,54,2021_Jul_28_1653,recall_fmri,3.2.4,60.24604883970856,
3,,,,,0,0,0,0,0,3,3,3,,,,,,,,,,,,,,,,,,,,,,,,,,,,26.902844200999994,86.1613931149999,None,32.898777029000144,,,,,,,,,,,,,,,,,,,,,,,,,,072821,1,3,0,3,1,1,0,54,2021_Jul_28_1653,recall_fmri,3.2.4,60.24604883970856,
4,,,,,0,0,0,0,0,4,4,4,,,,,0,0,0,0,,,,,,,,,,,,,,,,,,,,,,,,92.16153813199992,None,space,0.5435555130000012,92.16153813199992,None,92.16153813199992,None,92.16153813199992,None,33.46723926900006,33.864805718999946,92.74185892000003,None,92.74185892000003,None,/Users/columbiadpml/Documents/GitHub/ebs/fMRI experiment/psychopy code/data/072821_bk1_recall_fmri_wav/recall_audio-1627505721.728.wav,0.0007594716000767221,None,space,0.36701360200004274,92.74185892000003,None,92.74185892000003,None,072821,1,3,0,3,1,1,0,54,2021_Jul_28_1653,recall_fmri,3.2.4,60.24604883970856,
4,,,,,0,0,0,0,0,4,4,4,,,,,,,,,,,,,,,,,,,,,,,,,,,,33.86842471500006,93.12768890299992,None,39.865181703000076,,,,,,,,,,,,,,,,,,,,,,,,,,072821,1,3,0,3,1,1,0,54,2021_Jul_28_1653,recall_fmri,3.2.4,60.24604883970856,
5,,,,,0,0,0,0,0,5,5,5,,,,,0,0,0,0,,,,,,,,,,,,,,,,,,,,,,,,99.1280527319999,None,space,0.7196095109998168,99.1280527319999,None,99.1280527319999,None,99.1280527319999,None,40.61663079200014,41.01526225200007,99.89158943999985,None,99.89158943999985,None,/Users/columbiadpml/Documents/GitHub/ebs/fMRI experiment/psychopy code/data/072821_bk1_recall_fmri_wav/recall_audio-1627505728.880.wav,0.015260718200124757,None,space,0.35894017700002223,99.89158943999985,None,99.89158943999985,None,072821,1,3,0,3,1,1,0,54,2021_Jul_28_1653,recall_fmri,3.2.4,60.24604883970856,
﻿count,behav_recall_instructions.thisRepN,behav_recall_instructions.thisTrialN,behav_recall_instructions.thisN,behav_recall_instructions.thisIndex,trials.thisRepN,trials.thisTrialN,trials.thisN,trials.thisIndex,trials_4.thisRepN,trials_4.thisTrialN,trials_4.thisN,trials_4.thisIndex,trials_13.thisRepN,trials_13.thisTrialN,trials_13.thisN,trials_13.thisIndex,trials_17.thisRepN,trials_17.thisTrialN,trials_17.thisN,trials_17.thisIndex,story_list_block1,action_list_block1,text_76.started,text_76.stopped,key_resp_30.keys,key_resp_30.rt,key_resp_30.started,key_resp_30.stopped,textTrigger.started,textTrigger.stopped,getTrigger.keys,getTrigger.rt,getTrigger.started,getTrigger.stopped,triggerTime,text_77.started,text_77.stopped,text_78.started,text_78.stopped,waitStart,image_23.started,image_23.stopped,waitEnd,text_41.started,text_41.stopped,key_resp_26.keys,key_resp_26.rt,key_resp_26.started,key_resp_26.stopped,text_42.started,text_42.stopped,text_51.started,text_51.stopped,recall_StartTime,recall_EndTime,image_18.started,image_18.stopped,text_69.started,text_69.stopped,recall_audio.filename,recall_audio.started,recall_audio.stopped,key_resp_25.keys,key_resp_25.rt,key_resp_25.started,key_resp_25.stopped,text_80.started,text_80.stopped,participant,sA,sB,lA,lB,block_struct,block,behavioral,random_seed,date,expName,psychopyVersion,frameRate,
,,,,,,,,,,,,,,,,,,,,,[42 31 24 11 13 22 33 44],[1 2 3 2 4 1 4 3],9.175586745999908,None,space,32.79823086199997,9.175586745999908,None,,,,,,,,,,,,,,,,,,,,,,,,,,,,,,,,,,,,,,,,,072821,1,3,0,3,1,1,0,54,2021_Jul_28_1653,recall_fmri,3.2.4,60.24604883970856,
0,,,,,0,0,0,0,0,0,0,0,,,,,0,0,0,0,,,,,,,,,41.99406194699998,None,equal,17.248922437000033,41.99406194699998,None,50.08025228700001,41.99406194699998,None,41.99406194699998,None,0.00034471700007543404,59.26159337699994,None,5.999378891000106,65.26068662199998,None,space,0.6074043429999847,65.26068662199998,None,65.26068662199998,None,65.26068662199998,None,6.6335235669999975,7.099473388000092,65.99271678499997,None,65.99271678499997,None,/Users/columbiadpml/Documents/GitHub/ebs/fMRI experiment/psychopy code/data/072821_bk1_recall_fmri_wav/recall_audio-1627505694.967.wav,0.011231338600055096,None,space,0.3371224559999746,65.99271678499997,None,65.99271678499997,None,072821,1,3,0,3,1,1,0,54,2021_Jul_28_1653,recall_fmri,3.2.4,60.24604883970856,
0,,,,,0,0,0,0,0,0,0,0,,,,,,,,,,,,,,,,,,,,,,,,,,,,7.102632837000101,66.36153960899992,None,13.099139148000063,,,,,,,,,,,,,,,,,,,,,,,,,,072821,1,3,0,3,1,1,0,54,2021_Jul_28_1653,recall_fmri,3.2.4,60.24604883970856,
1,,,,,0,0,0,0,0,1,1,1,,,,,0,0,0,0,,,,,,,,,,,,,,,,,,,,,,,,72.36126514799992,None,space,0.4947350730000153,72.36126514799992,None,72.36126514799992,None,72.36126514799992,None,13.616585013000076,13.932416775000092,72.89211776299999,None,72.89211776299999,None,/Users/columbiadpml/Documents/GitHub/ebs/fMRI experiment/psychopy code/data/072821_bk1_recall_fmri_wav/recall_audio-1627505701.877.wav,0.0008203885998909755,None,space,0.2845512100000178,72.89211776299999,None,72.89211776299999,None,072821,1,3,0,3,1,1,0,54,2021_Jul_28_1653,recall_fmri,3.2.4,60.24604883970856,
1,,,,,0,0,0,0,0,1,1,1,,,,,,,,,,,,,,,,,,,,,,,,,,,,13.935151425000072,73.19502260799993,None,19.932851999000036,,,,,,,,,,,,,,,,,,,,,,,,,,072821,1,3,0,3,1,1,0,54,2021_Jul_28_1653,recall_fmri,3.2.4,60.24604883970856,
2,,,,,0,0,0,0,0,2,2,2,,,,,,,,,,,,,,,,,,,,,,,,,,,,19.935715254,79.19508340200002,79.19508340200002,25.932598400000074,,,,,,,,,,,,,,,,,,,,,,,,,,072821,1,3,0,3,1,1,0,54,2021_Jul_28_1653,recall_fmri,3.2.4,60.24604883970856,
3,,,,,0,0,0,0,0,3,3,3,,,,,0,0,0,0,,,,,,,,,,,,,,,,,,,,,,,,85.19439777699984,None,space,0.5017064270000446,85.19439777699984,None,85.19439777699984,None,85.19439777699984,None,26.466997965000132,26.899733260000062,85.74235951000003,None,85.74235951000003,None,/Users/columbiadpml/Documents/GitHub/ebs/fMRI experiment/psychopy code/data/072821_bk1_recall_fmri_wav/recall_audio-1627505714.728.wav,0.0011481585997898947,None,space,0.39483200700010457,85.74235951000003,None,85.74235951000003,None,072821,1,3,0,3,1,1,0,54,2021_Jul_28_1653,recall_fmri,3.2.4,60.24604883970856,
3,,,,,0,0,0,0,0,3,3,3,,,,,,,,,,,,,,,,,,,,,,,,,,,,26.902844200999994,86.1613931149999,None,32.898777029000144,,,,,,,,,,,,,,,,,,,,,,,,,,072821,1,3,0,3,1,1,0,54,2021_Jul_28_1653,recall_fmri,3.2.4,60.24604883970856,
4,,,,,0,0,0,0,0,4,4,4,,,,,0,0,0,0,,,,,,,,,,,,,,,,,,,,,,,,92.16153813199992,None,space,0.5435555130000012,92.16153813199992,None,92.16153813199992,None,92.16153813199992,None,33.46723926900006,33.864805718999946,92.74185892000003,None,92.74185892000003,None,/Users/columbiadpml/Documents/GitHub/ebs/fMRI experiment/psychopy code/data/072821_bk1_recall_fmri_wav/recall_audio-1627505721.728.wav,0.0007594716000767221,None,space,0.36701360200004274,92.74185892000003,None,92.74185892000003,None,072821,1,3,0,3,1,1,0,54,2021_Jul_28_1653,recall_fmri,3.2.4,60.24604883970856,
4,,,,,0,0,0,0,0,4,4,4,,,,,,,,,,,,,,,,,,,,,,,,,,,,33.86842471500006,93.12768890299992,None,39.865181703000076,,,,,,,,,,,,,,,,,,,,,,,,,,072821,1,3,0,3,1,1,0,54,2021_Jul_28_1653,recall_fmri,3.2.4,60.24604883970856,
5,,,,,0,0,0,0,0,5,5,5,,,,,0,0,0,0,,,,,,,,,,,,,,,,,,,,,,,,99.1280527319999,None,space,0.7196095109998168,99.1280527319999,None,99.1280527319999,None,99.1280527319999,None,40.61663079200014,41.01526225200007,99.89158943999985,None,99.89158943999985,None,/Users/columbiadpml/Documents/GitHub/ebs/fMRI experiment/psychopy code/data/072821_bk1_recall_fmri_wav/recall_audio-1627505728.880.wav,0.015260718200124757,None,space,0.35894017700002223,99.89158943999985,None,99.89158943999985,None,072821,1,3,0,3,1,1,0,54,2021_Jul_28_1653,recall_fmri,3.2.4,60.24604883970856,
5,,,,,0,0,0,0,0,5,5,5,,,,,,,,,,,,,,,,,,,,,,,,,,,,41.018917536000004,100.27784759099984,None,47.01515781700016,,,,,,,,,,,,,,,,,,,,,,,,,,072821,1,3,0,3,1,1,0,54,2021_Jul_28_1653,recall_fmri,3.2.4,60.24604883970856,
6,,,,,0,0,0,0,0,6,6,6,,,,,0,0,0,0,,,,,,,,,,,,,,,,,,,,,,,,106.27787896300003,None,1,2.525174533999916,106.27787896300003,None,106.27787896300003,None,106.27787896300003,None,49.56661875299994,103.93274599600011,108.84202088999984,None,108.84202088999984,None,/Users/columbiadpml/Documents/GitHub/ebs/fMRI experiment/psychopy code/data/072821_bk1_recall_fmri_wav/recall_audio-1627505737.829.wav,0.015965615200002503,None,3,54.324033426999904,108.84202088999984,None,108.84202088999984,None,072821,1,3,0,3,1,1,0,54,2021_Jul_28_1653,recall_fmri,3.2.4,60.24604883970856,
﻿count,behav_recall_instructions.thisRepN,behav_recall_instructions.thisTrialN,behav_recall_instructions.thisN,behav_recall_instructions.thisIndex,trials.thisRepN,trials.thisTrialN,trials.thisN,trials.thisIndex,trials_4.thisRepN,trials_4.thisTrialN,trials_4.thisN,trials_4.thisIndex,trials_13.thisRepN,trials_13.thisTrialN,trials_13.thisN,trials_13.thisIndex,trials_17.thisRepN,trials_17.thisTrialN,trials_17.thisN,trials_17.thisIndex,story_list_block1,action_list_block1,text_76.started,text_76.stopped,key_resp_30.keys,key_resp_30.rt,key_resp_30.started,key_resp_30.stopped,textTrigger.started,textTrigger.stopped,getTrigger.keys,getTrigger.rt,getTrigger.started,getTrigger.stopped,triggerTime,text_77.started,text_77.stopped,text_78.started,text_78.stopped,waitStart,image_23.started,image_23.stopped,waitEnd,text_41.started,text_41.stopped,key_resp_26.keys,key_resp_26.rt,key_resp_26.started,key_resp_26.stopped,text_42.started,text_42.stopped,text_51.started,text_51.stopped,recall_StartTime,recall_EndTime,image_18.started,image_18.stopped,text_69.started,text_69.stopped,recall_audio.filename,recall_audio.started,recall_audio.stopped,key_resp_25.keys,key_resp_25.rt,key_resp_25.started,key_resp_25.stopped,text_80.started,text_80.stopped,participant,sA,sB,lA,lB,block_struct,block,behavioral,random_seed,date,expName,psychopyVersion,frameRate,
,,,,,,,,,,,,,,,,,,,,,[42 31 24 11 13 22 33 44],[1 2 3 2 4 1 4 3],9.175586745999908,None,space,32.79823086199997,9.175586745999908,None,,,,,,,,,,,,,,,,,,,,,,,,,,,,,,,,,,,,,,,,,072821,1,3,0,3,1,1,0,54,2021_Jul_28_1653,recall_fmri,3.2.4,60.24604883970856,
0,,,,,0,0,0,0,0,0,0,0,,,,,0,0,0,0,,,,,,,,,41.99406194699998,None,equal,17.248922437000033,41.99406194699998,None,50.08025228700001,41.99406194699998,None,41.99406194699998,None,0.00034471700007543404,59.26159337699994,None,5.999378891000106,65.26068662199998,None,space,0.6074043429999847,65.26068662199998,None,65.26068662199998,None,65.26068662199998,None,6.6335235669999975,7.099473388000092,65.99271678499997,None,65.99271678499997,None,/Users/columbiadpml/Documents/GitHub/ebs/fMRI experiment/psychopy code/data/072821_bk1_recall_fmri_wav/recall_audio-1627505694.967.wav,0.011231338600055096,None,space,0.3371224559999746,65.99271678499997,None,65.99271678499997,None,072821,1,3,0,3,1,1,0,54,2021_Jul_28_1653,recall_fmri,3.2.4,60.24604883970856,
0,,,,,0,0,0,0,0,0,0,0,,,,,,,,,,,,,,,,,,,,,,,,,,,,7.102632837000101,66.36153960899992,None,13.099139148000063,,,,,,,,,,,,,,,,,,,,,,,,,,072821,1,3,0,3,1,1,0,54,2021_Jul_28_1653,recall_fmri,3.2.4,60.24604883970856,
1,,,,,0,0,0,0,0,1,1,1,,,,,0,0,0,0,,,,,,,,,,,,,,,,,,,,,,,,72.36126514799992,None,space,0.4947350730000153,72.36126514799992,None,72.36126514799992,None,72.36126514799992,None,13.616585013000076,13.932416775000092,72.89211776299999,None,72.89211776299999,None,/Users/columbiadpml/Documents/GitHub/ebs/fMRI experiment/psychopy code/data/072821_bk1_recall_fmri_wav/recall_audio-1627505701.877.wav,0.0008203885998909755,None,space,0.2845512100000178,72.89211776299999,None,72.89211776299999,None,072821,1,3,0,3,1,1,0,54,2021_Jul_28_1653,recall_fmri,3.2.4,60.24604883970856,
1,,,,,0,0,0,0,0,1,1,1,,,,,,,,,,,,,,,,,,,,,,,,,,,,13.935151425000072,73.19502260799993,None,19.932851999000036,,,,,,,,,,,,,,,,,,,,,,,,,,072821,1,3,0,3,1,1,0,54,2021_Jul_28_1653,recall_fmri,3.2.4,60.24604883970856,
2,,,,,0,0,0,0,0,2,2,2,,,,,,,,,,,,,,,,,,,,,,,,,,,,19.935715254,79.19508340200002,79.19508340200002,25.932598400000074,,,,,,,,,,,,,,,,,,,,,,,,,,072821,1,3,0,3,1,1,0,54,2021_Jul_28_1653,recall_fmri,3.2.4,60.24604883970856,
3,,,,,0,0,0,0,0,3,3,3,,,,,0,0,0,0,,,,,,,,,,,,,,,,,,,,,,,,85.19439777699984,None,space,0.5017064270000446,85.19439777699984,None,85.19439777699984,None,85.19439777699984,None,26.466997965000132,26.899733260000062,85.74235951000003,None,85.74235951000003,None,/Users/columbiadpml/Documents/GitHub/ebs/fMRI experiment/psychopy code/data/072821_bk1_recall_fmri_wav/recall_audio-1627505714.728.wav,0.0011481585997898947,None,space,0.39483200700010457,85.74235951000003,None,85.74235951000003,None,072821,1,3,0,3,1,1,0,54,2021_Jul_28_1653,recall_fmri,3.2.4,60.24604883970856,
3,,,,,0,0,0,0,0,3,3,3,,,,,,,,,,,,,,,,,,,,,,,,,,,,26.902844200999994,86.1613931149999,None,32.898777029000144,,,,,,,,,,,,,,,,,,,,,,,,,,072821,1,3,0,3,1,1,0,54,2021_Jul_28_1653,recall_fmri,3.2.4,60.24604883970856,
4,,,,,0,0,0,0,0,4,4,4,,,,,0,0,0,0,,,,,,,,,,,,,,,,,,,,,,,,92.16153813199992,None,space,0.5435555130000012,92.16153813199992,None,92.16153813199992,None,92.16153813199992,None,33.46723926900006,33.864805718999946,92.74185892000003,None,92.74185892000003,None,/Users/columbiadpml/Documents/GitHub/ebs/fMRI experiment/psychopy code/data/072821_bk1_recall_fmri_wav/recall_audio-1627505721.728.wav,0.0007594716000767221,None,space,0.36701360200004274,92.74185892000003,None,92.74185892000003,None,072821,1,3,0,3,1,1,0,54,2021_Jul_28_1653,recall_fmri,3.2.4,60.24604883970856,
4,,,,,0,0,0,0,0,4,4,4,,,,,,,,,,,,,,,,,,,,,,,,,,,,33.86842471500006,93.12768890299992,None,39.865181703000076,,,,,,,,,,,,,,,,,,,,,,,,,,072821,1,3,0,3,1,1,0,54,2021_Jul_28_1653,recall_fmri,3.2.4,60.24604883970856,
5,,,,,0,0,0,0,0,5,5,5,,,,,0,0,0,0,,,,,,,,,,,,,,,,,,,,,,,,99.1280527319999,None,space,0.7196095109998168,99.1280527319999,None,99.1280527319999,None,99.1280527319999,None,40.61663079200014,41.01526225200007,99.89158943999985,None,99.89158943999985,None,/Users/columbiadpml/Documents/GitHub/ebs/fMRI experiment/psychopy code/data/072821_bk1_recall_fmri_wav/recall_audio-1627505728.880.wav,0.015260718200124757,None,space,0.35894017700002223,99.89158943999985,None,99.89158943999985,None,072821,1,3,0,3,1,1,0,54,2021_Jul_28_1653,recall_fmri,3.2.4,60.24604883970856,
5,,,,,0,0,0,0,0,5,5,5,,,,,,,,,,,,,,,,,,,,,,,,,,,,41.018917536000004,100.27784759099984,None,47.01515781700016,,,,,,,,,,,,,,,,,,,,,,,,,,072821,1,3,0,3,1,1,0,54,2021_Jul_28_1653,recall_fmri,3.2.4,60.24604883970856,
6,,,,,0,0,0,0,0,6,6,6,,,,,0,0,0,0,,,,,,,,,,,,,,,,,,,,,,,,106.27787896300003,None,1,2.525174533999916,106.27787896300003,None,106.27787896300003,None,106.27787896300003,None,49.56661875299994,103.93274599600011,108.84202088999984,None,108.84202088999984,None,/Users/columbiadpml/Documents/GitHub/ebs/fMRI experiment/psychopy code/data/072821_bk1_recall_fmri_wav/recall_audio-1627505737.829.wav,0.015965615200002503,None,3,54.324033426999904,108.84202088999984,None,108.84202088999984,None,072821,1,3,0,3,1,1,0,54,2021_Jul_28_1653,recall_fmri,3.2.4,60.24604883970856,
6,,,,,0,0,0,0,0,6,6,6,,,,,,,,,,,,,,,,,,,,,,,,,,,,103.93677922200015,163.19469723099985,None,109.93251794600008,,,,,,,,,,,,,,,,,,,,,,,,,,072821,1,3,0,3,1,1,0,54,2021_Jul_28_1653,recall_fmri,3.2.4,60.24604883970856,
