count,audio,trials_14.thisRepN,trials_14.thisTrialN,trials_14.thisN,trials_14.thisIndex,trials_3.thisRepN,trials_3.thisTrialN,trials_3.thisN,trials_3.thisIndex,trials_4.thisRepN,trials_4.thisTrialN,trials_4.thisN,trials_4.thisIndex,trials_6.thisRepN,trials_6.thisTrialN,trials_6.thisN,trials_6.thisIndex,trials_9.thisRepN,trials_9.thisTrialN,trials_9.thisN,trials_9.thisIndex,trials_10.thisRepN,trials_10.thisTrialN,trials_10.thisN,trials_10.thisIndex,trials_12.thisRepN,trials_12.thisTrialN,trials_12.thisN,trials_12.thisIndex,trials_25.thisRepN,trials_25.thisTrialN,trials_25.thisN,trials_25.thisIndex,trials_15.thisRepN,trials_15.thisTrialN,trials_15.thisN,trials_15.thisIndex,trials_26.thisRepN,trials_26.thisTrialN,trials_26.thisN,trials_26.thisIndex,story_list_block2,action_list_block2,textTrigger.started,textTrigger.stopped,getTrigger.keys,getTrigger.rt,getTrigger.started,getTrigger.stopped,triggerTime,text_76.started,text_76.stopped,text_77.started,text_77.stopped,startWait,endWait,image_23.started,image_23.stopped,text_55.started,text_55.stopped,text_56.started,text_56.stopped,key_resp_2.keys,key_resp_2.rt,key_resp_2.started,key_resp_2.stopped,text_82.started,text_82.stopped,text_64.started,text_64.stopped,key_resp_20.keys,key_resp_20.rt,key_resp_20.started,key_resp_20.stopped,storyImage_StartTime,storyImage_EndTime,clip_StartTime,clip_EndTime,text_67.started,text_67.stopped,text_68.started,text_68.stopped,participant,sA,sB,lA,lB,block_struct,play_stories,block,behavioral,random_seed,date,expName,psychopyVersion,frameRate,
0,parcelated_audio/43/43_1.ogg,,,,,,,,,0,0,0,0,0,0,0,0,0,0,0,0,,,,,,,,,0,0,0,0,0,0,0,0,,,,,[43 32 34 21 14 12 41 23],[4 3 3 4 3 3 4 4],48.66023008399952,None,equal,39.85402469000019,48.66023008399952,None,39.88244328000019,48.66023008399952,None,48.66023008399952,None,0.00037968499964335933,5.999532797000029,88.54433230799987,None,94.55585407599938,None,94.55585407599938,None,2,1.617243554000197,94.55585407599938,None,94.55585407599938,None,96.20569447999969,None,2,1.2965763789998164,96.20569447999969,None,8.989673424000102,11.999400396000055,12.00407118000021,19.622584220000135,,,,,091621,0,2,1,3,1,1,2,0,22,2021_Sep_16_1354,listening_fmri,3.2.4,59.91046165828216,
0,parcelated_audio/43/43_2.ogg,,,,,,,,,0,0,0,0,0,0,0,0,0,0,0,0,,,,,,,,,0,0,0,0,0,1,1,1,,,,,,,,,,,,,,,,,,,,,,,,,,,,,,,,,,,,,,,,19.622871530999873,23.392540777999784,,,,,091621,0,2,1,3,1,1,2,0,22,2021_Sep_16_1354,listening_fmri,3.2.4,59.91046165828216,
0,parcelated_audio/43/43_3.ogg,,,,,,,,,0,0,0,0,0,0,0,0,0,0,0,0,,,,,,,,,0,0,0,0,0,2,2,2,,,,,,,,,,,,,,,,,,,,,,,,,,,,,,,,,,,,,,,,23.39281440400009,32.26401536100002,,,,,091621,0,2,1,3,1,1,2,0,22,2021_Sep_16_1354,listening_fmri,3.2.4,59.91046165828216,
0,parcelated_audio/43/43_4.ogg,,,,,,,,,0,0,0,0,0,0,0,0,0,0,0,0,,,,,,,,,0,0,0,0,0,3,3,3,,,,,,,,,,,,,,,,,,,,,,,,,,,,,,,,,,,,,,,,32.26429277599982,40.773403678999784,,,,,091621,0,2,1,3,1,1,2,0,22,2021_Sep_16_1354,listening_fmri,3.2.4,59.91046165828216,
0,parcelated_audio/43/43_5.ogg,,,,,,,,,0,0,0,0,0,0,0,0,0,0,0,0,,,,,,,,,0,0,0,0,0,4,4,4,,,,,,,,,,,,,,,,,,,,,,,,,,,,,,,,,,,,,,,,40.77367916200001,50.02848866400018,,,,,091621,0,2,1,3,1,1,2,0,22,2021_Sep_16_1354,listening_fmri,3.2.4,59.91046165828216,
0,parcelated_audio/43/43_6.ogg,,,,,,,,,0,0,0,0,0,0,0,0,0,0,0,0,,,,,,,,,0,0,0,0,0,5,5,5,,,,,,,,,,,,,,,,,,,,,,,,,,,,,,,,,,,,,,,,50.02876712899979,59.1656209140001,,,,,091621,0,2,1,3,1,1,2,0,22,2021_Sep_16_1354,listening_fmri,3.2.4,59.91046165828216,
0,parcelated_audio/43/43_7.ogg,,,,,,,,,0,0,0,0,0,0,0,0,0,0,0,0,,,,,,,,,0,0,0,0,0,6,6,6,,,,,,,,,,,,,,,,,,,,,,,,,,,,,,,,,,,,,,,,59.1660862939998,63.928289642999516,,,,,091621,0,2,1,3,1,1,2,0,22,2021_Sep_16_1354,listening_fmri,3.2.4,59.91046165828216,
0,parcelated_audio/43/43_8.ogg,,,,,,,,,0,0,0,0,0,0,0,0,0,0,0,0,,,,,,,,,0,0,0,0,0,7,7,7,,,,,,,,,,,,,,,,,,,,,,,,,,,,,,,,,,,,,,,,63.92862461099958,70.4960861949994,,,,,091621,0,2,1,3,1,1,2,0,22,2021_Sep_16_1354,listening_fmri,3.2.4,59.91046165828216,
0,parcelated_audio/43/43_9.ogg,,,,,,,,,0,0,0,0,0,0,0,0,0,0,0,0,,,,,,,,,0,0,0,0,0,8,8,8,,,,,,,,,,,,,,,,,,,,,,,,,,,,,,,,,,,,,,,,70.496434357,75.01094763199944,,,,,091621,0,2,1,3,1,1,2,0,22,2021_Sep_16_1354,listening_fmri,3.2.4,59.91046165828216,
0,parcelated_audio/43/43_10.ogg,,,,,,,,,0,0,0,0,0,0,0,0,0,0,0,0,,,,,,,,,0,0,0,0,0,9,9,9,,,,,,,,,,,,,,,,,,,,,,,,,,,,,,,,,,,,,,,,75.01129537899942,79.89224299899979,,,,,091621,0,2,1,3,1,1,2,0,22,2021_Sep_16_1354,listening_fmri,3.2.4,59.91046165828216,
0,parcelated_audio/43/43_11.ogg,,,,,,,,,0,0,0,0,0,0,0,0,0,0,0,0,,,,,,,,,0,0,0,0,0,10,10,10,,,,,,,,,,,,,,,,,,,,,,,,,,,,,,,,,,,,,,,,79.89270805500018,90.9228897819994,,,,,091621,0,2,1,3,1,1,2,0,22,2021_Sep_16_1354,listening_fmri,3.2.4,59.91046165828216,
0,parcelated_audio/43/43_12.ogg,,,,,,,,,0,0,0,0,0,0,0,0,0,0,0,0,,,,,,,,,0,0,0,0,0,11,11,11,,,,,,,,,,,,,,,,,,,,,,,,,,,,,,,,,,,,,,,,90.92324263399951,97.0082587629995,,,,,091621,0,2,1,3,1,1,2,0,22,2021_Sep_16_1354,listening_fmri,3.2.4,59.91046165828216,
0,parcelated_audio/43/43_13.ogg,,,,,,,,,0,0,0,0,0,0,0,0,0,0,0,0,,,,,,,,,0,0,0,0,0,12,12,12,,,,,,,,,,,,,,,,,,,,,,,,,,,,,,,,,,,,,,,,97.00860976599961,105.25739169400003,,,,,091621,0,2,1,3,1,1,2,0,22,2021_Sep_16_1354,listening_fmri,3.2.4,59.91046165828216,
0,parcelated_audio/43/43_14.ogg,,,,,,,,,0,0,0,0,0,0,0,0,0,0,0,0,,,,,,,,,0,0,0,0,0,13,13,13,,,,,,,,,,,,,,,,,,,,,,,,,,,,,,,,,,,,,,,,105.25780539199968,113.78894658599984,,,,,091621,0,2,1,3,1,1,2,0,22,2021_Sep_16_1354,listening_fmri,3.2.4,59.91046165828216,
0,parcelated_audio/43/43_15.ogg,,,,,,,,,0,0,0,0,0,0,0,0,0,0,0,0,,,,,,,,,0,0,0,0,0,14,14,14,,,,,,,,,,,,,,,,,,,,,,,,,,,,,,,,,,,,,,,,113.78930299300009,118.13691908199962,,,,,091621,0,2,1,3,1,1,2,0,22,2021_Sep_16_1354,listening_fmri,3.2.4,59.91046165828216,
0,parcelated_audio/43/43_16.ogg,,,,,,,,,0,0,0,0,0,0,0,0,0,0,0,0,,,,,,,,,0,0,0,0,0,15,15,15,,,,,,,,,,,,,,,,,,,,,,,,,,,,,,,,,,,,,,,,118.13719778499944,122.64793415099939,,,,,091621,0,2,1,3,1,1,2,0,22,2021_Sep_16_1354,listening_fmri,3.2.4,59.91046165828216,
0,parcelated_audio/43/43_17.ogg,,,,,,,,,0,0,0,0,0,0,0,0,0,0,0,0,,,,,,,,,0,0,0,0,0,16,16,16,,,,,,,,,,,,,,,,,,,,,,,,,,,,,,,,,,,,,,,,122.648291857,126.40821480799968,,,,,091621,0,2,1,3,1,1,2,0,22,2021_Sep_16_1354,listening_fmri,3.2.4,59.91046165828216,
0,parcelated_audio/43/43_18.ogg,,,,,,,,,0,0,0,0,0,0,0,0,0,0,0,0,,,,,,,,,0,0,0,0,0,17,17,17,,,,,,,,,,,,,,,,,,,,,,,,,,,,,,,,,,,,,,,,126.4085615670001,128.60727480399964,,,,,091621,0,2,1,3,1,1,2,0,22,2021_Sep_16_1354,listening_fmri,3.2.4,59.91046165828216,
0,parcelated_audio/43/43_19.ogg,,,,,,,,,0,0,0,0,0,0,0,0,0,0,0,0,,,,,,,,,0,0,0,0,0,18,18,18,,,,,,,,,,,,,,,,,,,,,,,,,,,,,,,,,,,,,,,,128.60756586299976,132.2557107929997,,,,,091621,0,2,1,3,1,1,2,0,22,2021_Sep_16_1354,listening_fmri,3.2.4,59.91046165828216,
0,parcelated_audio/43/43_20.ogg,,,,,,,,,0,0,0,0,0,0,0,0,0,0,0,0,,,,,,,,,0,0,0,0,0,19,19,19,,,,,,,,,,,,,,,,,,,,,,,,,,,,,,,,,,,,,,,,132.256286928,139.43401576699944,,,,,091621,0,2,1,3,1,1,2,0,22,2021_Sep_16_1354,listening_fmri,3.2.4,59.91046165828216,
0,parcelated_audio/43/43_21.ogg,,,,,,,,,0,0,0,0,0,0,0,0,0,0,0,0,,,,,,,,,0,0,0,0,0,20,20,20,,,,,,,,,,,,,,,,,,,,,,,,,,,,,,,,,,,,,,,,139.43437006299973,141.904022404,,,,,091621,0,2,1,3,1,1,2,0,22,2021_Sep_16_1354,listening_fmri,3.2.4,59.91046165828216,
0,parcelated_audio/43/43_22.ogg,,,,,,,,,0,0,0,0,0,0,0,0,0,0,0,0,,,,,,,,,0,0,0,0,0,21,21,21,,,,,,,,,,,,,,,,,,,,,,,,,,,,,,,,,,,,,,,,141.90437221399952,145.29500216899942,,,,,091621,0,2,1,3,1,1,2,0,22,2021_Sep_16_1354,listening_fmri,3.2.4,59.91046165828216,
0,parcelated_audio/43/43_23.ogg,,,,,,,,,0,0,0,0,0,0,0,0,0,0,0,0,,,,,,,,,0,0,0,0,0,22,22,22,,,,,,,,,,,,,,,,,,,,,,,,,,,,,,,,,,,,,,,,145.29533321799954,151.33105138599967,,,,,091621,0,2,1,3,1,1,2,0,22,2021_Sep_16_1354,listening_fmri,3.2.4,59.91046165828216,
0,parcelated_audio/43/43_24.ogg,,,,,,,,,0,0,0,0,0,0,0,0,0,0,0,0,,,,,,,,,0,0,0,0,0,23,23,23,,,,,,,,,,,,,,,,,,,,,,,,,,,,,,,,,,,,,,,,151.33140775399988,157.67766971399942,,,,,091621,0,2,1,3,1,1,2,0,22,2021_Sep_16_1354,listening_fmri,3.2.4,59.91046165828216,
0,parcelated_audio/43/43_25.ogg,,,,,,,,,0,0,0,0,0,0,0,0,0,0,0,0,,,,,,,,,0,0,0,0,0,24,24,24,,,,,,,,,,,,,,,,,,,,,,,,,,,,,,,,,,,,,,,,157.67804059099944,162.7041857989998,,,,,091621,0,2,1,3,1,1,2,0,22,2021_Sep_16_1354,listening_fmri,3.2.4,59.91046165828216,
0,parcelated_audio/43/43_26.ogg,,,,,,,,,0,0,0,0,0,0,0,0,0,0,0,0,,,,,,,,,0,0,0,0,0,25,25,25,,,,,,,,,,,,,,,,,,,,,,,,,,,,,,,,,,,,,,,,162.7045365469994,171.2718908050001,,,,,091621,0,2,1,3,1,1,2,0,22,2021_Sep_16_1354,listening_fmri,3.2.4,59.91046165828216,
0,parcelated_audio/43/43_27.ogg,,,,,,,,,0,0,0,0,0,0,0,0,0,0,0,0,,,,,,,,,0,0,0,0,0,26,26,26,,,,,,,,,,,,,,,,,,,,,,,,,,,,,,,,,,,,,,,,171.27224226199996,175.66143491099956,,,,,091621,0,2,1,3,1,1,2,0,22,2021_Sep_16_1354,listening_fmri,3.2.4,59.91046165828216,
0,parcelated_audio/43/43_28.ogg,,,,,,,,,0,0,0,0,0,0,0,0,0,0,0,0,,,,,,,,,0,0,0,0,0,27,27,27,,,,,,,,,,,,,,,,,,,,,,,,,,,,,,,,,,,,,,,,175.66190050299974,180.63712828200005,,,,,091621,0,2,1,3,1,1,2,0,22,2021_Sep_16_1354,listening_fmri,3.2.4,59.91046165828216,
0,parcelated_audio/43/43_29.ogg,,,,,,,,,0,0,0,0,0,0,0,0,0,0,0,0,,,,,,,,,0,0,0,0,0,28,28,28,,,,,,,,,,,,,,,,,,,,,,,,,,,,,,,,,,,,,,,,180.63748614899941,186.77751538699977,,,,,091621,0,2,1,3,1,1,2,0,22,2021_Sep_16_1354,listening_fmri,3.2.4,59.91046165828216,
0,,,,,,,,,,0,0,0,0,0,0,0,0,0,0,0,0,,,,,,,,,0,0,0,0,,,,,,,,,,,,,,,,,,,,,,,,,,,,,,,,,,,,,,,,,,,,,,,,,,091621,0,2,1,3,1,1,2,0,22,2021_Sep_16_1354,listening_fmri,3.2.4,59.91046165828216,
,,,,,,,,,,,,,,,,,,,,,,,,,,,,,,,,,,,,,,,,,,,,,,,,,,,,,,,186.77790731000005,192.77499637300025,275.3100720049997,None,,,,,,,,,,,,,,,,,,,,,281.319662936,None,281.319662936,None,,,,,,,,,,,,,,,
﻿count,audio,trials_14.thisRepN,trials_14.thisTrialN,trials_14.thisN,trials_14.thisIndex,trials_3.thisRepN,trials_3.thisTrialN,trials_3.thisN,trials_3.thisIndex,trials_4.thisRepN,trials_4.thisTrialN,trials_4.thisN,trials_4.thisIndex,trials_6.thisRepN,trials_6.thisTrialN,trials_6.thisN,trials_6.thisIndex,trials_9.thisRepN,trials_9.thisTrialN,trials_9.thisN,trials_9.thisIndex,trials_10.thisRepN,trials_10.thisTrialN,trials_10.thisN,trials_10.thisIndex,trials_12.thisRepN,trials_12.thisTrialN,trials_12.thisN,trials_12.thisIndex,trials_25.thisRepN,trials_25.thisTrialN,trials_25.thisN,trials_25.thisIndex,trials_15.thisRepN,trials_15.thisTrialN,trials_15.thisN,trials_15.thisIndex,trials_26.thisRepN,trials_26.thisTrialN,trials_26.thisN,trials_26.thisIndex,story_list_block2,action_list_block2,textTrigger.started,textTrigger.stopped,getTrigger.keys,getTrigger.rt,getTrigger.started,getTrigger.stopped,triggerTime,text_76.started,text_76.stopped,text_77.started,text_77.stopped,startWait,endWait,image_23.started,image_23.stopped,text_55.started,text_55.stopped,text_56.started,text_56.stopped,key_resp_2.keys,key_resp_2.rt,key_resp_2.started,key_resp_2.stopped,text_82.started,text_82.stopped,text_64.started,text_64.stopped,key_resp_20.keys,key_resp_20.rt,key_resp_20.started,key_resp_20.stopped,storyImage_StartTime,storyImage_EndTime,clip_StartTime,clip_EndTime,text_67.started,text_67.stopped,text_68.started,text_68.stopped,participant,sA,sB,lA,lB,block_struct,play_stories,block,behavioral,random_seed,date,expName,psychopyVersion,frameRate,
0,parcelated_audio/43/43_1.ogg,,,,,,,,,0,0,0,0,0,0,0,0,0,0,0,0,,,,,,,,,0,0,0,0,0,0,0,0,,,,,[43 32 34 21 14 12 41 23],[4 3 3 4 3 3 4 4],48.66023008399952,None,equal,39.85402469000019,48.66023008399952,None,39.88244328000019,48.66023008399952,None,48.66023008399952,None,0.00037968499964335933,5.999532797000029,88.54433230799987,None,94.55585407599938,None,94.55585407599938,None,2,1.617243554000197,94.55585407599938,None,94.55585407599938,None,96.20569447999969,None,2,1.2965763789998164,96.20569447999969,None,8.989673424000102,11.999400396000055,12.00407118000021,19.622584220000135,,,,,091621,0,2,1,3,1,1,2,0,22,2021_Sep_16_1354,listening_fmri,3.2.4,59.91046165828216,
0,parcelated_audio/43/43_2.ogg,,,,,,,,,0,0,0,0,0,0,0,0,0,0,0,0,,,,,,,,,0,0,0,0,0,1,1,1,,,,,,,,,,,,,,,,,,,,,,,,,,,,,,,,,,,,,,,,19.622871530999873,23.392540777999784,,,,,091621,0,2,1,3,1,1,2,0,22,2021_Sep_16_1354,listening_fmri,3.2.4,59.91046165828216,
0,parcelated_audio/43/43_3.ogg,,,,,,,,,0,0,0,0,0,0,0,0,0,0,0,0,,,,,,,,,0,0,0,0,0,2,2,2,,,,,,,,,,,,,,,,,,,,,,,,,,,,,,,,,,,,,,,,23.39281440400009,32.26401536100002,,,,,091621,0,2,1,3,1,1,2,0,22,2021_Sep_16_1354,listening_fmri,3.2.4,59.91046165828216,
0,parcelated_audio/43/43_4.ogg,,,,,,,,,0,0,0,0,0,0,0,0,0,0,0,0,,,,,,,,,0,0,0,0,0,3,3,3,,,,,,,,,,,,,,,,,,,,,,,,,,,,,,,,,,,,,,,,32.26429277599982,40.773403678999784,,,,,091621,0,2,1,3,1,1,2,0,22,2021_Sep_16_1354,listening_fmri,3.2.4,59.91046165828216,
0,parcelated_audio/43/43_5.ogg,,,,,,,,,0,0,0,0,0,0,0,0,0,0,0,0,,,,,,,,,0,0,0,0,0,4,4,4,,,,,,,,,,,,,,,,,,,,,,,,,,,,,,,,,,,,,,,,40.77367916200001,50.02848866400018,,,,,091621,0,2,1,3,1,1,2,0,22,2021_Sep_16_1354,listening_fmri,3.2.4,59.91046165828216,
0,parcelated_audio/43/43_6.ogg,,,,,,,,,0,0,0,0,0,0,0,0,0,0,0,0,,,,,,,,,0,0,0,0,0,5,5,5,,,,,,,,,,,,,,,,,,,,,,,,,,,,,,,,,,,,,,,,50.02876712899979,59.1656209140001,,,,,091621,0,2,1,3,1,1,2,0,22,2021_Sep_16_1354,listening_fmri,3.2.4,59.91046165828216,
0,parcelated_audio/43/43_7.ogg,,,,,,,,,0,0,0,0,0,0,0,0,0,0,0,0,,,,,,,,,0,0,0,0,0,6,6,6,,,,,,,,,,,,,,,,,,,,,,,,,,,,,,,,,,,,,,,,59.1660862939998,63.928289642999516,,,,,091621,0,2,1,3,1,1,2,0,22,2021_Sep_16_1354,listening_fmri,3.2.4,59.91046165828216,
0,parcelated_audio/43/43_8.ogg,,,,,,,,,0,0,0,0,0,0,0,0,0,0,0,0,,,,,,,,,0,0,0,0,0,7,7,7,,,,,,,,,,,,,,,,,,,,,,,,,,,,,,,,,,,,,,,,63.92862461099958,70.4960861949994,,,,,091621,0,2,1,3,1,1,2,0,22,2021_Sep_16_1354,listening_fmri,3.2.4,59.91046165828216,
0,parcelated_audio/43/43_9.ogg,,,,,,,,,0,0,0,0,0,0,0,0,0,0,0,0,,,,,,,,,0,0,0,0,0,8,8,8,,,,,,,,,,,,,,,,,,,,,,,,,,,,,,,,,,,,,,,,70.496434357,75.01094763199944,,,,,091621,0,2,1,3,1,1,2,0,22,2021_Sep_16_1354,listening_fmri,3.2.4,59.91046165828216,
0,parcelated_audio/43/43_10.ogg,,,,,,,,,0,0,0,0,0,0,0,0,0,0,0,0,,,,,,,,,0,0,0,0,0,9,9,9,,,,,,,,,,,,,,,,,,,,,,,,,,,,,,,,,,,,,,,,75.01129537899942,79.89224299899979,,,,,091621,0,2,1,3,1,1,2,0,22,2021_Sep_16_1354,listening_fmri,3.2.4,59.91046165828216,
0,parcelated_audio/43/43_11.ogg,,,,,,,,,0,0,0,0,0,0,0,0,0,0,0,0,,,,,,,,,0,0,0,0,0,10,10,10,,,,,,,,,,,,,,,,,,,,,,,,,,,,,,,,,,,,,,,,79.89270805500018,90.9228897819994,,,,,091621,0,2,1,3,1,1,2,0,22,2021_Sep_16_1354,listening_fmri,3.2.4,59.91046165828216,
0,parcelated_audio/43/43_12.ogg,,,,,,,,,0,0,0,0,0,0,0,0,0,0,0,0,,,,,,,,,0,0,0,0,0,11,11,11,,,,,,,,,,,,,,,,,,,,,,,,,,,,,,,,,,,,,,,,90.92324263399951,97.0082587629995,,,,,091621,0,2,1,3,1,1,2,0,22,2021_Sep_16_1354,listening_fmri,3.2.4,59.91046165828216,
0,parcelated_audio/43/43_13.ogg,,,,,,,,,0,0,0,0,0,0,0,0,0,0,0,0,,,,,,,,,0,0,0,0,0,12,12,12,,,,,,,,,,,,,,,,,,,,,,,,,,,,,,,,,,,,,,,,97.00860976599961,105.25739169400003,,,,,091621,0,2,1,3,1,1,2,0,22,2021_Sep_16_1354,listening_fmri,3.2.4,59.91046165828216,
0,parcelated_audio/43/43_14.ogg,,,,,,,,,0,0,0,0,0,0,0,0,0,0,0,0,,,,,,,,,0,0,0,0,0,13,13,13,,,,,,,,,,,,,,,,,,,,,,,,,,,,,,,,,,,,,,,,105.25780539199968,113.78894658599984,,,,,091621,0,2,1,3,1,1,2,0,22,2021_Sep_16_1354,listening_fmri,3.2.4,59.91046165828216,
0,parcelated_audio/43/43_15.ogg,,,,,,,,,0,0,0,0,0,0,0,0,0,0,0,0,,,,,,,,,0,0,0,0,0,14,14,14,,,,,,,,,,,,,,,,,,,,,,,,,,,,,,,,,,,,,,,,113.78930299300009,118.13691908199962,,,,,091621,0,2,1,3,1,1,2,0,22,2021_Sep_16_1354,listening_fmri,3.2.4,59.91046165828216,
0,parcelated_audio/43/43_16.ogg,,,,,,,,,0,0,0,0,0,0,0,0,0,0,0,0,,,,,,,,,0,0,0,0,0,15,15,15,,,,,,,,,,,,,,,,,,,,,,,,,,,,,,,,,,,,,,,,118.13719778499944,122.64793415099939,,,,,091621,0,2,1,3,1,1,2,0,22,2021_Sep_16_1354,listening_fmri,3.2.4,59.91046165828216,
0,parcelated_audio/43/43_17.ogg,,,,,,,,,0,0,0,0,0,0,0,0,0,0,0,0,,,,,,,,,0,0,0,0,0,16,16,16,,,,,,,,,,,,,,,,,,,,,,,,,,,,,,,,,,,,,,,,122.648291857,126.40821480799968,,,,,091621,0,2,1,3,1,1,2,0,22,2021_Sep_16_1354,listening_fmri,3.2.4,59.91046165828216,
0,parcelated_audio/43/43_18.ogg,,,,,,,,,0,0,0,0,0,0,0,0,0,0,0,0,,,,,,,,,0,0,0,0,0,17,17,17,,,,,,,,,,,,,,,,,,,,,,,,,,,,,,,,,,,,,,,,126.4085615670001,128.60727480399964,,,,,091621,0,2,1,3,1,1,2,0,22,2021_Sep_16_1354,listening_fmri,3.2.4,59.91046165828216,
0,parcelated_audio/43/43_19.ogg,,,,,,,,,0,0,0,0,0,0,0,0,0,0,0,0,,,,,,,,,0,0,0,0,0,18,18,18,,,,,,,,,,,,,,,,,,,,,,,,,,,,,,,,,,,,,,,,128.60756586299976,132.2557107929997,,,,,091621,0,2,1,3,1,1,2,0,22,2021_Sep_16_1354,listening_fmri,3.2.4,59.91046165828216,
0,parcelated_audio/43/43_20.ogg,,,,,,,,,0,0,0,0,0,0,0,0,0,0,0,0,,,,,,,,,0,0,0,0,0,19,19,19,,,,,,,,,,,,,,,,,,,,,,,,,,,,,,,,,,,,,,,,132.256286928,139.43401576699944,,,,,091621,0,2,1,3,1,1,2,0,22,2021_Sep_16_1354,listening_fmri,3.2.4,59.91046165828216,
0,parcelated_audio/43/43_21.ogg,,,,,,,,,0,0,0,0,0,0,0,0,0,0,0,0,,,,,,,,,0,0,0,0,0,20,20,20,,,,,,,,,,,,,,,,,,,,,,,,,,,,,,,,,,,,,,,,139.43437006299973,141.904022404,,,,,091621,0,2,1,3,1,1,2,0,22,2021_Sep_16_1354,listening_fmri,3.2.4,59.91046165828216,
0,parcelated_audio/43/43_22.ogg,,,,,,,,,0,0,0,0,0,0,0,0,0,0,0,0,,,,,,,,,0,0,0,0,0,21,21,21,,,,,,,,,,,,,,,,,,,,,,,,,,,,,,,,,,,,,,,,141.90437221399952,145.29500216899942,,,,,091621,0,2,1,3,1,1,2,0,22,2021_Sep_16_1354,listening_fmri,3.2.4,59.91046165828216,
0,parcelated_audio/43/43_23.ogg,,,,,,,,,0,0,0,0,0,0,0,0,0,0,0,0,,,,,,,,,0,0,0,0,0,22,22,22,,,,,,,,,,,,,,,,,,,,,,,,,,,,,,,,,,,,,,,,145.29533321799954,151.33105138599967,,,,,091621,0,2,1,3,1,1,2,0,22,2021_Sep_16_1354,listening_fmri,3.2.4,59.91046165828216,
0,parcelated_audio/43/43_24.ogg,,,,,,,,,0,0,0,0,0,0,0,0,0,0,0,0,,,,,,,,,0,0,0,0,0,23,23,23,,,,,,,,,,,,,,,,,,,,,,,,,,,,,,,,,,,,,,,,151.33140775399988,157.67766971399942,,,,,091621,0,2,1,3,1,1,2,0,22,2021_Sep_16_1354,listening_fmri,3.2.4,59.91046165828216,
0,parcelated_audio/43/43_25.ogg,,,,,,,,,0,0,0,0,0,0,0,0,0,0,0,0,,,,,,,,,0,0,0,0,0,24,24,24,,,,,,,,,,,,,,,,,,,,,,,,,,,,,,,,,,,,,,,,157.67804059099944,162.7041857989998,,,,,091621,0,2,1,3,1,1,2,0,22,2021_Sep_16_1354,listening_fmri,3.2.4,59.91046165828216,
0,parcelated_audio/43/43_26.ogg,,,,,,,,,0,0,0,0,0,0,0,0,0,0,0,0,,,,,,,,,0,0,0,0,0,25,25,25,,,,,,,,,,,,,,,,,,,,,,,,,,,,,,,,,,,,,,,,162.7045365469994,171.2718908050001,,,,,091621,0,2,1,3,1,1,2,0,22,2021_Sep_16_1354,listening_fmri,3.2.4,59.91046165828216,
0,parcelated_audio/43/43_27.ogg,,,,,,,,,0,0,0,0,0,0,0,0,0,0,0,0,,,,,,,,,0,0,0,0,0,26,26,26,,,,,,,,,,,,,,,,,,,,,,,,,,,,,,,,,,,,,,,,171.27224226199996,175.66143491099956,,,,,091621,0,2,1,3,1,1,2,0,22,2021_Sep_16_1354,listening_fmri,3.2.4,59.91046165828216,
0,parcelated_audio/43/43_28.ogg,,,,,,,,,0,0,0,0,0,0,0,0,0,0,0,0,,,,,,,,,0,0,0,0,0,27,27,27,,,,,,,,,,,,,,,,,,,,,,,,,,,,,,,,,,,,,,,,175.66190050299974,180.63712828200005,,,,,091621,0,2,1,3,1,1,2,0,22,2021_Sep_16_1354,listening_fmri,3.2.4,59.91046165828216,
0,parcelated_audio/43/43_29.ogg,,,,,,,,,0,0,0,0,0,0,0,0,0,0,0,0,,,,,,,,,0,0,0,0,0,28,28,28,,,,,,,,,,,,,,,,,,,,,,,,,,,,,,,,,,,,,,,,180.63748614899941,186.77751538699977,,,,,091621,0,2,1,3,1,1,2,0,22,2021_Sep_16_1354,listening_fmri,3.2.4,59.91046165828216,
0,,,,,,,,,,0,0,0,0,0,0,0,0,0,0,0,0,,,,,,,,,0,0,0,0,,,,,,,,,,,,,,,,,,,,,,,,,,,,,,,,,,,,,,,,,,,,,,,,,,091621,0,2,1,3,1,1,2,0,22,2021_Sep_16_1354,listening_fmri,3.2.4,59.91046165828216,
0,,,,,,,,,,0,0,0,0,0,0,0,0,0,0,0,0,,,,,,,,,,,,,,,,,,,,,,,,,,,,,,,,,,186.77790731000005,192.77499637300025,275.3100720049997,None,,,,,,,,,,,,,,,,,,,,,281.319662936,None,281.319662936,None,091621,0,2,1,3,1,1,2,0,22,2021_Sep_16_1354,listening_fmri,3.2.4,59.91046165828216,
0,,,,,,,,,,0,0,0,0,0,0,0,0,,,,,,,,,,,,,,,,,,,,,,,,,,,,,,,,,,,,,,,,,,,,,,,,,,,,,,,,,,,,,,,,,,091621,0,2,1,3,1,1,2,0,22,2021_Sep_16_1354,listening_fmri,3.2.4,59.91046165828216,
1,,,,,,,,,,0,0,0,0,0,1,1,1,,,,,,,,,,,,,,,,,,,,,,,,,,,,,,,,,,,,,,,,,,,,,,,,,,,,,,,,,,,,,,,,,,091621,0,2,1,3,1,1,2,0,22,2021_Sep_16_1354,listening_fmri,3.2.4,59.91046165828216,
2,,,,,,,,,,0,0,0,0,0,2,2,2,,,,,,,,,,,,,,,,,,,,,,,,,,,,,,,,,,,,,,,,,,,,,,,,,,,,,,,,,,,,,,,,,,091621,0,2,1,3,1,1,2,0,22,2021_Sep_16_1354,listening_fmri,3.2.4,59.91046165828216,
3,parcelated_audio/21/21_1.ogg,,,,,,,,,0,0,0,0,0,3,3,3,0,0,0,0,,,,,,,,,0,0,0,0,0,0,0,0,,,,,,,,,,,,,,,,,,,,,,282.32809646499936,None,282.32809646499936,None,2,0.9132115780003005,282.32809646499936,None,282.32809646499936,None,283.26135615899966,None,2,2.260890494000705,283.26135615899966,None,197.01565193999977,200.0242482449994,200.0290291929996,214.30957515299997,,,,,091621,0,2,1,3,1,1,2,0,22,2021_Sep_16_1354,listening_fmri,3.2.4,59.91046165828216,
3,parcelated_audio/21/21_2.ogg,,,,,,,,,0,0,0,0,0,3,3,3,0,0,0,0,,,,,,,,,0,0,0,0,0,1,1,1,,,,,,,,,,,,,,,,,,,,,,,,,,,,,,,,,,,,,,,,214.310158925,221.73569693700028,,,,,091621,0,2,1,3,1,1,2,0,22,2021_Sep_16_1354,listening_fmri,3.2.4,59.91046165828216,
3,parcelated_audio/21/21_3.ogg,,,,,,,,,0,0,0,0,0,3,3,3,0,0,0,0,,,,,,,,,0,0,0,0,0,2,2,2,,,,,,,,,,,,,,,,,,,,,,,,,,,,,,,,,,,,,,,,221.7365763150001,229.43288248999943,,,,,091621,0,2,1,3,1,1,2,0,22,2021_Sep_16_1354,listening_fmri,3.2.4,59.91046165828216,
3,parcelated_audio/21/21_4.ogg,,,,,,,,,0,0,0,0,0,3,3,3,0,0,0,0,,,,,,,,,0,0,0,0,0,3,3,3,,,,,,,,,,,,,,,,,,,,,,,,,,,,,,,,,,,,,,,,229.43315927799995,240.48016230899975,,,,,091621,0,2,1,3,1,1,2,0,22,2021_Sep_16_1354,listening_fmri,3.2.4,59.91046165828216,
3,parcelated_audio/21/21_5.ogg,,,,,,,,,0,0,0,0,0,3,3,3,0,0,0,0,,,,,,,,,0,0,0,0,0,4,4,4,,,,,,,,,,,,,,,,,,,,,,,,,,,,,,,,,,,,,,,,240.48048378299973,245.54376310599946,,,,,091621,0,2,1,3,1,1,2,0,22,2021_Sep_16_1354,listening_fmri,3.2.4,59.91046165828216,
3,parcelated_audio/21/21_6.ogg,,,,,,,,,0,0,0,0,0,3,3,3,0,0,0,0,,,,,,,,,0,0,0,0,0,5,5,5,,,,,,,,,,,,,,,,,,,,,,,,,,,,,,,,,,,,,,,,245.54403927899966,253.70450298000014,,,,,091621,0,2,1,3,1,1,2,0,22,2021_Sep_16_1354,listening_fmri,3.2.4,59.91046165828216,
3,parcelated_audio/21/21_7.ogg,,,,,,,,,0,0,0,0,0,3,3,3,0,0,0,0,,,,,,,,,0,0,0,0,0,6,6,6,,,,,,,,,,,,,,,,,,,,,,,,,,,,,,,,,,,,,,,,253.70485902200016,258.22710927200023,,,,,091621,0,2,1,3,1,1,2,0,22,2021_Sep_16_1354,listening_fmri,3.2.4,59.91046165828216,
3,parcelated_audio/21/21_8.ogg,,,,,,,,,0,0,0,0,0,3,3,3,0,0,0,0,,,,,,,,,0,0,0,0,0,7,7,7,,,,,,,,,,,,,,,,,,,,,,,,,,,,,,,,,,,,,,,,258.22766342900013,269.13373162599964,,,,,091621,0,2,1,3,1,1,2,0,22,2021_Sep_16_1354,listening_fmri,3.2.4,59.91046165828216,
3,parcelated_audio/21/21_9.ogg,,,,,,,,,0,0,0,0,0,3,3,3,0,0,0,0,,,,,,,,,0,0,0,0,0,8,8,8,,,,,,,,,,,,,,,,,,,,,,,,,,,,,,,,,,,,,,,,269.1340867990002,276.5219969919999,,,,,091621,0,2,1,3,1,1,2,0,22,2021_Sep_16_1354,listening_fmri,3.2.4,59.91046165828216,
3,parcelated_audio/21/21_10.ogg,,,,,,,,,0,0,0,0,0,3,3,3,0,0,0,0,,,,,,,,,0,0,0,0,0,9,9,9,,,,,,,,,,,,,,,,,,,,,,,,,,,,,,,,,,,,,,,,276.5223726079994,283.37088834099995,,,,,091621,0,2,1,3,1,1,2,0,22,2021_Sep_16_1354,listening_fmri,3.2.4,59.91046165828216,
3,parcelated_audio/21/21_11.ogg,,,,,,,,,0,0,0,0,0,3,3,3,0,0,0,0,,,,,,,,,0,0,0,0,0,10,10,10,,,,,,,,,,,,,,,,,,,,,,,,,,,,,,,,,,,,,,,,283.3713063919995,290.46798912099985,,,,,091621,0,2,1,3,1,1,2,0,22,2021_Sep_16_1354,listening_fmri,3.2.4,59.91046165828216,
3,parcelated_audio/21/21_12.ogg,,,,,,,,,0,0,0,0,0,3,3,3,0,0,0,0,,,,,,,,,0,0,0,0,0,11,11,11,,,,,,,,,,,,,,,,,,,,,,,,,,,,,,,,,,,,,,,,290.4683316800001,298.7779465900003,,,,,091621,0,2,1,3,1,1,2,0,22,2021_Sep_16_1354,listening_fmri,3.2.4,59.91046165828216,
3,parcelated_audio/21/21_13.ogg,,,,,,,,,0,0,0,0,0,3,3,3,0,0,0,0,,,,,,,,,0,0,0,0,0,12,12,12,,,,,,,,,,,,,,,,,,,,,,,,,,,,,,,,,,,,,,,,298.77849768800024,302.11494817399944,,,,,091621,0,2,1,3,1,1,2,0,22,2021_Sep_16_1354,listening_fmri,3.2.4,59.91046165828216,
3,parcelated_audio/21/21_14.ogg,,,,,,,,,0,0,0,0,0,3,3,3,0,0,0,0,,,,,,,,,0,0,0,0,0,13,13,13,,,,,,,,,,,,,,,,,,,,,,,,,,,,,,,,,,,,,,,,302.1152272089994,307.53028536799957,,,,,091621,0,2,1,3,1,1,2,0,22,2021_Sep_16_1354,listening_fmri,3.2.4,59.91046165828216,
3,parcelated_audio/21/21_15.ogg,,,,,,,,,0,0,0,0,0,3,3,3,0,0,0,0,,,,,,,,,0,0,0,0,0,14,14,14,,,,,,,,,,,,,,,,,,,,,,,,,,,,,,,,,,,,,,,,307.5306103470002,314.34926040400023,,,,,091621,0,2,1,3,1,1,2,0,22,2021_Sep_16_1354,listening_fmri,3.2.4,59.91046165828216,
3,parcelated_audio/21/21_16.ogg,,,,,,,,,0,0,0,0,0,3,3,3,0,0,0,0,,,,,,,,,0,0,0,0,0,15,15,15,,,,,,,,,,,,,,,,,,,,,,,,,,,,,,,,,,,,,,,,314.3495451099998,320.42547784899944,,,,,091621,0,2,1,3,1,1,2,0,22,2021_Sep_16_1354,listening_fmri,3.2.4,59.91046165828216,
3,parcelated_audio/21/21_17.ogg,,,,,,,,,0,0,0,0,0,3,3,3,0,0,0,0,,,,,,,,,0,0,0,0,0,16,16,16,,,,,,,,,,,,,,,,,,,,,,,,,,,,,,,,,,,,,,,,320.4257563279998,322.58786543099995,,,,,091621,0,2,1,3,1,1,2,0,22,2021_Sep_16_1354,listening_fmri,3.2.4,59.91046165828216,
3,parcelated_audio/21/21_18.ogg,,,,,,,,,0,0,0,0,0,3,3,3,0,0,0,0,,,,,,,,,0,0,0,0,0,17,17,17,,,,,,,,,,,,,,,,,,,,,,,,,,,,,,,,,,,,,,,,322.5881779709998,335.7425566510001,,,,,091621,0,2,1,3,1,1,2,0,22,2021_Sep_16_1354,listening_fmri,3.2.4,59.91046165828216,
3,parcelated_audio/21/21_19.ogg,,,,,,,,,0,0,0,0,0,3,3,3,0,0,0,0,,,,,,,,,0,0,0,0,0,18,18,18,,,,,,,,,,,,,,,,,,,,,,,,,,,,,,,,,,,,,,,,335.7428360719996,338.62668930200016,,,,,091621,0,2,1,3,1,1,2,0,22,2021_Sep_16_1354,listening_fmri,3.2.4,59.91046165828216,
3,parcelated_audio/21/21_20.ogg,,,,,,,,,0,0,0,0,0,3,3,3,0,0,0,0,,,,,,,,,0,0,0,0,0,19,19,19,,,,,,,,,,,,,,,,,,,,,,,,,,,,,,,,,,,,,,,,338.6270182469998,347.36000549799974,,,,,091621,0,2,1,3,1,1,2,0,22,2021_Sep_16_1354,listening_fmri,3.2.4,59.91046165828216,
3,parcelated_audio/21/21_21.ogg,,,,,,,,,0,0,0,0,0,3,3,3,0,0,0,0,,,,,,,,,0,0,0,0,0,20,20,20,,,,,,,,,,,,,,,,,,,,,,,,,,,,,,,,,,,,,,,,347.3602666179995,358.39943006500016,,,,,091621,0,2,1,3,1,1,2,0,22,2021_Sep_16_1354,listening_fmri,3.2.4,59.91046165828216,
3,parcelated_audio/21/21_22.ogg,,,,,,,,,0,0,0,0,0,3,3,3,0,0,0,0,,,,,,,,,0,0,0,0,0,21,21,21,,,,,,,,,,,,,,,,,,,,,,,,,,,,,,,,,,,,,,,,358.39968376700017,369.2989137839995,,,,,091621,0,2,1,3,1,1,2,0,22,2021_Sep_16_1354,listening_fmri,3.2.4,59.91046165828216,
3,parcelated_audio/21/21_23.ogg,,,,,,,,,0,0,0,0,0,3,3,3,0,0,0,0,,,,,,,,,0,0,0,0,0,22,22,22,,,,,,,,,,,,,,,,,,,,,,,,,,,,,,,,,,,,,,,,369.29924840199965,374.2848531109994,,,,,091621,0,2,1,3,1,1,2,0,22,2021_Sep_16_1354,listening_fmri,3.2.4,59.91046165828216,
3,parcelated_audio/21/21_24.ogg,,,,,,,,,0,0,0,0,0,3,3,3,0,0,0,0,,,,,,,,,0,0,0,0,0,23,23,23,,,,,,,,,,,,,,,,,,,,,,,,,,,,,,,,,,,,,,,,374.2852027459994,378.8612638959994,,,,,091621,0,2,1,3,1,1,2,0,22,2021_Sep_16_1354,listening_fmri,3.2.4,59.91046165828216,
3,parcelated_audio/21/21_25.ogg,,,,,,,,,0,0,0,0,0,3,3,3,0,0,0,0,,,,,,,,,0,0,0,0,0,24,24,24,,,,,,,,,,,,,,,,,,,,,,,,,,,,,,,,,,,,,,,,378.8616070649996,388.30252939599995,,,,,091621,0,2,1,3,1,1,2,0,22,2021_Sep_16_1354,listening_fmri,3.2.4,59.91046165828216,
3,parcelated_audio/21/21_26.ogg,,,,,,,,,0,0,0,0,0,3,3,3,0,0,0,0,,,,,,,,,0,0,0,0,0,25,25,25,,,,,,,,,,,,,,,,,,,,,,,,,,,,,,,,,,,,,,,,388.3030871049996,392.3026049979999,,,,,091621,0,2,1,3,1,1,2,0,22,2021_Sep_16_1354,listening_fmri,3.2.4,59.91046165828216,
3,parcelated_audio/21/21_27.ogg,,,,,,,,,0,0,0,0,0,3,3,3,0,0,0,0,,,,,,,,,0,0,0,0,0,26,26,26,,,,,,,,,,,,,,,,,,,,,,,,,,,,,,,,,,,,,,,,392.30319911599963,399.4935323949994,,,,,091621,0,2,1,3,1,1,2,0,22,2021_Sep_16_1354,listening_fmri,3.2.4,59.91046165828216,
3,parcelated_audio/21/21_28.ogg,,,,,,,,,0,0,0,0,0,3,3,3,0,0,0,0,,,,,,,,,0,0,0,0,0,27,27,27,,,,,,,,,,,,,,,,,,,,,,,,,,,,,,,,,,,,,,,,399.49380791600015,405.60553954700026,,,,,091621,0,2,1,3,1,1,2,0,22,2021_Sep_16_1354,listening_fmri,3.2.4,59.91046165828216,
3,parcelated_audio/21/21_29.ogg,,,,,,,,,0,0,0,0,0,3,3,3,0,0,0,0,,,,,,,,,0,0,0,0,0,28,28,28,,,,,,,,,,,,,,,,,,,,,,,,,,,,,,,,,,,,,,,,405.60598337899955,409.87220346899994,,,,,091621,0,2,1,3,1,1,2,0,22,2021_Sep_16_1354,listening_fmri,3.2.4,59.91046165828216,
3,parcelated_audio/21/21_30.ogg,,,,,,,,,0,0,0,0,0,3,3,3,0,0,0,0,,,,,,,,,0,0,0,0,0,29,29,29,,,,,,,,,,,,,,,,,,,,,,,,,,,,,,,,,,,,,,,,409.87251825600015,415.13628130100005,,,,,091621,0,2,1,3,1,1,2,0,22,2021_Sep_16_1354,listening_fmri,3.2.4,59.91046165828216,
3,,,,,,,,,,0,0,0,0,0,3,3,3,0,0,0,0,,,,,,,,,0,0,0,0,,,,,,,,,,,,,,,,,,,,,,,,,,,,,,,,,,,,,,,,,,,,,,,,,,091621,0,2,1,3,1,1,2,0,22,2021_Sep_16_1354,listening_fmri,3.2.4,59.91046165828216,
,,,,,,,,,,,,,,,,,,,,,,,,,,,,,,,,,,,,,,,,,,,,,,,,,,,,,,,415.1367312169996,421.13339958399956,503.6777454739995,None,,,,,,,,,,,,,,,,,,,,,509.677977026,None,509.677977026,None,,,,,,,,,,,,,,,
﻿count,audio,trials_14.thisRepN,trials_14.thisTrialN,trials_14.thisN,trials_14.thisIndex,trials_3.thisRepN,trials_3.thisTrialN,trials_3.thisN,trials_3.thisIndex,trials_4.thisRepN,trials_4.thisTrialN,trials_4.thisN,trials_4.thisIndex,trials_6.thisRepN,trials_6.thisTrialN,trials_6.thisN,trials_6.thisIndex,trials_9.thisRepN,trials_9.thisTrialN,trials_9.thisN,trials_9.thisIndex,trials_10.thisRepN,trials_10.thisTrialN,trials_10.thisN,trials_10.thisIndex,trials_12.thisRepN,trials_12.thisTrialN,trials_12.thisN,trials_12.thisIndex,trials_25.thisRepN,trials_25.thisTrialN,trials_25.thisN,trials_25.thisIndex,trials_15.thisRepN,trials_15.thisTrialN,trials_15.thisN,trials_15.thisIndex,trials_26.thisRepN,trials_26.thisTrialN,trials_26.thisN,trials_26.thisIndex,story_list_block2,action_list_block2,textTrigger.started,textTrigger.stopped,getTrigger.keys,getTrigger.rt,getTrigger.started,getTrigger.stopped,triggerTime,text_76.started,text_76.stopped,text_77.started,text_77.stopped,startWait,endWait,image_23.started,image_23.stopped,text_55.started,text_55.stopped,text_56.started,text_56.stopped,key_resp_2.keys,key_resp_2.rt,key_resp_2.started,key_resp_2.stopped,text_82.started,text_82.stopped,text_64.started,text_64.stopped,key_resp_20.keys,key_resp_20.rt,key_resp_20.started,key_resp_20.stopped,storyImage_StartTime,storyImage_EndTime,clip_StartTime,clip_EndTime,text_67.started,text_67.stopped,text_68.started,text_68.stopped,participant,sA,sB,lA,lB,block_struct,play_stories,block,behavioral,random_seed,date,expName,psychopyVersion,frameRate,
0,parcelated_audio/43/43_1.ogg,,,,,,,,,0,0,0,0,0,0,0,0,0,0,0,0,,,,,,,,,0,0,0,0,0,0,0,0,,,,,[43 32 34 21 14 12 41 23],[4 3 3 4 3 3 4 4],48.66023008399952,None,equal,39.85402469000019,48.66023008399952,None,39.88244328000019,48.66023008399952,None,48.66023008399952,None,0.00037968499964335933,5.999532797000029,88.54433230799987,None,94.55585407599938,None,94.55585407599938,None,2,1.617243554000197,94.55585407599938,None,94.55585407599938,None,96.20569447999969,None,2,1.2965763789998164,96.20569447999969,None,8.989673424000102,11.999400396000055,12.00407118000021,19.622584220000135,,,,,091621,0,2,1,3,1,1,2,0,22,2021_Sep_16_1354,listening_fmri,3.2.4,59.91046165828216,
0,parcelated_audio/43/43_2.ogg,,,,,,,,,0,0,0,0,0,0,0,0,0,0,0,0,,,,,,,,,0,0,0,0,0,1,1,1,,,,,,,,,,,,,,,,,,,,,,,,,,,,,,,,,,,,,,,,19.622871530999873,23.392540777999784,,,,,091621,0,2,1,3,1,1,2,0,22,2021_Sep_16_1354,listening_fmri,3.2.4,59.91046165828216,
0,parcelated_audio/43/43_3.ogg,,,,,,,,,0,0,0,0,0,0,0,0,0,0,0,0,,,,,,,,,0,0,0,0,0,2,2,2,,,,,,,,,,,,,,,,,,,,,,,,,,,,,,,,,,,,,,,,23.39281440400009,32.26401536100002,,,,,091621,0,2,1,3,1,1,2,0,22,2021_Sep_16_1354,listening_fmri,3.2.4,59.91046165828216,
0,parcelated_audio/43/43_4.ogg,,,,,,,,,0,0,0,0,0,0,0,0,0,0,0,0,,,,,,,,,0,0,0,0,0,3,3,3,,,,,,,,,,,,,,,,,,,,,,,,,,,,,,,,,,,,,,,,32.26429277599982,40.773403678999784,,,,,091621,0,2,1,3,1,1,2,0,22,2021_Sep_16_1354,listening_fmri,3.2.4,59.91046165828216,
0,parcelated_audio/43/43_5.ogg,,,,,,,,,0,0,0,0,0,0,0,0,0,0,0,0,,,,,,,,,0,0,0,0,0,4,4,4,,,,,,,,,,,,,,,,,,,,,,,,,,,,,,,,,,,,,,,,40.77367916200001,50.02848866400018,,,,,091621,0,2,1,3,1,1,2,0,22,2021_Sep_16_1354,listening_fmri,3.2.4,59.91046165828216,
0,parcelated_audio/43/43_6.ogg,,,,,,,,,0,0,0,0,0,0,0,0,0,0,0,0,,,,,,,,,0,0,0,0,0,5,5,5,,,,,,,,,,,,,,,,,,,,,,,,,,,,,,,,,,,,,,,,50.02876712899979,59.1656209140001,,,,,091621,0,2,1,3,1,1,2,0,22,2021_Sep_16_1354,listening_fmri,3.2.4,59.91046165828216,
0,parcelated_audio/43/43_7.ogg,,,,,,,,,0,0,0,0,0,0,0,0,0,0,0,0,,,,,,,,,0,0,0,0,0,6,6,6,,,,,,,,,,,,,,,,,,,,,,,,,,,,,,,,,,,,,,,,59.1660862939998,63.928289642999516,,,,,091621,0,2,1,3,1,1,2,0,22,2021_Sep_16_1354,listening_fmri,3.2.4,59.91046165828216,
0,parcelated_audio/43/43_8.ogg,,,,,,,,,0,0,0,0,0,0,0,0,0,0,0,0,,,,,,,,,0,0,0,0,0,7,7,7,,,,,,,,,,,,,,,,,,,,,,,,,,,,,,,,,,,,,,,,63.92862461099958,70.4960861949994,,,,,091621,0,2,1,3,1,1,2,0,22,2021_Sep_16_1354,listening_fmri,3.2.4,59.91046165828216,
0,parcelated_audio/43/43_9.ogg,,,,,,,,,0,0,0,0,0,0,0,0,0,0,0,0,,,,,,,,,0,0,0,0,0,8,8,8,,,,,,,,,,,,,,,,,,,,,,,,,,,,,,,,,,,,,,,,70.496434357,75.01094763199944,,,,,091621,0,2,1,3,1,1,2,0,22,2021_Sep_16_1354,listening_fmri,3.2.4,59.91046165828216,
0,parcelated_audio/43/43_10.ogg,,,,,,,,,0,0,0,0,0,0,0,0,0,0,0,0,,,,,,,,,0,0,0,0,0,9,9,9,,,,,,,,,,,,,,,,,,,,,,,,,,,,,,,,,,,,,,,,75.01129537899942,79.89224299899979,,,,,091621,0,2,1,3,1,1,2,0,22,2021_Sep_16_1354,listening_fmri,3.2.4,59.91046165828216,
0,parcelated_audio/43/43_11.ogg,,,,,,,,,0,0,0,0,0,0,0,0,0,0,0,0,,,,,,,,,0,0,0,0,0,10,10,10,,,,,,,,,,,,,,,,,,,,,,,,,,,,,,,,,,,,,,,,79.89270805500018,90.9228897819994,,,,,091621,0,2,1,3,1,1,2,0,22,2021_Sep_16_1354,listening_fmri,3.2.4,59.91046165828216,
0,parcelated_audio/43/43_12.ogg,,,,,,,,,0,0,0,0,0,0,0,0,0,0,0,0,,,,,,,,,0,0,0,0,0,11,11,11,,,,,,,,,,,,,,,,,,,,,,,,,,,,,,,,,,,,,,,,90.92324263399951,97.0082587629995,,,,,091621,0,2,1,3,1,1,2,0,22,2021_Sep_16_1354,listening_fmri,3.2.4,59.91046165828216,
0,parcelated_audio/43/43_13.ogg,,,,,,,,,0,0,0,0,0,0,0,0,0,0,0,0,,,,,,,,,0,0,0,0,0,12,12,12,,,,,,,,,,,,,,,,,,,,,,,,,,,,,,,,,,,,,,,,97.00860976599961,105.25739169400003,,,,,091621,0,2,1,3,1,1,2,0,22,2021_Sep_16_1354,listening_fmri,3.2.4,59.91046165828216,
0,parcelated_audio/43/43_14.ogg,,,,,,,,,0,0,0,0,0,0,0,0,0,0,0,0,,,,,,,,,0,0,0,0,0,13,13,13,,,,,,,,,,,,,,,,,,,,,,,,,,,,,,,,,,,,,,,,105.25780539199968,113.78894658599984,,,,,091621,0,2,1,3,1,1,2,0,22,2021_Sep_16_1354,listening_fmri,3.2.4,59.91046165828216,
0,parcelated_audio/43/43_15.ogg,,,,,,,,,0,0,0,0,0,0,0,0,0,0,0,0,,,,,,,,,0,0,0,0,0,14,14,14,,,,,,,,,,,,,,,,,,,,,,,,,,,,,,,,,,,,,,,,113.78930299300009,118.13691908199962,,,,,091621,0,2,1,3,1,1,2,0,22,2021_Sep_16_1354,listening_fmri,3.2.4,59.91046165828216,
0,parcelated_audio/43/43_16.ogg,,,,,,,,,0,0,0,0,0,0,0,0,0,0,0,0,,,,,,,,,0,0,0,0,0,15,15,15,,,,,,,,,,,,,,,,,,,,,,,,,,,,,,,,,,,,,,,,118.13719778499944,122.64793415099939,,,,,091621,0,2,1,3,1,1,2,0,22,2021_Sep_16_1354,listening_fmri,3.2.4,59.91046165828216,
0,parcelated_audio/43/43_17.ogg,,,,,,,,,0,0,0,0,0,0,0,0,0,0,0,0,,,,,,,,,0,0,0,0,0,16,16,16,,,,,,,,,,,,,,,,,,,,,,,,,,,,,,,,,,,,,,,,122.648291857,126.40821480799968,,,,,091621,0,2,1,3,1,1,2,0,22,2021_Sep_16_1354,listening_fmri,3.2.4,59.91046165828216,
0,parcelated_audio/43/43_18.ogg,,,,,,,,,0,0,0,0,0,0,0,0,0,0,0,0,,,,,,,,,0,0,0,0,0,17,17,17,,,,,,,,,,,,,,,,,,,,,,,,,,,,,,,,,,,,,,,,126.4085615670001,128.60727480399964,,,,,091621,0,2,1,3,1,1,2,0,22,2021_Sep_16_1354,listening_fmri,3.2.4,59.91046165828216,
0,parcelated_audio/43/43_19.ogg,,,,,,,,,0,0,0,0,0,0,0,0,0,0,0,0,,,,,,,,,0,0,0,0,0,18,18,18,,,,,,,,,,,,,,,,,,,,,,,,,,,,,,,,,,,,,,,,128.60756586299976,132.2557107929997,,,,,091621,0,2,1,3,1,1,2,0,22,2021_Sep_16_1354,listening_fmri,3.2.4,59.91046165828216,
0,parcelated_audio/43/43_20.ogg,,,,,,,,,0,0,0,0,0,0,0,0,0,0,0,0,,,,,,,,,0,0,0,0,0,19,19,19,,,,,,,,,,,,,,,,,,,,,,,,,,,,,,,,,,,,,,,,132.256286928,139.43401576699944,,,,,091621,0,2,1,3,1,1,2,0,22,2021_Sep_16_1354,listening_fmri,3.2.4,59.91046165828216,
0,parcelated_audio/43/43_21.ogg,,,,,,,,,0,0,0,0,0,0,0,0,0,0,0,0,,,,,,,,,0,0,0,0,0,20,20,20,,,,,,,,,,,,,,,,,,,,,,,,,,,,,,,,,,,,,,,,139.43437006299973,141.904022404,,,,,091621,0,2,1,3,1,1,2,0,22,2021_Sep_16_1354,listening_fmri,3.2.4,59.91046165828216,
0,parcelated_audio/43/43_22.ogg,,,,,,,,,0,0,0,0,0,0,0,0,0,0,0,0,,,,,,,,,0,0,0,0,0,21,21,21,,,,,,,,,,,,,,,,,,,,,,,,,,,,,,,,,,,,,,,,141.90437221399952,145.29500216899942,,,,,091621,0,2,1,3,1,1,2,0,22,2021_Sep_16_1354,listening_fmri,3.2.4,59.91046165828216,
0,parcelated_audio/43/43_23.ogg,,,,,,,,,0,0,0,0,0,0,0,0,0,0,0,0,,,,,,,,,0,0,0,0,0,22,22,22,,,,,,,,,,,,,,,,,,,,,,,,,,,,,,,,,,,,,,,,145.29533321799954,151.33105138599967,,,,,091621,0,2,1,3,1,1,2,0,22,2021_Sep_16_1354,listening_fmri,3.2.4,59.91046165828216,
0,parcelated_audio/43/43_24.ogg,,,,,,,,,0,0,0,0,0,0,0,0,0,0,0,0,,,,,,,,,0,0,0,0,0,23,23,23,,,,,,,,,,,,,,,,,,,,,,,,,,,,,,,,,,,,,,,,151.33140775399988,157.67766971399942,,,,,091621,0,2,1,3,1,1,2,0,22,2021_Sep_16_1354,listening_fmri,3.2.4,59.91046165828216,
0,parcelated_audio/43/43_25.ogg,,,,,,,,,0,0,0,0,0,0,0,0,0,0,0,0,,,,,,,,,0,0,0,0,0,24,24,24,,,,,,,,,,,,,,,,,,,,,,,,,,,,,,,,,,,,,,,,157.67804059099944,162.7041857989998,,,,,091621,0,2,1,3,1,1,2,0,22,2021_Sep_16_1354,listening_fmri,3.2.4,59.91046165828216,
0,parcelated_audio/43/43_26.ogg,,,,,,,,,0,0,0,0,0,0,0,0,0,0,0,0,,,,,,,,,0,0,0,0,0,25,25,25,,,,,,,,,,,,,,,,,,,,,,,,,,,,,,,,,,,,,,,,162.7045365469994,171.2718908050001,,,,,091621,0,2,1,3,1,1,2,0,22,2021_Sep_16_1354,listening_fmri,3.2.4,59.91046165828216,
0,parcelated_audio/43/43_27.ogg,,,,,,,,,0,0,0,0,0,0,0,0,0,0,0,0,,,,,,,,,0,0,0,0,0,26,26,26,,,,,,,,,,,,,,,,,,,,,,,,,,,,,,,,,,,,,,,,171.27224226199996,175.66143491099956,,,,,091621,0,2,1,3,1,1,2,0,22,2021_Sep_16_1354,listening_fmri,3.2.4,59.91046165828216,
0,parcelated_audio/43/43_28.ogg,,,,,,,,,0,0,0,0,0,0,0,0,0,0,0,0,,,,,,,,,0,0,0,0,0,27,27,27,,,,,,,,,,,,,,,,,,,,,,,,,,,,,,,,,,,,,,,,175.66190050299974,180.63712828200005,,,,,091621,0,2,1,3,1,1,2,0,22,2021_Sep_16_1354,listening_fmri,3.2.4,59.91046165828216,
0,parcelated_audio/43/43_29.ogg,,,,,,,,,0,0,0,0,0,0,0,0,0,0,0,0,,,,,,,,,0,0,0,0,0,28,28,28,,,,,,,,,,,,,,,,,,,,,,,,,,,,,,,,,,,,,,,,180.63748614899941,186.77751538699977,,,,,091621,0,2,1,3,1,1,2,0,22,2021_Sep_16_1354,listening_fmri,3.2.4,59.91046165828216,
0,,,,,,,,,,0,0,0,0,0,0,0,0,0,0,0,0,,,,,,,,,0,0,0,0,,,,,,,,,,,,,,,,,,,,,,,,,,,,,,,,,,,,,,,,,,,,,,,,,,091621,0,2,1,3,1,1,2,0,22,2021_Sep_16_1354,listening_fmri,3.2.4,59.91046165828216,
0,,,,,,,,,,0,0,0,0,0,0,0,0,0,0,0,0,,,,,,,,,,,,,,,,,,,,,,,,,,,,,,,,,,186.77790731000005,192.77499637300025,275.3100720049997,None,,,,,,,,,,,,,,,,,,,,,281.319662936,None,281.319662936,None,091621,0,2,1,3,1,1,2,0,22,2021_Sep_16_1354,listening_fmri,3.2.4,59.91046165828216,
0,,,,,,,,,,0,0,0,0,0,0,0,0,,,,,,,,,,,,,,,,,,,,,,,,,,,,,,,,,,,,,,,,,,,,,,,,,,,,,,,,,,,,,,,,,,091621,0,2,1,3,1,1,2,0,22,2021_Sep_16_1354,listening_fmri,3.2.4,59.91046165828216,
1,,,,,,,,,,0,0,0,0,0,1,1,1,,,,,,,,,,,,,,,,,,,,,,,,,,,,,,,,,,,,,,,,,,,,,,,,,,,,,,,,,,,,,,,,,,091621,0,2,1,3,1,1,2,0,22,2021_Sep_16_1354,listening_fmri,3.2.4,59.91046165828216,
2,,,,,,,,,,0,0,0,0,0,2,2,2,,,,,,,,,,,,,,,,,,,,,,,,,,,,,,,,,,,,,,,,,,,,,,,,,,,,,,,,,,,,,,,,,,091621,0,2,1,3,1,1,2,0,22,2021_Sep_16_1354,listening_fmri,3.2.4,59.91046165828216,
3,parcelated_audio/21/21_1.ogg,,,,,,,,,0,0,0,0,0,3,3,3,0,0,0,0,,,,,,,,,0,0,0,0,0,0,0,0,,,,,,,,,,,,,,,,,,,,,,282.32809646499936,None,282.32809646499936,None,2,0.9132115780003005,282.32809646499936,None,282.32809646499936,None,283.26135615899966,None,2,2.260890494000705,283.26135615899966,None,197.01565193999977,200.0242482449994,200.0290291929996,214.30957515299997,,,,,091621,0,2,1,3,1,1,2,0,22,2021_Sep_16_1354,listening_fmri,3.2.4,59.91046165828216,
3,parcelated_audio/21/21_2.ogg,,,,,,,,,0,0,0,0,0,3,3,3,0,0,0,0,,,,,,,,,0,0,0,0,0,1,1,1,,,,,,,,,,,,,,,,,,,,,,,,,,,,,,,,,,,,,,,,214.310158925,221.73569693700028,,,,,091621,0,2,1,3,1,1,2,0,22,2021_Sep_16_1354,listening_fmri,3.2.4,59.91046165828216,
3,parcelated_audio/21/21_3.ogg,,,,,,,,,0,0,0,0,0,3,3,3,0,0,0,0,,,,,,,,,0,0,0,0,0,2,2,2,,,,,,,,,,,,,,,,,,,,,,,,,,,,,,,,,,,,,,,,221.7365763150001,229.43288248999943,,,,,091621,0,2,1,3,1,1,2,0,22,2021_Sep_16_1354,listening_fmri,3.2.4,59.91046165828216,
3,parcelated_audio/21/21_4.ogg,,,,,,,,,0,0,0,0,0,3,3,3,0,0,0,0,,,,,,,,,0,0,0,0,0,3,3,3,,,,,,,,,,,,,,,,,,,,,,,,,,,,,,,,,,,,,,,,229.43315927799995,240.48016230899975,,,,,091621,0,2,1,3,1,1,2,0,22,2021_Sep_16_1354,listening_fmri,3.2.4,59.91046165828216,
3,parcelated_audio/21/21_5.ogg,,,,,,,,,0,0,0,0,0,3,3,3,0,0,0,0,,,,,,,,,0,0,0,0,0,4,4,4,,,,,,,,,,,,,,,,,,,,,,,,,,,,,,,,,,,,,,,,240.48048378299973,245.54376310599946,,,,,091621,0,2,1,3,1,1,2,0,22,2021_Sep_16_1354,listening_fmri,3.2.4,59.91046165828216,
3,parcelated_audio/21/21_6.ogg,,,,,,,,,0,0,0,0,0,3,3,3,0,0,0,0,,,,,,,,,0,0,0,0,0,5,5,5,,,,,,,,,,,,,,,,,,,,,,,,,,,,,,,,,,,,,,,,245.54403927899966,253.70450298000014,,,,,091621,0,2,1,3,1,1,2,0,22,2021_Sep_16_1354,listening_fmri,3.2.4,59.91046165828216,
3,parcelated_audio/21/21_7.ogg,,,,,,,,,0,0,0,0,0,3,3,3,0,0,0,0,,,,,,,,,0,0,0,0,0,6,6,6,,,,,,,,,,,,,,,,,,,,,,,,,,,,,,,,,,,,,,,,253.70485902200016,258.22710927200023,,,,,091621,0,2,1,3,1,1,2,0,22,2021_Sep_16_1354,listening_fmri,3.2.4,59.91046165828216,
3,parcelated_audio/21/21_8.ogg,,,,,,,,,0,0,0,0,0,3,3,3,0,0,0,0,,,,,,,,,0,0,0,0,0,7,7,7,,,,,,,,,,,,,,,,,,,,,,,,,,,,,,,,,,,,,,,,258.22766342900013,269.13373162599964,,,,,091621,0,2,1,3,1,1,2,0,22,2021_Sep_16_1354,listening_fmri,3.2.4,59.91046165828216,
3,parcelated_audio/21/21_9.ogg,,,,,,,,,0,0,0,0,0,3,3,3,0,0,0,0,,,,,,,,,0,0,0,0,0,8,8,8,,,,,,,,,,,,,,,,,,,,,,,,,,,,,,,,,,,,,,,,269.1340867990002,276.5219969919999,,,,,091621,0,2,1,3,1,1,2,0,22,2021_Sep_16_1354,listening_fmri,3.2.4,59.91046165828216,
3,parcelated_audio/21/21_10.ogg,,,,,,,,,0,0,0,0,0,3,3,3,0,0,0,0,,,,,,,,,0,0,0,0,0,9,9,9,,,,,,,,,,,,,,,,,,,,,,,,,,,,,,,,,,,,,,,,276.5223726079994,283.37088834099995,,,,,091621,0,2,1,3,1,1,2,0,22,2021_Sep_16_1354,listening_fmri,3.2.4,59.91046165828216,
3,parcelated_audio/21/21_11.ogg,,,,,,,,,0,0,0,0,0,3,3,3,0,0,0,0,,,,,,,,,0,0,0,0,0,10,10,10,,,,,,,,,,,,,,,,,,,,,,,,,,,,,,,,,,,,,,,,283.3713063919995,290.46798912099985,,,,,091621,0,2,1,3,1,1,2,0,22,2021_Sep_16_1354,listening_fmri,3.2.4,59.91046165828216,
3,parcelated_audio/21/21_12.ogg,,,,,,,,,0,0,0,0,0,3,3,3,0,0,0,0,,,,,,,,,0,0,0,0,0,11,11,11,,,,,,,,,,,,,,,,,,,,,,,,,,,,,,,,,,,,,,,,290.4683316800001,298.7779465900003,,,,,091621,0,2,1,3,1,1,2,0,22,2021_Sep_16_1354,listening_fmri,3.2.4,59.91046165828216,
3,parcelated_audio/21/21_13.ogg,,,,,,,,,0,0,0,0,0,3,3,3,0,0,0,0,,,,,,,,,0,0,0,0,0,12,12,12,,,,,,,,,,,,,,,,,,,,,,,,,,,,,,,,,,,,,,,,298.77849768800024,302.11494817399944,,,,,091621,0,2,1,3,1,1,2,0,22,2021_Sep_16_1354,listening_fmri,3.2.4,59.91046165828216,
3,parcelated_audio/21/21_14.ogg,,,,,,,,,0,0,0,0,0,3,3,3,0,0,0,0,,,,,,,,,0,0,0,0,0,13,13,13,,,,,,,,,,,,,,,,,,,,,,,,,,,,,,,,,,,,,,,,302.1152272089994,307.53028536799957,,,,,091621,0,2,1,3,1,1,2,0,22,2021_Sep_16_1354,listening_fmri,3.2.4,59.91046165828216,
3,parcelated_audio/21/21_15.ogg,,,,,,,,,0,0,0,0,0,3,3,3,0,0,0,0,,,,,,,,,0,0,0,0,0,14,14,14,,,,,,,,,,,,,,,,,,,,,,,,,,,,,,,,,,,,,,,,307.5306103470002,314.34926040400023,,,,,091621,0,2,1,3,1,1,2,0,22,2021_Sep_16_1354,listening_fmri,3.2.4,59.91046165828216,
3,parcelated_audio/21/21_16.ogg,,,,,,,,,0,0,0,0,0,3,3,3,0,0,0,0,,,,,,,,,0,0,0,0,0,15,15,15,,,,,,,,,,,,,,,,,,,,,,,,,,,,,,,,,,,,,,,,314.3495451099998,320.42547784899944,,,,,091621,0,2,1,3,1,1,2,0,22,2021_Sep_16_1354,listening_fmri,3.2.4,59.91046165828216,
3,parcelated_audio/21/21_17.ogg,,,,,,,,,0,0,0,0,0,3,3,3,0,0,0,0,,,,,,,,,0,0,0,0,0,16,16,16,,,,,,,,,,,,,,,,,,,,,,,,,,,,,,,,,,,,,,,,320.4257563279998,322.58786543099995,,,,,091621,0,2,1,3,1,1,2,0,22,2021_Sep_16_1354,listening_fmri,3.2.4,59.91046165828216,
3,parcelated_audio/21/21_18.ogg,,,,,,,,,0,0,0,0,0,3,3,3,0,0,0,0,,,,,,,,,0,0,0,0,0,17,17,17,,,,,,,,,,,,,,,,,,,,,,,,,,,,,,,,,,,,,,,,322.5881779709998,335.7425566510001,,,,,091621,0,2,1,3,1,1,2,0,22,2021_Sep_16_1354,listening_fmri,3.2.4,59.91046165828216,
3,parcelated_audio/21/21_19.ogg,,,,,,,,,0,0,0,0,0,3,3,3,0,0,0,0,,,,,,,,,0,0,0,0,0,18,18,18,,,,,,,,,,,,,,,,,,,,,,,,,,,,,,,,,,,,,,,,335.7428360719996,338.62668930200016,,,,,091621,0,2,1,3,1,1,2,0,22,2021_Sep_16_1354,listening_fmri,3.2.4,59.91046165828216,
3,parcelated_audio/21/21_20.ogg,,,,,,,,,0,0,0,0,0,3,3,3,0,0,0,0,,,,,,,,,0,0,0,0,0,19,19,19,,,,,,,,,,,,,,,,,,,,,,,,,,,,,,,,,,,,,,,,338.6270182469998,347.36000549799974,,,,,091621,0,2,1,3,1,1,2,0,22,2021_Sep_16_1354,listening_fmri,3.2.4,59.91046165828216,
3,parcelated_audio/21/21_21.ogg,,,,,,,,,0,0,0,0,0,3,3,3,0,0,0,0,,,,,,,,,0,0,0,0,0,20,20,20,,,,,,,,,,,,,,,,,,,,,,,,,,,,,,,,,,,,,,,,347.3602666179995,358.39943006500016,,,,,091621,0,2,1,3,1,1,2,0,22,2021_Sep_16_1354,listening_fmri,3.2.4,59.91046165828216,
3,parcelated_audio/21/21_22.ogg,,,,,,,,,0,0,0,0,0,3,3,3,0,0,0,0,,,,,,,,,0,0,0,0,0,21,21,21,,,,,,,,,,,,,,,,,,,,,,,,,,,,,,,,,,,,,,,,358.39968376700017,369.2989137839995,,,,,091621,0,2,1,3,1,1,2,0,22,2021_Sep_16_1354,listening_fmri,3.2.4,59.91046165828216,
3,parcelated_audio/21/21_23.ogg,,,,,,,,,0,0,0,0,0,3,3,3,0,0,0,0,,,,,,,,,0,0,0,0,0,22,22,22,,,,,,,,,,,,,,,,,,,,,,,,,,,,,,,,,,,,,,,,369.29924840199965,374.2848531109994,,,,,091621,0,2,1,3,1,1,2,0,22,2021_Sep_16_1354,listening_fmri,3.2.4,59.91046165828216,
3,parcelated_audio/21/21_24.ogg,,,,,,,,,0,0,0,0,0,3,3,3,0,0,0,0,,,,,,,,,0,0,0,0,0,23,23,23,,,,,,,,,,,,,,,,,,,,,,,,,,,,,,,,,,,,,,,,374.2852027459994,378.8612638959994,,,,,091621,0,2,1,3,1,1,2,0,22,2021_Sep_16_1354,listening_fmri,3.2.4,59.91046165828216,
3,parcelated_audio/21/21_25.ogg,,,,,,,,,0,0,0,0,0,3,3,3,0,0,0,0,,,,,,,,,0,0,0,0,0,24,24,24,,,,,,,,,,,,,,,,,,,,,,,,,,,,,,,,,,,,,,,,378.8616070649996,388.30252939599995,,,,,091621,0,2,1,3,1,1,2,0,22,2021_Sep_16_1354,listening_fmri,3.2.4,59.91046165828216,
3,parcelated_audio/21/21_26.ogg,,,,,,,,,0,0,0,0,0,3,3,3,0,0,0,0,,,,,,,,,0,0,0,0,0,25,25,25,,,,,,,,,,,,,,,,,,,,,,,,,,,,,,,,,,,,,,,,388.3030871049996,392.3026049979999,,,,,091621,0,2,1,3,1,1,2,0,22,2021_Sep_16_1354,listening_fmri,3.2.4,59.91046165828216,
3,parcelated_audio/21/21_27.ogg,,,,,,,,,0,0,0,0,0,3,3,3,0,0,0,0,,,,,,,,,0,0,0,0,0,26,26,26,,,,,,,,,,,,,,,,,,,,,,,,,,,,,,,,,,,,,,,,392.30319911599963,399.4935323949994,,,,,091621,0,2,1,3,1,1,2,0,22,2021_Sep_16_1354,listening_fmri,3.2.4,59.91046165828216,
3,parcelated_audio/21/21_28.ogg,,,,,,,,,0,0,0,0,0,3,3,3,0,0,0,0,,,,,,,,,0,0,0,0,0,27,27,27,,,,,,,,,,,,,,,,,,,,,,,,,,,,,,,,,,,,,,,,399.49380791600015,405.60553954700026,,,,,091621,0,2,1,3,1,1,2,0,22,2021_Sep_16_1354,listening_fmri,3.2.4,59.91046165828216,
3,parcelated_audio/21/21_29.ogg,,,,,,,,,0,0,0,0,0,3,3,3,0,0,0,0,,,,,,,,,0,0,0,0,0,28,28,28,,,,,,,,,,,,,,,,,,,,,,,,,,,,,,,,,,,,,,,,405.60598337899955,409.87220346899994,,,,,091621,0,2,1,3,1,1,2,0,22,2021_Sep_16_1354,listening_fmri,3.2.4,59.91046165828216,
3,parcelated_audio/21/21_30.ogg,,,,,,,,,0,0,0,0,0,3,3,3,0,0,0,0,,,,,,,,,0,0,0,0,0,29,29,29,,,,,,,,,,,,,,,,,,,,,,,,,,,,,,,,,,,,,,,,409.87251825600015,415.13628130100005,,,,,091621,0,2,1,3,1,1,2,0,22,2021_Sep_16_1354,listening_fmri,3.2.4,59.91046165828216,
3,,,,,,,,,,0,0,0,0,0,3,3,3,0,0,0,0,,,,,,,,,0,0,0,0,,,,,,,,,,,,,,,,,,,,,,,,,,,,,,,,,,,,,,,,,,,,,,,,,,091621,0,2,1,3,1,1,2,0,22,2021_Sep_16_1354,listening_fmri,3.2.4,59.91046165828216,
3,,,,,,,,,,0,0,0,0,0,3,3,3,0,0,0,0,,,,,,,,,,,,,,,,,,,,,,,,,,,,,,,,,,415.1367312169996,421.13339958399956,503.6777454739995,None,,,,,,,,,,,,,,,,,,,,,509.677977026,None,509.677977026,None,091621,0,2,1,3,1,1,2,0,22,2021_Sep_16_1354,listening_fmri,3.2.4,59.91046165828216,
3,,,,,,,,,,0,0,0,0,0,3,3,3,,,,,,,,,,,,,,,,,,,,,,,,,,,,,,,,,,,,,,,,,,,,,,,,,,,,,,,,,,,,,,,,,,091621,0,2,1,3,1,1,2,0,22,2021_Sep_16_1354,listening_fmri,3.2.4,59.91046165828216,
4,,,,,,,,,,0,0,0,0,0,4,4,4,,,,,,,,,,,,,,,,,,,,,,,,,,,,,,,,,,,,,,,,,,,,,,,,,,,,,,,,,,,,,,,,,,091621,0,2,1,3,1,1,2,0,22,2021_Sep_16_1354,listening_fmri,3.2.4,59.91046165828216,
5,,,,,,,,,,0,0,0,0,0,5,5,5,,,,,,,,,,,,,,,,,,,,,,,,,,,,,,,,,,,,,,,,,,,,,,,,,,,,,,,,,,,,,,,,,,091621,0,2,1,3,1,1,2,0,22,2021_Sep_16_1354,listening_fmri,3.2.4,59.91046165828216,
6,parcelated_audio/41/41_1.ogg,,,,,,,,,0,0,0,0,0,6,6,6,0,0,0,0,,,,,,,,,0,0,0,0,0,0,0,0,,,,,,,,,,,,,,,,,,,,,,510.68353392799963,None,510.68353392799963,None,2,0.9016198769995754,510.68353392799963,None,510.68353392799963,None,511.61165390099995,None,2,1.9015259489997334,511.61165390099995,None,425.0070349759999,428.016518939,428.0222783680001,437.1279811590002,,,,,091621,0,2,1,3,1,1,2,0,22,2021_Sep_16_1354,listening_fmri,3.2.4,59.91046165828216,
6,parcelated_audio/41/41_2.ogg,,,,,,,,,0,0,0,0,0,6,6,6,0,0,0,0,,,,,,,,,0,0,0,0,0,1,1,1,,,,,,,,,,,,,,,,,,,,,,,,,,,,,,,,,,,,,,,,437.12833753299947,444.37260382600016,,,,,091621,0,2,1,3,1,1,2,0,22,2021_Sep_16_1354,listening_fmri,3.2.4,59.91046165828216,
6,parcelated_audio/41/41_3.ogg,,,,,,,,,0,0,0,0,0,6,6,6,0,0,0,0,,,,,,,,,0,0,0,0,0,2,2,2,,,,,,,,,,,,,,,,,,,,,,,,,,,,,,,,,,,,,,,,444.3729685070002,448.66665335499965,,,,,091621,0,2,1,3,1,1,2,0,22,2021_Sep_16_1354,listening_fmri,3.2.4,59.91046165828216,
6,parcelated_audio/41/41_4.ogg,,,,,,,,,0,0,0,0,0,6,6,6,0,0,0,0,,,,,,,,,0,0,0,0,0,3,3,3,,,,,,,,,,,,,,,,,,,,,,,,,,,,,,,,,,,,,,,,448.6670123240001,452.6279072420002,,,,,091621,0,2,1,3,1,1,2,0,22,2021_Sep_16_1354,listening_fmri,3.2.4,59.91046165828216,
6,parcelated_audio/41/41_5.ogg,,,,,,,,,0,0,0,0,0,6,6,6,0,0,0,0,,,,,,,,,0,0,0,0,0,4,4,4,,,,,,,,,,,,,,,,,,,,,,,,,,,,,,,,,,,,,,,,452.62825466399954,458.76642823400016,,,,,091621,0,2,1,3,1,1,2,0,22,2021_Sep_16_1354,listening_fmri,3.2.4,59.91046165828216,
6,parcelated_audio/41/41_6.ogg,,,,,,,,,0,0,0,0,0,6,6,6,0,0,0,0,,,,,,,,,0,0,0,0,0,5,5,5,,,,,,,,,,,,,,,,,,,,,,,,,,,,,,,,,,,,,,,,458.7667036060002,468.6899718220002,,,,,091621,0,2,1,3,1,1,2,0,22,2021_Sep_16_1354,listening_fmri,3.2.4,59.91046165828216,
6,parcelated_audio/41/41_7.ogg,,,,,,,,,0,0,0,0,0,6,6,6,0,0,0,0,,,,,,,,,0,0,0,0,0,6,6,6,,,,,,,,,,,,,,,,,,,,,,,,,,,,,,,,,,,,,,,,468.69032999199953,476.40728780300014,,,,,091621,0,2,1,3,1,1,2,0,22,2021_Sep_16_1354,listening_fmri,3.2.4,59.91046165828216,
6,parcelated_audio/41/41_8.ogg,,,,,,,,,0,0,0,0,0,6,6,6,0,0,0,0,,,,,,,,,0,0,0,0,0,7,7,7,,,,,,,,,,,,,,,,,,,,,,,,,,,,,,,,,,,,,,,,476.4075805020002,480.65163589199983,,,,,091621,0,2,1,3,1,1,2,0,22,2021_Sep_16_1354,listening_fmri,3.2.4,59.91046165828216,
6,parcelated_audio/41/41_9.ogg,,,,,,,,,0,0,0,0,0,6,6,6,0,0,0,0,,,,,,,,,0,0,0,0,0,8,8,8,,,,,,,,,,,,,,,,,,,,,,,,,,,,,,,,,,,,,,,,480.6520885330001,490.30473754600007,,,,,091621,0,2,1,3,1,1,2,0,22,2021_Sep_16_1354,listening_fmri,3.2.4,59.91046165828216,
6,parcelated_audio/41/41_10.ogg,,,,,,,,,0,0,0,0,0,6,6,6,0,0,0,0,,,,,,,,,0,0,0,0,0,9,9,9,,,,,,,,,,,,,,,,,,,,,,,,,,,,,,,,,,,,,,,,490.30501520799953,496.8162445099997,,,,,091621,0,2,1,3,1,1,2,0,22,2021_Sep_16_1354,listening_fmri,3.2.4,59.91046165828216,
6,parcelated_audio/41/41_11.ogg,,,,,,,,,0,0,0,0,0,6,6,6,0,0,0,0,,,,,,,,,0,0,0,0,0,10,10,10,,,,,,,,,,,,,,,,,,,,,,,,,,,,,,,,,,,,,,,,496.81652401500014,500.5864760120003,,,,,091621,0,2,1,3,1,1,2,0,22,2021_Sep_16_1354,listening_fmri,3.2.4,59.91046165828216,
6,parcelated_audio/41/41_12.ogg,,,,,,,,,0,0,0,0,0,6,6,6,0,0,0,0,,,,,,,,,0,0,0,0,0,11,11,11,,,,,,,,,,,,,,,,,,,,,,,,,,,,,,,,,,,,,,,,500.5869329729994,510.3366539279996,,,,,091621,0,2,1,3,1,1,2,0,22,2021_Sep_16_1354,listening_fmri,3.2.4,59.91046165828216,
6,parcelated_audio/41/41_13.ogg,,,,,,,,,0,0,0,0,0,6,6,6,0,0,0,0,,,,,,,,,0,0,0,0,0,12,12,12,,,,,,,,,,,,,,,,,,,,,,,,,,,,,,,,,,,,,,,,510.336952056,516.1526608059994,,,,,091621,0,2,1,3,1,1,2,0,22,2021_Sep_16_1354,listening_fmri,3.2.4,59.91046165828216,
6,parcelated_audio/41/41_14.ogg,,,,,,,,,0,0,0,0,0,6,6,6,0,0,0,0,,,,,,,,,0,0,0,0,0,13,13,13,,,,,,,,,,,,,,,,,,,,,,,,,,,,,,,,,,,,,,,,516.1529453829999,523.3948238840003,,,,,091621,0,2,1,3,1,1,2,0,22,2021_Sep_16_1354,listening_fmri,3.2.4,59.91046165828216,
6,parcelated_audio/41/41_15.ogg,,,,,,,,,0,0,0,0,0,6,6,6,0,0,0,0,,,,,,,,,0,0,0,0,0,14,14,14,,,,,,,,,,,,,,,,,,,,,,,,,,,,,,,,,,,,,,,,523.3952285019996,526.8189536499995,,,,,091621,0,2,1,3,1,1,2,0,22,2021_Sep_16_1354,listening_fmri,3.2.4,59.91046165828216,
6,parcelated_audio/41/41_16.ogg,,,,,,,,,0,0,0,0,0,6,6,6,0,0,0,0,,,,,,,,,0,0,0,0,0,15,15,15,,,,,,,,,,,,,,,,,,,,,,,,,,,,,,,,,,,,,,,,526.8192212029999,531.6875863389996,,,,,091621,0,2,1,3,1,1,2,0,22,2021_Sep_16_1354,listening_fmri,3.2.4,59.91046165828216,
6,parcelated_audio/41/41_17.ogg,,,,,,,,,0,0,0,0,0,6,6,6,0,0,0,0,,,,,,,,,0,0,0,0,0,16,16,16,,,,,,,,,,,,,,,,,,,,,,,,,,,,,,,,,,,,,,,,531.6878753999999,535.8986819649999,,,,,091621,0,2,1,3,1,1,2,0,22,2021_Sep_16_1354,listening_fmri,3.2.4,59.91046165828216,
6,parcelated_audio/41/41_18.ogg,,,,,,,,,0,0,0,0,0,6,6,6,0,0,0,0,,,,,,,,,0,0,0,0,0,17,17,17,,,,,,,,,,,,,,,,,,,,,,,,,,,,,,,,,,,,,,,,535.8991203229998,538.4292535639997,,,,,091621,0,2,1,3,1,1,2,0,22,2021_Sep_16_1354,listening_fmri,3.2.4,59.91046165828216,
6,parcelated_audio/41/41_19.ogg,,,,,,,,,0,0,0,0,0,6,6,6,0,0,0,0,,,,,,,,,0,0,0,0,0,18,18,18,,,,,,,,,,,,,,,,,,,,,,,,,,,,,,,,,,,,,,,,538.429624165,545.315100846,,,,,091621,0,2,1,3,1,1,2,0,22,2021_Sep_16_1354,listening_fmri,3.2.4,59.91046165828216,
6,parcelated_audio/41/41_20.ogg,,,,,,,,,0,0,0,0,0,6,6,6,0,0,0,0,,,,,,,,,0,0,0,0,0,19,19,19,,,,,,,,,,,,,,,,,,,,,,,,,,,,,,,,,,,,,,,,545.3154563759999,550.2372992129995,,,,,091621,0,2,1,3,1,1,2,0,22,2021_Sep_16_1354,listening_fmri,3.2.4,59.91046165828216,
6,parcelated_audio/41/41_21.ogg,,,,,,,,,0,0,0,0,0,6,6,6,0,0,0,0,,,,,,,,,0,0,0,0,0,20,20,20,,,,,,,,,,,,,,,,,,,,,,,,,,,,,,,,,,,,,,,,550.237598441,558.0366166559998,,,,,091621,0,2,1,3,1,1,2,0,22,2021_Sep_16_1354,listening_fmri,3.2.4,59.91046165828216,
6,parcelated_audio/41/41_22.ogg,,,,,,,,,0,0,0,0,0,6,6,6,0,0,0,0,,,,,,,,,0,0,0,0,0,21,21,21,,,,,,,,,,,,,,,,,,,,,,,,,,,,,,,,,,,,,,,,558.0370217139998,573.8335474400001,,,,,091621,0,2,1,3,1,1,2,0,22,2021_Sep_16_1354,listening_fmri,3.2.4,59.91046165828216,
6,parcelated_audio/41/41_23.ogg,,,,,,,,,0,0,0,0,0,6,6,6,0,0,0,0,,,,,,,,,0,0,0,0,0,22,22,22,,,,,,,,,,,,,,,,,,,,,,,,,,,,,,,,,,,,,,,,573.8339772019999,579.8286540600002,,,,,091621,0,2,1,3,1,1,2,0,22,2021_Sep_16_1354,listening_fmri,3.2.4,59.91046165828216,
6,parcelated_audio/41/41_24.ogg,,,,,,,,,0,0,0,0,0,6,6,6,0,0,0,0,,,,,,,,,0,0,0,0,0,23,23,23,,,,,,,,,,,,,,,,,,,,,,,,,,,,,,,,,,,,,,,,579.8290287829996,586.4800015459996,,,,,091621,0,2,1,3,1,1,2,0,22,2021_Sep_16_1354,listening_fmri,3.2.4,59.91046165828216,
6,parcelated_audio/41/41_25.ogg,,,,,,,,,0,0,0,0,0,6,6,6,0,0,0,0,,,,,,,,,0,0,0,0,0,24,24,24,,,,,,,,,,,,,,,,,,,,,,,,,,,,,,,,,,,,,,,,586.4805658839996,589.8425183720001,,,,,091621,0,2,1,3,1,1,2,0,22,2021_Sep_16_1354,listening_fmri,3.2.4,59.91046165828216,
6,parcelated_audio/41/41_26.ogg,,,,,,,,,0,0,0,0,0,6,6,6,0,0,0,0,,,,,,,,,0,0,0,0,0,25,25,25,,,,,,,,,,,,,,,,,,,,,,,,,,,,,,,,,,,,,,,,589.8427946149995,595.3574629650002,,,,,091621,0,2,1,3,1,1,2,0,22,2021_Sep_16_1354,listening_fmri,3.2.4,59.91046165828216,
6,parcelated_audio/41/41_27.ogg,,,,,,,,,0,0,0,0,0,6,6,6,0,0,0,0,,,,,,,,,0,0,0,0,0,26,26,26,,,,,,,,,,,,,,,,,,,,,,,,,,,,,,,,,,,,,,,,595.3577686789995,599.2187055690001,,,,,091621,0,2,1,3,1,1,2,0,22,2021_Sep_16_1354,listening_fmri,3.2.4,59.91046165828216,
6,parcelated_audio/41/41_28.ogg,,,,,,,,,0,0,0,0,0,6,6,6,0,0,0,0,,,,,,,,,0,0,0,0,0,27,27,27,,,,,,,,,,,,,,,,,,,,,,,,,,,,,,,,,,,,,,,,599.2197784139998,607.5698408799999,,,,,091621,0,2,1,3,1,1,2,0,22,2021_Sep_16_1354,listening_fmri,3.2.4,59.91046165828216,
6,parcelated_audio/41/41_29.ogg,,,,,,,,,0,0,0,0,0,6,6,6,0,0,0,0,,,,,,,,,0,0,0,0,0,28,28,28,,,,,,,,,,,,,,,,,,,,,,,,,,,,,,,,,,,,,,,,607.5701561119995,614.1817096349996,,,,,091621,0,2,1,3,1,1,2,0,22,2021_Sep_16_1354,listening_fmri,3.2.4,59.91046165828216,
6,parcelated_audio/41/41_30.ogg,,,,,,,,,0,0,0,0,0,6,6,6,0,0,0,0,,,,,,,,,0,0,0,0,0,29,29,29,,,,,,,,,,,,,,,,,,,,,,,,,,,,,,,,,,,,,,,,614.1820672029999,622.8857363010002,,,,,091621,0,2,1,3,1,1,2,0,22,2021_Sep_16_1354,listening_fmri,3.2.4,59.91046165828216,
6,parcelated_audio/41/41_31.ogg,,,,,,,,,0,0,0,0,0,6,6,6,0,0,0,0,,,,,,,,,0,0,0,0,0,30,30,30,,,,,,,,,,,,,,,,,,,,,,,,,,,,,,,,,,,,,,,,622.8860950789995,633.6289947739997,,,,,091621,0,2,1,3,1,1,2,0,22,2021_Sep_16_1354,listening_fmri,3.2.4,59.91046165828216,
6,parcelated_audio/41/41_32.ogg,,,,,,,,,0,0,0,0,0,6,6,6,0,0,0,0,,,,,,,,,0,0,0,0,0,31,31,31,,,,,,,,,,,,,,,,,,,,,,,,,,,,,,,,,,,,,,,,633.6293465669996,641.9680563259999,,,,,091621,0,2,1,3,1,1,2,0,22,2021_Sep_16_1354,listening_fmri,3.2.4,59.91046165828216,
6,parcelated_audio/41/41_33.ogg,,,,,,,,,0,0,0,0,0,6,6,6,0,0,0,0,,,,,,,,,0,0,0,0,0,32,32,32,,,,,,,,,,,,,,,,,,,,,,,,,,,,,,,,,,,,,,,,641.9686787740002,646.0402903229997,,,,,091621,0,2,1,3,1,1,2,0,22,2021_Sep_16_1354,listening_fmri,3.2.4,59.91046165828216,
6,parcelated_audio/41/41_34.ogg,,,,,,,,,0,0,0,0,0,6,6,6,0,0,0,0,,,,,,,,,0,0,0,0,0,33,33,33,,,,,,,,,,,,,,,,,,,,,,,,,,,,,,,,,,,,,,,,646.0406147100002,651.5570141099997,,,,,091621,0,2,1,3,1,1,2,0,22,2021_Sep_16_1354,listening_fmri,3.2.4,59.91046165828216,
6,parcelated_audio/41/41_35.ogg,,,,,,,,,0,0,0,0,0,6,6,6,0,0,0,0,,,,,,,,,0,0,0,0,0,34,34,34,,,,,,,,,,,,,,,,,,,,,,,,,,,,,,,,,,,,,,,,651.5573514359994,657.135061731,,,,,091621,0,2,1,3,1,1,2,0,22,2021_Sep_16_1354,listening_fmri,3.2.4,59.91046165828216,
6,parcelated_audio/41/41_36.ogg,,,,,,,,,0,0,0,0,0,6,6,6,0,0,0,0,,,,,,,,,0,0,0,0,0,35,35,35,,,,,,,,,,,,,,,,,,,,,,,,,,,,,,,,,,,,,,,,657.1354067379998,664.1523039630001,,,,,091621,0,2,1,3,1,1,2,0,22,2021_Sep_16_1354,listening_fmri,3.2.4,59.91046165828216,
6,parcelated_audio/41/41_37.ogg,,,,,,,,,0,0,0,0,0,6,6,6,0,0,0,0,,,,,,,,,0,0,0,0,0,36,36,36,,,,,,,,,,,,,,,,,,,,,,,,,,,,,,,,,,,,,,,,664.1526954209994,669.6386885749998,,,,,091621,0,2,1,3,1,1,2,0,22,2021_Sep_16_1354,listening_fmri,3.2.4,59.91046165828216,
6,,,,,,,,,,0,0,0,0,0,6,6,6,0,0,0,0,,,,,,,,,0,0,0,0,,,,,,,,,,,,,,,,,,,,,,,,,,,,,,,,,,,,,,,,,,,,,,,,,,091621,0,2,1,3,1,1,2,0,22,2021_Sep_16_1354,listening_fmri,3.2.4,59.91046165828216,
,,,,,,,,,,,,,,,,,,,,,,,,,,,,,,,,,,,,,,,,,,,,,,,,,,,,,,,669.639072471,675.633435707,758.1778687799997,None,,,,,,,,,,,,,,,,,,,,,764.1787365109994,None,764.1787365109994,None,,,,,,,,,,,,,,,
﻿count,audio,trials_14.thisRepN,trials_14.thisTrialN,trials_14.thisN,trials_14.thisIndex,trials_3.thisRepN,trials_3.thisTrialN,trials_3.thisN,trials_3.thisIndex,trials_4.thisRepN,trials_4.thisTrialN,trials_4.thisN,trials_4.thisIndex,trials_6.thisRepN,trials_6.thisTrialN,trials_6.thisN,trials_6.thisIndex,trials_9.thisRepN,trials_9.thisTrialN,trials_9.thisN,trials_9.thisIndex,trials_10.thisRepN,trials_10.thisTrialN,trials_10.thisN,trials_10.thisIndex,trials_12.thisRepN,trials_12.thisTrialN,trials_12.thisN,trials_12.thisIndex,trials_25.thisRepN,trials_25.thisTrialN,trials_25.thisN,trials_25.thisIndex,trials_15.thisRepN,trials_15.thisTrialN,trials_15.thisN,trials_15.thisIndex,trials_26.thisRepN,trials_26.thisTrialN,trials_26.thisN,trials_26.thisIndex,story_list_block2,action_list_block2,textTrigger.started,textTrigger.stopped,getTrigger.keys,getTrigger.rt,getTrigger.started,getTrigger.stopped,triggerTime,text_76.started,text_76.stopped,text_77.started,text_77.stopped,startWait,endWait,image_23.started,image_23.stopped,text_55.started,text_55.stopped,text_56.started,text_56.stopped,key_resp_2.keys,key_resp_2.rt,key_resp_2.started,key_resp_2.stopped,text_82.started,text_82.stopped,text_64.started,text_64.stopped,key_resp_20.keys,key_resp_20.rt,key_resp_20.started,key_resp_20.stopped,storyImage_StartTime,storyImage_EndTime,clip_StartTime,clip_EndTime,text_67.started,text_67.stopped,text_68.started,text_68.stopped,participant,sA,sB,lA,lB,block_struct,play_stories,block,behavioral,random_seed,date,expName,psychopyVersion,frameRate,
0,parcelated_audio/43/43_1.ogg,,,,,,,,,0,0,0,0,0,0,0,0,0,0,0,0,,,,,,,,,0,0,0,0,0,0,0,0,,,,,[43 32 34 21 14 12 41 23],[4 3 3 4 3 3 4 4],48.66023008399952,None,equal,39.85402469000019,48.66023008399952,None,39.88244328000019,48.66023008399952,None,48.66023008399952,None,0.00037968499964335933,5.999532797000029,88.54433230799987,None,94.55585407599938,None,94.55585407599938,None,2,1.617243554000197,94.55585407599938,None,94.55585407599938,None,96.20569447999969,None,2,1.2965763789998164,96.20569447999969,None,8.989673424000102,11.999400396000055,12.00407118000021,19.622584220000135,,,,,091621,0,2,1,3,1,1,2,0,22,2021_Sep_16_1354,listening_fmri,3.2.4,59.91046165828216,
0,parcelated_audio/43/43_2.ogg,,,,,,,,,0,0,0,0,0,0,0,0,0,0,0,0,,,,,,,,,0,0,0,0,0,1,1,1,,,,,,,,,,,,,,,,,,,,,,,,,,,,,,,,,,,,,,,,19.622871530999873,23.392540777999784,,,,,091621,0,2,1,3,1,1,2,0,22,2021_Sep_16_1354,listening_fmri,3.2.4,59.91046165828216,
0,parcelated_audio/43/43_3.ogg,,,,,,,,,0,0,0,0,0,0,0,0,0,0,0,0,,,,,,,,,0,0,0,0,0,2,2,2,,,,,,,,,,,,,,,,,,,,,,,,,,,,,,,,,,,,,,,,23.39281440400009,32.26401536100002,,,,,091621,0,2,1,3,1,1,2,0,22,2021_Sep_16_1354,listening_fmri,3.2.4,59.91046165828216,
0,parcelated_audio/43/43_4.ogg,,,,,,,,,0,0,0,0,0,0,0,0,0,0,0,0,,,,,,,,,0,0,0,0,0,3,3,3,,,,,,,,,,,,,,,,,,,,,,,,,,,,,,,,,,,,,,,,32.26429277599982,40.773403678999784,,,,,091621,0,2,1,3,1,1,2,0,22,2021_Sep_16_1354,listening_fmri,3.2.4,59.91046165828216,
0,parcelated_audio/43/43_5.ogg,,,,,,,,,0,0,0,0,0,0,0,0,0,0,0,0,,,,,,,,,0,0,0,0,0,4,4,4,,,,,,,,,,,,,,,,,,,,,,,,,,,,,,,,,,,,,,,,40.77367916200001,50.02848866400018,,,,,091621,0,2,1,3,1,1,2,0,22,2021_Sep_16_1354,listening_fmri,3.2.4,59.91046165828216,
0,parcelated_audio/43/43_6.ogg,,,,,,,,,0,0,0,0,0,0,0,0,0,0,0,0,,,,,,,,,0,0,0,0,0,5,5,5,,,,,,,,,,,,,,,,,,,,,,,,,,,,,,,,,,,,,,,,50.02876712899979,59.1656209140001,,,,,091621,0,2,1,3,1,1,2,0,22,2021_Sep_16_1354,listening_fmri,3.2.4,59.91046165828216,
0,parcelated_audio/43/43_7.ogg,,,,,,,,,0,0,0,0,0,0,0,0,0,0,0,0,,,,,,,,,0,0,0,0,0,6,6,6,,,,,,,,,,,,,,,,,,,,,,,,,,,,,,,,,,,,,,,,59.1660862939998,63.928289642999516,,,,,091621,0,2,1,3,1,1,2,0,22,2021_Sep_16_1354,listening_fmri,3.2.4,59.91046165828216,
0,parcelated_audio/43/43_8.ogg,,,,,,,,,0,0,0,0,0,0,0,0,0,0,0,0,,,,,,,,,0,0,0,0,0,7,7,7,,,,,,,,,,,,,,,,,,,,,,,,,,,,,,,,,,,,,,,,63.92862461099958,70.4960861949994,,,,,091621,0,2,1,3,1,1,2,0,22,2021_Sep_16_1354,listening_fmri,3.2.4,59.91046165828216,
0,parcelated_audio/43/43_9.ogg,,,,,,,,,0,0,0,0,0,0,0,0,0,0,0,0,,,,,,,,,0,0,0,0,0,8,8,8,,,,,,,,,,,,,,,,,,,,,,,,,,,,,,,,,,,,,,,,70.496434357,75.01094763199944,,,,,091621,0,2,1,3,1,1,2,0,22,2021_Sep_16_1354,listening_fmri,3.2.4,59.91046165828216,
0,parcelated_audio/43/43_10.ogg,,,,,,,,,0,0,0,0,0,0,0,0,0,0,0,0,,,,,,,,,0,0,0,0,0,9,9,9,,,,,,,,,,,,,,,,,,,,,,,,,,,,,,,,,,,,,,,,75.01129537899942,79.89224299899979,,,,,091621,0,2,1,3,1,1,2,0,22,2021_Sep_16_1354,listening_fmri,3.2.4,59.91046165828216,
0,parcelated_audio/43/43_11.ogg,,,,,,,,,0,0,0,0,0,0,0,0,0,0,0,0,,,,,,,,,0,0,0,0,0,10,10,10,,,,,,,,,,,,,,,,,,,,,,,,,,,,,,,,,,,,,,,,79.89270805500018,90.9228897819994,,,,,091621,0,2,1,3,1,1,2,0,22,2021_Sep_16_1354,listening_fmri,3.2.4,59.91046165828216,
0,parcelated_audio/43/43_12.ogg,,,,,,,,,0,0,0,0,0,0,0,0,0,0,0,0,,,,,,,,,0,0,0,0,0,11,11,11,,,,,,,,,,,,,,,,,,,,,,,,,,,,,,,,,,,,,,,,90.92324263399951,97.0082587629995,,,,,091621,0,2,1,3,1,1,2,0,22,2021_Sep_16_1354,listening_fmri,3.2.4,59.91046165828216,
0,parcelated_audio/43/43_13.ogg,,,,,,,,,0,0,0,0,0,0,0,0,0,0,0,0,,,,,,,,,0,0,0,0,0,12,12,12,,,,,,,,,,,,,,,,,,,,,,,,,,,,,,,,,,,,,,,,97.00860976599961,105.25739169400003,,,,,091621,0,2,1,3,1,1,2,0,22,2021_Sep_16_1354,listening_fmri,3.2.4,59.91046165828216,
0,parcelated_audio/43/43_14.ogg,,,,,,,,,0,0,0,0,0,0,0,0,0,0,0,0,,,,,,,,,0,0,0,0,0,13,13,13,,,,,,,,,,,,,,,,,,,,,,,,,,,,,,,,,,,,,,,,105.25780539199968,113.78894658599984,,,,,091621,0,2,1,3,1,1,2,0,22,2021_Sep_16_1354,listening_fmri,3.2.4,59.91046165828216,
0,parcelated_audio/43/43_15.ogg,,,,,,,,,0,0,0,0,0,0,0,0,0,0,0,0,,,,,,,,,0,0,0,0,0,14,14,14,,,,,,,,,,,,,,,,,,,,,,,,,,,,,,,,,,,,,,,,113.78930299300009,118.13691908199962,,,,,091621,0,2,1,3,1,1,2,0,22,2021_Sep_16_1354,listening_fmri,3.2.4,59.91046165828216,
0,parcelated_audio/43/43_16.ogg,,,,,,,,,0,0,0,0,0,0,0,0,0,0,0,0,,,,,,,,,0,0,0,0,0,15,15,15,,,,,,,,,,,,,,,,,,,,,,,,,,,,,,,,,,,,,,,,118.13719778499944,122.64793415099939,,,,,091621,0,2,1,3,1,1,2,0,22,2021_Sep_16_1354,listening_fmri,3.2.4,59.91046165828216,
0,parcelated_audio/43/43_17.ogg,,,,,,,,,0,0,0,0,0,0,0,0,0,0,0,0,,,,,,,,,0,0,0,0,0,16,16,16,,,,,,,,,,,,,,,,,,,,,,,,,,,,,,,,,,,,,,,,122.648291857,126.40821480799968,,,,,091621,0,2,1,3,1,1,2,0,22,2021_Sep_16_1354,listening_fmri,3.2.4,59.91046165828216,
0,parcelated_audio/43/43_18.ogg,,,,,,,,,0,0,0,0,0,0,0,0,0,0,0,0,,,,,,,,,0,0,0,0,0,17,17,17,,,,,,,,,,,,,,,,,,,,,,,,,,,,,,,,,,,,,,,,126.4085615670001,128.60727480399964,,,,,091621,0,2,1,3,1,1,2,0,22,2021_Sep_16_1354,listening_fmri,3.2.4,59.91046165828216,
0,parcelated_audio/43/43_19.ogg,,,,,,,,,0,0,0,0,0,0,0,0,0,0,0,0,,,,,,,,,0,0,0,0,0,18,18,18,,,,,,,,,,,,,,,,,,,,,,,,,,,,,,,,,,,,,,,,128.60756586299976,132.2557107929997,,,,,091621,0,2,1,3,1,1,2,0,22,2021_Sep_16_1354,listening_fmri,3.2.4,59.91046165828216,
0,parcelated_audio/43/43_20.ogg,,,,,,,,,0,0,0,0,0,0,0,0,0,0,0,0,,,,,,,,,0,0,0,0,0,19,19,19,,,,,,,,,,,,,,,,,,,,,,,,,,,,,,,,,,,,,,,,132.256286928,139.43401576699944,,,,,091621,0,2,1,3,1,1,2,0,22,2021_Sep_16_1354,listening_fmri,3.2.4,59.91046165828216,
0,parcelated_audio/43/43_21.ogg,,,,,,,,,0,0,0,0,0,0,0,0,0,0,0,0,,,,,,,,,0,0,0,0,0,20,20,20,,,,,,,,,,,,,,,,,,,,,,,,,,,,,,,,,,,,,,,,139.43437006299973,141.904022404,,,,,091621,0,2,1,3,1,1,2,0,22,2021_Sep_16_1354,listening_fmri,3.2.4,59.91046165828216,
0,parcelated_audio/43/43_22.ogg,,,,,,,,,0,0,0,0,0,0,0,0,0,0,0,0,,,,,,,,,0,0,0,0,0,21,21,21,,,,,,,,,,,,,,,,,,,,,,,,,,,,,,,,,,,,,,,,141.90437221399952,145.29500216899942,,,,,091621,0,2,1,3,1,1,2,0,22,2021_Sep_16_1354,listening_fmri,3.2.4,59.91046165828216,
0,parcelated_audio/43/43_23.ogg,,,,,,,,,0,0,0,0,0,0,0,0,0,0,0,0,,,,,,,,,0,0,0,0,0,22,22,22,,,,,,,,,,,,,,,,,,,,,,,,,,,,,,,,,,,,,,,,145.29533321799954,151.33105138599967,,,,,091621,0,2,1,3,1,1,2,0,22,2021_Sep_16_1354,listening_fmri,3.2.4,59.91046165828216,
0,parcelated_audio/43/43_24.ogg,,,,,,,,,0,0,0,0,0,0,0,0,0,0,0,0,,,,,,,,,0,0,0,0,0,23,23,23,,,,,,,,,,,,,,,,,,,,,,,,,,,,,,,,,,,,,,,,151.33140775399988,157.67766971399942,,,,,091621,0,2,1,3,1,1,2,0,22,2021_Sep_16_1354,listening_fmri,3.2.4,59.91046165828216,
0,parcelated_audio/43/43_25.ogg,,,,,,,,,0,0,0,0,0,0,0,0,0,0,0,0,,,,,,,,,0,0,0,0,0,24,24,24,,,,,,,,,,,,,,,,,,,,,,,,,,,,,,,,,,,,,,,,157.67804059099944,162.7041857989998,,,,,091621,0,2,1,3,1,1,2,0,22,2021_Sep_16_1354,listening_fmri,3.2.4,59.91046165828216,
0,parcelated_audio/43/43_26.ogg,,,,,,,,,0,0,0,0,0,0,0,0,0,0,0,0,,,,,,,,,0,0,0,0,0,25,25,25,,,,,,,,,,,,,,,,,,,,,,,,,,,,,,,,,,,,,,,,162.7045365469994,171.2718908050001,,,,,091621,0,2,1,3,1,1,2,0,22,2021_Sep_16_1354,listening_fmri,3.2.4,59.91046165828216,
0,parcelated_audio/43/43_27.ogg,,,,,,,,,0,0,0,0,0,0,0,0,0,0,0,0,,,,,,,,,0,0,0,0,0,26,26,26,,,,,,,,,,,,,,,,,,,,,,,,,,,,,,,,,,,,,,,,171.27224226199996,175.66143491099956,,,,,091621,0,2,1,3,1,1,2,0,22,2021_Sep_16_1354,listening_fmri,3.2.4,59.91046165828216,
0,parcelated_audio/43/43_28.ogg,,,,,,,,,0,0,0,0,0,0,0,0,0,0,0,0,,,,,,,,,0,0,0,0,0,27,27,27,,,,,,,,,,,,,,,,,,,,,,,,,,,,,,,,,,,,,,,,175.66190050299974,180.63712828200005,,,,,091621,0,2,1,3,1,1,2,0,22,2021_Sep_16_1354,listening_fmri,3.2.4,59.91046165828216,
0,parcelated_audio/43/43_29.ogg,,,,,,,,,0,0,0,0,0,0,0,0,0,0,0,0,,,,,,,,,0,0,0,0,0,28,28,28,,,,,,,,,,,,,,,,,,,,,,,,,,,,,,,,,,,,,,,,180.63748614899941,186.77751538699977,,,,,091621,0,2,1,3,1,1,2,0,22,2021_Sep_16_1354,listening_fmri,3.2.4,59.91046165828216,
0,,,,,,,,,,0,0,0,0,0,0,0,0,0,0,0,0,,,,,,,,,0,0,0,0,,,,,,,,,,,,,,,,,,,,,,,,,,,,,,,,,,,,,,,,,,,,,,,,,,091621,0,2,1,3,1,1,2,0,22,2021_Sep_16_1354,listening_fmri,3.2.4,59.91046165828216,
0,,,,,,,,,,0,0,0,0,0,0,0,0,0,0,0,0,,,,,,,,,,,,,,,,,,,,,,,,,,,,,,,,,,186.77790731000005,192.77499637300025,275.3100720049997,None,,,,,,,,,,,,,,,,,,,,,281.319662936,None,281.319662936,None,091621,0,2,1,3,1,1,2,0,22,2021_Sep_16_1354,listening_fmri,3.2.4,59.91046165828216,
0,,,,,,,,,,0,0,0,0,0,0,0,0,,,,,,,,,,,,,,,,,,,,,,,,,,,,,,,,,,,,,,,,,,,,,,,,,,,,,,,,,,,,,,,,,,091621,0,2,1,3,1,1,2,0,22,2021_Sep_16_1354,listening_fmri,3.2.4,59.91046165828216,
1,,,,,,,,,,0,0,0,0,0,1,1,1,,,,,,,,,,,,,,,,,,,,,,,,,,,,,,,,,,,,,,,,,,,,,,,,,,,,,,,,,,,,,,,,,,091621,0,2,1,3,1,1,2,0,22,2021_Sep_16_1354,listening_fmri,3.2.4,59.91046165828216,
2,,,,,,,,,,0,0,0,0,0,2,2,2,,,,,,,,,,,,,,,,,,,,,,,,,,,,,,,,,,,,,,,,,,,,,,,,,,,,,,,,,,,,,,,,,,091621,0,2,1,3,1,1,2,0,22,2021_Sep_16_1354,listening_fmri,3.2.4,59.91046165828216,
3,parcelated_audio/21/21_1.ogg,,,,,,,,,0,0,0,0,0,3,3,3,0,0,0,0,,,,,,,,,0,0,0,0,0,0,0,0,,,,,,,,,,,,,,,,,,,,,,282.32809646499936,None,282.32809646499936,None,2,0.9132115780003005,282.32809646499936,None,282.32809646499936,None,283.26135615899966,None,2,2.260890494000705,283.26135615899966,None,197.01565193999977,200.0242482449994,200.0290291929996,214.30957515299997,,,,,091621,0,2,1,3,1,1,2,0,22,2021_Sep_16_1354,listening_fmri,3.2.4,59.91046165828216,
3,parcelated_audio/21/21_2.ogg,,,,,,,,,0,0,0,0,0,3,3,3,0,0,0,0,,,,,,,,,0,0,0,0,0,1,1,1,,,,,,,,,,,,,,,,,,,,,,,,,,,,,,,,,,,,,,,,214.310158925,221.73569693700028,,,,,091621,0,2,1,3,1,1,2,0,22,2021_Sep_16_1354,listening_fmri,3.2.4,59.91046165828216,
3,parcelated_audio/21/21_3.ogg,,,,,,,,,0,0,0,0,0,3,3,3,0,0,0,0,,,,,,,,,0,0,0,0,0,2,2,2,,,,,,,,,,,,,,,,,,,,,,,,,,,,,,,,,,,,,,,,221.7365763150001,229.43288248999943,,,,,091621,0,2,1,3,1,1,2,0,22,2021_Sep_16_1354,listening_fmri,3.2.4,59.91046165828216,
3,parcelated_audio/21/21_4.ogg,,,,,,,,,0,0,0,0,0,3,3,3,0,0,0,0,,,,,,,,,0,0,0,0,0,3,3,3,,,,,,,,,,,,,,,,,,,,,,,,,,,,,,,,,,,,,,,,229.43315927799995,240.48016230899975,,,,,091621,0,2,1,3,1,1,2,0,22,2021_Sep_16_1354,listening_fmri,3.2.4,59.91046165828216,
3,parcelated_audio/21/21_5.ogg,,,,,,,,,0,0,0,0,0,3,3,3,0,0,0,0,,,,,,,,,0,0,0,0,0,4,4,4,,,,,,,,,,,,,,,,,,,,,,,,,,,,,,,,,,,,,,,,240.48048378299973,245.54376310599946,,,,,091621,0,2,1,3,1,1,2,0,22,2021_Sep_16_1354,listening_fmri,3.2.4,59.91046165828216,
3,parcelated_audio/21/21_6.ogg,,,,,,,,,0,0,0,0,0,3,3,3,0,0,0,0,,,,,,,,,0,0,0,0,0,5,5,5,,,,,,,,,,,,,,,,,,,,,,,,,,,,,,,,,,,,,,,,245.54403927899966,253.70450298000014,,,,,091621,0,2,1,3,1,1,2,0,22,2021_Sep_16_1354,listening_fmri,3.2.4,59.91046165828216,
3,parcelated_audio/21/21_7.ogg,,,,,,,,,0,0,0,0,0,3,3,3,0,0,0,0,,,,,,,,,0,0,0,0,0,6,6,6,,,,,,,,,,,,,,,,,,,,,,,,,,,,,,,,,,,,,,,,253.70485902200016,258.22710927200023,,,,,091621,0,2,1,3,1,1,2,0,22,2021_Sep_16_1354,listening_fmri,3.2.4,59.91046165828216,
3,parcelated_audio/21/21_8.ogg,,,,,,,,,0,0,0,0,0,3,3,3,0,0,0,0,,,,,,,,,0,0,0,0,0,7,7,7,,,,,,,,,,,,,,,,,,,,,,,,,,,,,,,,,,,,,,,,258.22766342900013,269.13373162599964,,,,,091621,0,2,1,3,1,1,2,0,22,2021_Sep_16_1354,listening_fmri,3.2.4,59.91046165828216,
3,parcelated_audio/21/21_9.ogg,,,,,,,,,0,0,0,0,0,3,3,3,0,0,0,0,,,,,,,,,0,0,0,0,0,8,8,8,,,,,,,,,,,,,,,,,,,,,,,,,,,,,,,,,,,,,,,,269.1340867990002,276.5219969919999,,,,,091621,0,2,1,3,1,1,2,0,22,2021_Sep_16_1354,listening_fmri,3.2.4,59.91046165828216,
3,parcelated_audio/21/21_10.ogg,,,,,,,,,0,0,0,0,0,3,3,3,0,0,0,0,,,,,,,,,0,0,0,0,0,9,9,9,,,,,,,,,,,,,,,,,,,,,,,,,,,,,,,,,,,,,,,,276.5223726079994,283.37088834099995,,,,,091621,0,2,1,3,1,1,2,0,22,2021_Sep_16_1354,listening_fmri,3.2.4,59.91046165828216,
3,parcelated_audio/21/21_11.ogg,,,,,,,,,0,0,0,0,0,3,3,3,0,0,0,0,,,,,,,,,0,0,0,0,0,10,10,10,,,,,,,,,,,,,,,,,,,,,,,,,,,,,,,,,,,,,,,,283.3713063919995,290.46798912099985,,,,,091621,0,2,1,3,1,1,2,0,22,2021_Sep_16_1354,listening_fmri,3.2.4,59.91046165828216,
3,parcelated_audio/21/21_12.ogg,,,,,,,,,0,0,0,0,0,3,3,3,0,0,0,0,,,,,,,,,0,0,0,0,0,11,11,11,,,,,,,,,,,,,,,,,,,,,,,,,,,,,,,,,,,,,,,,290.4683316800001,298.7779465900003,,,,,091621,0,2,1,3,1,1,2,0,22,2021_Sep_16_1354,listening_fmri,3.2.4,59.91046165828216,
3,parcelated_audio/21/21_13.ogg,,,,,,,,,0,0,0,0,0,3,3,3,0,0,0,0,,,,,,,,,0,0,0,0,0,12,12,12,,,,,,,,,,,,,,,,,,,,,,,,,,,,,,,,,,,,,,,,298.77849768800024,302.11494817399944,,,,,091621,0,2,1,3,1,1,2,0,22,2021_Sep_16_1354,listening_fmri,3.2.4,59.91046165828216,
3,parcelated_audio/21/21_14.ogg,,,,,,,,,0,0,0,0,0,3,3,3,0,0,0,0,,,,,,,,,0,0,0,0,0,13,13,13,,,,,,,,,,,,,,,,,,,,,,,,,,,,,,,,,,,,,,,,302.1152272089994,307.53028536799957,,,,,091621,0,2,1,3,1,1,2,0,22,2021_Sep_16_1354,listening_fmri,3.2.4,59.91046165828216,
3,parcelated_audio/21/21_15.ogg,,,,,,,,,0,0,0,0,0,3,3,3,0,0,0,0,,,,,,,,,0,0,0,0,0,14,14,14,,,,,,,,,,,,,,,,,,,,,,,,,,,,,,,,,,,,,,,,307.5306103470002,314.34926040400023,,,,,091621,0,2,1,3,1,1,2,0,22,2021_Sep_16_1354,listening_fmri,3.2.4,59.91046165828216,
3,parcelated_audio/21/21_16.ogg,,,,,,,,,0,0,0,0,0,3,3,3,0,0,0,0,,,,,,,,,0,0,0,0,0,15,15,15,,,,,,,,,,,,,,,,,,,,,,,,,,,,,,,,,,,,,,,,314.3495451099998,320.42547784899944,,,,,091621,0,2,1,3,1,1,2,0,22,2021_Sep_16_1354,listening_fmri,3.2.4,59.91046165828216,
3,parcelated_audio/21/21_17.ogg,,,,,,,,,0,0,0,0,0,3,3,3,0,0,0,0,,,,,,,,,0,0,0,0,0,16,16,16,,,,,,,,,,,,,,,,,,,,,,,,,,,,,,,,,,,,,,,,320.4257563279998,322.58786543099995,,,,,091621,0,2,1,3,1,1,2,0,22,2021_Sep_16_1354,listening_fmri,3.2.4,59.91046165828216,
3,parcelated_audio/21/21_18.ogg,,,,,,,,,0,0,0,0,0,3,3,3,0,0,0,0,,,,,,,,,0,0,0,0,0,17,17,17,,,,,,,,,,,,,,,,,,,,,,,,,,,,,,,,,,,,,,,,322.5881779709998,335.7425566510001,,,,,091621,0,2,1,3,1,1,2,0,22,2021_Sep_16_1354,listening_fmri,3.2.4,59.91046165828216,
3,parcelated_audio/21/21_19.ogg,,,,,,,,,0,0,0,0,0,3,3,3,0,0,0,0,,,,,,,,,0,0,0,0,0,18,18,18,,,,,,,,,,,,,,,,,,,,,,,,,,,,,,,,,,,,,,,,335.7428360719996,338.62668930200016,,,,,091621,0,2,1,3,1,1,2,0,22,2021_Sep_16_1354,listening_fmri,3.2.4,59.91046165828216,
3,parcelated_audio/21/21_20.ogg,,,,,,,,,0,0,0,0,0,3,3,3,0,0,0,0,,,,,,,,,0,0,0,0,0,19,19,19,,,,,,,,,,,,,,,,,,,,,,,,,,,,,,,,,,,,,,,,338.6270182469998,347.36000549799974,,,,,091621,0,2,1,3,1,1,2,0,22,2021_Sep_16_1354,listening_fmri,3.2.4,59.91046165828216,
3,parcelated_audio/21/21_21.ogg,,,,,,,,,0,0,0,0,0,3,3,3,0,0,0,0,,,,,,,,,0,0,0,0,0,20,20,20,,,,,,,,,,,,,,,,,,,,,,,,,,,,,,,,,,,,,,,,347.3602666179995,358.39943006500016,,,,,091621,0,2,1,3,1,1,2,0,22,2021_Sep_16_1354,listening_fmri,3.2.4,59.91046165828216,
3,parcelated_audio/21/21_22.ogg,,,,,,,,,0,0,0,0,0,3,3,3,0,0,0,0,,,,,,,,,0,0,0,0,0,21,21,21,,,,,,,,,,,,,,,,,,,,,,,,,,,,,,,,,,,,,,,,358.39968376700017,369.2989137839995,,,,,091621,0,2,1,3,1,1,2,0,22,2021_Sep_16_1354,listening_fmri,3.2.4,59.91046165828216,
3,parcelated_audio/21/21_23.ogg,,,,,,,,,0,0,0,0,0,3,3,3,0,0,0,0,,,,,,,,,0,0,0,0,0,22,22,22,,,,,,,,,,,,,,,,,,,,,,,,,,,,,,,,,,,,,,,,369.29924840199965,374.2848531109994,,,,,091621,0,2,1,3,1,1,2,0,22,2021_Sep_16_1354,listening_fmri,3.2.4,59.91046165828216,
3,parcelated_audio/21/21_24.ogg,,,,,,,,,0,0,0,0,0,3,3,3,0,0,0,0,,,,,,,,,0,0,0,0,0,23,23,23,,,,,,,,,,,,,,,,,,,,,,,,,,,,,,,,,,,,,,,,374.2852027459994,378.8612638959994,,,,,091621,0,2,1,3,1,1,2,0,22,2021_Sep_16_1354,listening_fmri,3.2.4,59.91046165828216,
3,parcelated_audio/21/21_25.ogg,,,,,,,,,0,0,0,0,0,3,3,3,0,0,0,0,,,,,,,,,0,0,0,0,0,24,24,24,,,,,,,,,,,,,,,,,,,,,,,,,,,,,,,,,,,,,,,,378.8616070649996,388.30252939599995,,,,,091621,0,2,1,3,1,1,2,0,22,2021_Sep_16_1354,listening_fmri,3.2.4,59.91046165828216,
3,parcelated_audio/21/21_26.ogg,,,,,,,,,0,0,0,0,0,3,3,3,0,0,0,0,,,,,,,,,0,0,0,0,0,25,25,25,,,,,,,,,,,,,,,,,,,,,,,,,,,,,,,,,,,,,,,,388.3030871049996,392.3026049979999,,,,,091621,0,2,1,3,1,1,2,0,22,2021_Sep_16_1354,listening_fmri,3.2.4,59.91046165828216,
3,parcelated_audio/21/21_27.ogg,,,,,,,,,0,0,0,0,0,3,3,3,0,0,0,0,,,,,,,,,0,0,0,0,0,26,26,26,,,,,,,,,,,,,,,,,,,,,,,,,,,,,,,,,,,,,,,,392.30319911599963,399.4935323949994,,,,,091621,0,2,1,3,1,1,2,0,22,2021_Sep_16_1354,listening_fmri,3.2.4,59.91046165828216,
3,parcelated_audio/21/21_28.ogg,,,,,,,,,0,0,0,0,0,3,3,3,0,0,0,0,,,,,,,,,0,0,0,0,0,27,27,27,,,,,,,,,,,,,,,,,,,,,,,,,,,,,,,,,,,,,,,,399.49380791600015,405.60553954700026,,,,,091621,0,2,1,3,1,1,2,0,22,2021_Sep_16_1354,listening_fmri,3.2.4,59.91046165828216,
3,parcelated_audio/21/21_29.ogg,,,,,,,,,0,0,0,0,0,3,3,3,0,0,0,0,,,,,,,,,0,0,0,0,0,28,28,28,,,,,,,,,,,,,,,,,,,,,,,,,,,,,,,,,,,,,,,,405.60598337899955,409.87220346899994,,,,,091621,0,2,1,3,1,1,2,0,22,2021_Sep_16_1354,listening_fmri,3.2.4,59.91046165828216,
3,parcelated_audio/21/21_30.ogg,,,,,,,,,0,0,0,0,0,3,3,3,0,0,0,0,,,,,,,,,0,0,0,0,0,29,29,29,,,,,,,,,,,,,,,,,,,,,,,,,,,,,,,,,,,,,,,,409.87251825600015,415.13628130100005,,,,,091621,0,2,1,3,1,1,2,0,22,2021_Sep_16_1354,listening_fmri,3.2.4,59.91046165828216,
3,,,,,,,,,,0,0,0,0,0,3,3,3,0,0,0,0,,,,,,,,,0,0,0,0,,,,,,,,,,,,,,,,,,,,,,,,,,,,,,,,,,,,,,,,,,,,,,,,,,091621,0,2,1,3,1,1,2,0,22,2021_Sep_16_1354,listening_fmri,3.2.4,59.91046165828216,
3,,,,,,,,,,0,0,0,0,0,3,3,3,0,0,0,0,,,,,,,,,,,,,,,,,,,,,,,,,,,,,,,,,,415.1367312169996,421.13339958399956,503.6777454739995,None,,,,,,,,,,,,,,,,,,,,,509.677977026,None,509.677977026,None,091621,0,2,1,3,1,1,2,0,22,2021_Sep_16_1354,listening_fmri,3.2.4,59.91046165828216,
3,,,,,,,,,,0,0,0,0,0,3,3,3,,,,,,,,,,,,,,,,,,,,,,,,,,,,,,,,,,,,,,,,,,,,,,,,,,,,,,,,,,,,,,,,,,091621,0,2,1,3,1,1,2,0,22,2021_Sep_16_1354,listening_fmri,3.2.4,59.91046165828216,
4,,,,,,,,,,0,0,0,0,0,4,4,4,,,,,,,,,,,,,,,,,,,,,,,,,,,,,,,,,,,,,,,,,,,,,,,,,,,,,,,,,,,,,,,,,,091621,0,2,1,3,1,1,2,0,22,2021_Sep_16_1354,listening_fmri,3.2.4,59.91046165828216,
5,,,,,,,,,,0,0,0,0,0,5,5,5,,,,,,,,,,,,,,,,,,,,,,,,,,,,,,,,,,,,,,,,,,,,,,,,,,,,,,,,,,,,,,,,,,091621,0,2,1,3,1,1,2,0,22,2021_Sep_16_1354,listening_fmri,3.2.4,59.91046165828216,
6,parcelated_audio/41/41_1.ogg,,,,,,,,,0,0,0,0,0,6,6,6,0,0,0,0,,,,,,,,,0,0,0,0,0,0,0,0,,,,,,,,,,,,,,,,,,,,,,510.68353392799963,None,510.68353392799963,None,2,0.9016198769995754,510.68353392799963,None,510.68353392799963,None,511.61165390099995,None,2,1.9015259489997334,511.61165390099995,None,425.0070349759999,428.016518939,428.0222783680001,437.1279811590002,,,,,091621,0,2,1,3,1,1,2,0,22,2021_Sep_16_1354,listening_fmri,3.2.4,59.91046165828216,
6,parcelated_audio/41/41_2.ogg,,,,,,,,,0,0,0,0,0,6,6,6,0,0,0,0,,,,,,,,,0,0,0,0,0,1,1,1,,,,,,,,,,,,,,,,,,,,,,,,,,,,,,,,,,,,,,,,437.12833753299947,444.37260382600016,,,,,091621,0,2,1,3,1,1,2,0,22,2021_Sep_16_1354,listening_fmri,3.2.4,59.91046165828216,
6,parcelated_audio/41/41_3.ogg,,,,,,,,,0,0,0,0,0,6,6,6,0,0,0,0,,,,,,,,,0,0,0,0,0,2,2,2,,,,,,,,,,,,,,,,,,,,,,,,,,,,,,,,,,,,,,,,444.3729685070002,448.66665335499965,,,,,091621,0,2,1,3,1,1,2,0,22,2021_Sep_16_1354,listening_fmri,3.2.4,59.91046165828216,
6,parcelated_audio/41/41_4.ogg,,,,,,,,,0,0,0,0,0,6,6,6,0,0,0,0,,,,,,,,,0,0,0,0,0,3,3,3,,,,,,,,,,,,,,,,,,,,,,,,,,,,,,,,,,,,,,,,448.6670123240001,452.6279072420002,,,,,091621,0,2,1,3,1,1,2,0,22,2021_Sep_16_1354,listening_fmri,3.2.4,59.91046165828216,
6,parcelated_audio/41/41_5.ogg,,,,,,,,,0,0,0,0,0,6,6,6,0,0,0,0,,,,,,,,,0,0,0,0,0,4,4,4,,,,,,,,,,,,,,,,,,,,,,,,,,,,,,,,,,,,,,,,452.62825466399954,458.76642823400016,,,,,091621,0,2,1,3,1,1,2,0,22,2021_Sep_16_1354,listening_fmri,3.2.4,59.91046165828216,
6,parcelated_audio/41/41_6.ogg,,,,,,,,,0,0,0,0,0,6,6,6,0,0,0,0,,,,,,,,,0,0,0,0,0,5,5,5,,,,,,,,,,,,,,,,,,,,,,,,,,,,,,,,,,,,,,,,458.7667036060002,468.6899718220002,,,,,091621,0,2,1,3,1,1,2,0,22,2021_Sep_16_1354,listening_fmri,3.2.4,59.91046165828216,
6,parcelated_audio/41/41_7.ogg,,,,,,,,,0,0,0,0,0,6,6,6,0,0,0,0,,,,,,,,,0,0,0,0,0,6,6,6,,,,,,,,,,,,,,,,,,,,,,,,,,,,,,,,,,,,,,,,468.69032999199953,476.40728780300014,,,,,091621,0,2,1,3,1,1,2,0,22,2021_Sep_16_1354,listening_fmri,3.2.4,59.91046165828216,
6,parcelated_audio/41/41_8.ogg,,,,,,,,,0,0,0,0,0,6,6,6,0,0,0,0,,,,,,,,,0,0,0,0,0,7,7,7,,,,,,,,,,,,,,,,,,,,,,,,,,,,,,,,,,,,,,,,476.4075805020002,480.65163589199983,,,,,091621,0,2,1,3,1,1,2,0,22,2021_Sep_16_1354,listening_fmri,3.2.4,59.91046165828216,
6,parcelated_audio/41/41_9.ogg,,,,,,,,,0,0,0,0,0,6,6,6,0,0,0,0,,,,,,,,,0,0,0,0,0,8,8,8,,,,,,,,,,,,,,,,,,,,,,,,,,,,,,,,,,,,,,,,480.6520885330001,490.30473754600007,,,,,091621,0,2,1,3,1,1,2,0,22,2021_Sep_16_1354,listening_fmri,3.2.4,59.91046165828216,
6,parcelated_audio/41/41_10.ogg,,,,,,,,,0,0,0,0,0,6,6,6,0,0,0,0,,,,,,,,,0,0,0,0,0,9,9,9,,,,,,,,,,,,,,,,,,,,,,,,,,,,,,,,,,,,,,,,490.30501520799953,496.8162445099997,,,,,091621,0,2,1,3,1,1,2,0,22,2021_Sep_16_1354,listening_fmri,3.2.4,59.91046165828216,
6,parcelated_audio/41/41_11.ogg,,,,,,,,,0,0,0,0,0,6,6,6,0,0,0,0,,,,,,,,,0,0,0,0,0,10,10,10,,,,,,,,,,,,,,,,,,,,,,,,,,,,,,,,,,,,,,,,496.81652401500014,500.5864760120003,,,,,091621,0,2,1,3,1,1,2,0,22,2021_Sep_16_1354,listening_fmri,3.2.4,59.91046165828216,
6,parcelated_audio/41/41_12.ogg,,,,,,,,,0,0,0,0,0,6,6,6,0,0,0,0,,,,,,,,,0,0,0,0,0,11,11,11,,,,,,,,,,,,,,,,,,,,,,,,,,,,,,,,,,,,,,,,500.5869329729994,510.3366539279996,,,,,091621,0,2,1,3,1,1,2,0,22,2021_Sep_16_1354,listening_fmri,3.2.4,59.91046165828216,
6,parcelated_audio/41/41_13.ogg,,,,,,,,,0,0,0,0,0,6,6,6,0,0,0,0,,,,,,,,,0,0,0,0,0,12,12,12,,,,,,,,,,,,,,,,,,,,,,,,,,,,,,,,,,,,,,,,510.336952056,516.1526608059994,,,,,091621,0,2,1,3,1,1,2,0,22,2021_Sep_16_1354,listening_fmri,3.2.4,59.91046165828216,
6,parcelated_audio/41/41_14.ogg,,,,,,,,,0,0,0,0,0,6,6,6,0,0,0,0,,,,,,,,,0,0,0,0,0,13,13,13,,,,,,,,,,,,,,,,,,,,,,,,,,,,,,,,,,,,,,,,516.1529453829999,523.3948238840003,,,,,091621,0,2,1,3,1,1,2,0,22,2021_Sep_16_1354,listening_fmri,3.2.4,59.91046165828216,
6,parcelated_audio/41/41_15.ogg,,,,,,,,,0,0,0,0,0,6,6,6,0,0,0,0,,,,,,,,,0,0,0,0,0,14,14,14,,,,,,,,,,,,,,,,,,,,,,,,,,,,,,,,,,,,,,,,523.3952285019996,526.8189536499995,,,,,091621,0,2,1,3,1,1,2,0,22,2021_Sep_16_1354,listening_fmri,3.2.4,59.91046165828216,
6,parcelated_audio/41/41_16.ogg,,,,,,,,,0,0,0,0,0,6,6,6,0,0,0,0,,,,,,,,,0,0,0,0,0,15,15,15,,,,,,,,,,,,,,,,,,,,,,,,,,,,,,,,,,,,,,,,526.8192212029999,531.6875863389996,,,,,091621,0,2,1,3,1,1,2,0,22,2021_Sep_16_1354,listening_fmri,3.2.4,59.91046165828216,
6,parcelated_audio/41/41_17.ogg,,,,,,,,,0,0,0,0,0,6,6,6,0,0,0,0,,,,,,,,,0,0,0,0,0,16,16,16,,,,,,,,,,,,,,,,,,,,,,,,,,,,,,,,,,,,,,,,531.6878753999999,535.8986819649999,,,,,091621,0,2,1,3,1,1,2,0,22,2021_Sep_16_1354,listening_fmri,3.2.4,59.91046165828216,
6,parcelated_audio/41/41_18.ogg,,,,,,,,,0,0,0,0,0,6,6,6,0,0,0,0,,,,,,,,,0,0,0,0,0,17,17,17,,,,,,,,,,,,,,,,,,,,,,,,,,,,,,,,,,,,,,,,535.8991203229998,538.4292535639997,,,,,091621,0,2,1,3,1,1,2,0,22,2021_Sep_16_1354,listening_fmri,3.2.4,59.91046165828216,
6,parcelated_audio/41/41_19.ogg,,,,,,,,,0,0,0,0,0,6,6,6,0,0,0,0,,,,,,,,,0,0,0,0,0,18,18,18,,,,,,,,,,,,,,,,,,,,,,,,,,,,,,,,,,,,,,,,538.429624165,545.315100846,,,,,091621,0,2,1,3,1,1,2,0,22,2021_Sep_16_1354,listening_fmri,3.2.4,59.91046165828216,
6,parcelated_audio/41/41_20.ogg,,,,,,,,,0,0,0,0,0,6,6,6,0,0,0,0,,,,,,,,,0,0,0,0,0,19,19,19,,,,,,,,,,,,,,,,,,,,,,,,,,,,,,,,,,,,,,,,545.3154563759999,550.2372992129995,,,,,091621,0,2,1,3,1,1,2,0,22,2021_Sep_16_1354,listening_fmri,3.2.4,59.91046165828216,
6,parcelated_audio/41/41_21.ogg,,,,,,,,,0,0,0,0,0,6,6,6,0,0,0,0,,,,,,,,,0,0,0,0,0,20,20,20,,,,,,,,,,,,,,,,,,,,,,,,,,,,,,,,,,,,,,,,550.237598441,558.0366166559998,,,,,091621,0,2,1,3,1,1,2,0,22,2021_Sep_16_1354,listening_fmri,3.2.4,59.91046165828216,
6,parcelated_audio/41/41_22.ogg,,,,,,,,,0,0,0,0,0,6,6,6,0,0,0,0,,,,,,,,,0,0,0,0,0,21,21,21,,,,,,,,,,,,,,,,,,,,,,,,,,,,,,,,,,,,,,,,558.0370217139998,573.8335474400001,,,,,091621,0,2,1,3,1,1,2,0,22,2021_Sep_16_1354,listening_fmri,3.2.4,59.91046165828216,
6,parcelated_audio/41/41_23.ogg,,,,,,,,,0,0,0,0,0,6,6,6,0,0,0,0,,,,,,,,,0,0,0,0,0,22,22,22,,,,,,,,,,,,,,,,,,,,,,,,,,,,,,,,,,,,,,,,573.8339772019999,579.8286540600002,,,,,091621,0,2,1,3,1,1,2,0,22,2021_Sep_16_1354,listening_fmri,3.2.4,59.91046165828216,
6,parcelated_audio/41/41_24.ogg,,,,,,,,,0,0,0,0,0,6,6,6,0,0,0,0,,,,,,,,,0,0,0,0,0,23,23,23,,,,,,,,,,,,,,,,,,,,,,,,,,,,,,,,,,,,,,,,579.8290287829996,586.4800015459996,,,,,091621,0,2,1,3,1,1,2,0,22,2021_Sep_16_1354,listening_fmri,3.2.4,59.91046165828216,
6,parcelated_audio/41/41_25.ogg,,,,,,,,,0,0,0,0,0,6,6,6,0,0,0,0,,,,,,,,,0,0,0,0,0,24,24,24,,,,,,,,,,,,,,,,,,,,,,,,,,,,,,,,,,,,,,,,586.4805658839996,589.8425183720001,,,,,091621,0,2,1,3,1,1,2,0,22,2021_Sep_16_1354,listening_fmri,3.2.4,59.91046165828216,
6,parcelated_audio/41/41_26.ogg,,,,,,,,,0,0,0,0,0,6,6,6,0,0,0,0,,,,,,,,,0,0,0,0,0,25,25,25,,,,,,,,,,,,,,,,,,,,,,,,,,,,,,,,,,,,,,,,589.8427946149995,595.3574629650002,,,,,091621,0,2,1,3,1,1,2,0,22,2021_Sep_16_1354,listening_fmri,3.2.4,59.91046165828216,
6,parcelated_audio/41/41_27.ogg,,,,,,,,,0,0,0,0,0,6,6,6,0,0,0,0,,,,,,,,,0,0,0,0,0,26,26,26,,,,,,,,,,,,,,,,,,,,,,,,,,,,,,,,,,,,,,,,595.3577686789995,599.2187055690001,,,,,091621,0,2,1,3,1,1,2,0,22,2021_Sep_16_1354,listening_fmri,3.2.4,59.91046165828216,
6,parcelated_audio/41/41_28.ogg,,,,,,,,,0,0,0,0,0,6,6,6,0,0,0,0,,,,,,,,,0,0,0,0,0,27,27,27,,,,,,,,,,,,,,,,,,,,,,,,,,,,,,,,,,,,,,,,599.2197784139998,607.5698408799999,,,,,091621,0,2,1,3,1,1,2,0,22,2021_Sep_16_1354,listening_fmri,3.2.4,59.91046165828216,
6,parcelated_audio/41/41_29.ogg,,,,,,,,,0,0,0,0,0,6,6,6,0,0,0,0,,,,,,,,,0,0,0,0,0,28,28,28,,,,,,,,,,,,,,,,,,,,,,,,,,,,,,,,,,,,,,,,607.5701561119995,614.1817096349996,,,,,091621,0,2,1,3,1,1,2,0,22,2021_Sep_16_1354,listening_fmri,3.2.4,59.91046165828216,
6,parcelated_audio/41/41_30.ogg,,,,,,,,,0,0,0,0,0,6,6,6,0,0,0,0,,,,,,,,,0,0,0,0,0,29,29,29,,,,,,,,,,,,,,,,,,,,,,,,,,,,,,,,,,,,,,,,614.1820672029999,622.8857363010002,,,,,091621,0,2,1,3,1,1,2,0,22,2021_Sep_16_1354,listening_fmri,3.2.4,59.91046165828216,
6,parcelated_audio/41/41_31.ogg,,,,,,,,,0,0,0,0,0,6,6,6,0,0,0,0,,,,,,,,,0,0,0,0,0,30,30,30,,,,,,,,,,,,,,,,,,,,,,,,,,,,,,,,,,,,,,,,622.8860950789995,633.6289947739997,,,,,091621,0,2,1,3,1,1,2,0,22,2021_Sep_16_1354,listening_fmri,3.2.4,59.91046165828216,
6,parcelated_audio/41/41_32.ogg,,,,,,,,,0,0,0,0,0,6,6,6,0,0,0,0,,,,,,,,,0,0,0,0,0,31,31,31,,,,,,,,,,,,,,,,,,,,,,,,,,,,,,,,,,,,,,,,633.6293465669996,641.9680563259999,,,,,091621,0,2,1,3,1,1,2,0,22,2021_Sep_16_1354,listening_fmri,3.2.4,59.91046165828216,
6,parcelated_audio/41/41_33.ogg,,,,,,,,,0,0,0,0,0,6,6,6,0,0,0,0,,,,,,,,,0,0,0,0,0,32,32,32,,,,,,,,,,,,,,,,,,,,,,,,,,,,,,,,,,,,,,,,641.9686787740002,646.0402903229997,,,,,091621,0,2,1,3,1,1,2,0,22,2021_Sep_16_1354,listening_fmri,3.2.4,59.91046165828216,
6,parcelated_audio/41/41_34.ogg,,,,,,,,,0,0,0,0,0,6,6,6,0,0,0,0,,,,,,,,,0,0,0,0,0,33,33,33,,,,,,,,,,,,,,,,,,,,,,,,,,,,,,,,,,,,,,,,646.0406147100002,651.5570141099997,,,,,091621,0,2,1,3,1,1,2,0,22,2021_Sep_16_1354,listening_fmri,3.2.4,59.91046165828216,
6,parcelated_audio/41/41_35.ogg,,,,,,,,,0,0,0,0,0,6,6,6,0,0,0,0,,,,,,,,,0,0,0,0,0,34,34,34,,,,,,,,,,,,,,,,,,,,,,,,,,,,,,,,,,,,,,,,651.5573514359994,657.135061731,,,,,091621,0,2,1,3,1,1,2,0,22,2021_Sep_16_1354,listening_fmri,3.2.4,59.91046165828216,
6,parcelated_audio/41/41_36.ogg,,,,,,,,,0,0,0,0,0,6,6,6,0,0,0,0,,,,,,,,,0,0,0,0,0,35,35,35,,,,,,,,,,,,,,,,,,,,,,,,,,,,,,,,,,,,,,,,657.1354067379998,664.1523039630001,,,,,091621,0,2,1,3,1,1,2,0,22,2021_Sep_16_1354,listening_fmri,3.2.4,59.91046165828216,
6,parcelated_audio/41/41_37.ogg,,,,,,,,,0,0,0,0,0,6,6,6,0,0,0,0,,,,,,,,,0,0,0,0,0,36,36,36,,,,,,,,,,,,,,,,,,,,,,,,,,,,,,,,,,,,,,,,664.1526954209994,669.6386885749998,,,,,091621,0,2,1,3,1,1,2,0,22,2021_Sep_16_1354,listening_fmri,3.2.4,59.91046165828216,
6,,,,,,,,,,0,0,0,0,0,6,6,6,0,0,0,0,,,,,,,,,0,0,0,0,,,,,,,,,,,,,,,,,,,,,,,,,,,,,,,,,,,,,,,,,,,,,,,,,,091621,0,2,1,3,1,1,2,0,22,2021_Sep_16_1354,listening_fmri,3.2.4,59.91046165828216,
6,,,,,,,,,,0,0,0,0,0,6,6,6,0,0,0,0,,,,,,,,,,,,,,,,,,,,,,,,,,,,,,,,,,669.639072471,675.633435707,758.1778687799997,None,,,,,,,,,,,,,,,,,,,,,764.1787365109994,None,764.1787365109994,None,091621,0,2,1,3,1,1,2,0,22,2021_Sep_16_1354,listening_fmri,3.2.4,59.91046165828216,
6,,,,,,,,,,0,0,0,0,0,6,6,6,,,,,,,,,,,,,,,,,,,,,,,,,,,,,,,,,,,,,,,,,,,,,,,,,,,,,,,,,,,,,,,,,,091621,0,2,1,3,1,1,2,0,22,2021_Sep_16_1354,listening_fmri,3.2.4,59.91046165828216,
7,parcelated_audio/23/23_1.ogg,,,,,,,,,0,0,0,0,0,7,7,7,0,0,0,0,,,,,,,,,0,0,0,0,0,0,0,0,,,,,,,,,,,,,,,,,,,,,,765.1953452259995,None,765.1953452259995,None,2,1.3949117539996223,765.1953452259995,None,765.1953452259995,None,766.6125619539998,None,2,2.7336183879997407,766.6125619539998,None,680.8411749959996,683.8495952960002,683.8549260959999,694.2455282270002,,,,,091621,0,2,1,3,1,1,2,0,22,2021_Sep_16_1354,listening_fmri,3.2.4,59.91046165828216,
7,parcelated_audio/23/23_2.ogg,,,,,,,,,0,0,0,0,0,7,7,7,0,0,0,0,,,,,,,,,0,0,0,0,0,1,1,1,,,,,,,,,,,,,,,,,,,,,,,,,,,,,,,,,,,,,,,,694.2458865250001,701.1205774230002,,,,,091621,0,2,1,3,1,1,2,0,22,2021_Sep_16_1354,listening_fmri,3.2.4,59.91046165828216,
7,parcelated_audio/23/23_3.ogg,,,,,,,,,0,0,0,0,0,7,7,7,0,0,0,0,,,,,,,,,0,0,0,0,0,2,2,2,,,,,,,,,,,,,,,,,,,,,,,,,,,,,,,,,,,,,,,,701.1211687099994,706.8910654559995,,,,,091621,0,2,1,3,1,1,2,0,22,2021_Sep_16_1354,listening_fmri,3.2.4,59.91046165828216,
7,parcelated_audio/23/23_4.ogg,,,,,,,,,0,0,0,0,0,7,7,7,0,0,0,0,,,,,,,,,0,0,0,0,0,3,3,3,,,,,,,,,,,,,,,,,,,,,,,,,,,,,,,,,,,,,,,,706.8914182919998,718.1496794710001,,,,,091621,0,2,1,3,1,1,2,0,22,2021_Sep_16_1354,listening_fmri,3.2.4,59.91046165828216,
7,parcelated_audio/23/23_5.ogg,,,,,,,,,0,0,0,0,0,7,7,7,0,0,0,0,,,,,,,,,0,0,0,0,0,4,4,4,,,,,,,,,,,,,,,,,,,,,,,,,,,,,,,,,,,,,,,,718.15025384,724.3625739359995,,,,,091621,0,2,1,3,1,1,2,0,22,2021_Sep_16_1354,listening_fmri,3.2.4,59.91046165828216,
7,parcelated_audio/23/23_6.ogg,,,,,,,,,0,0,0,0,0,7,7,7,0,0,0,0,,,,,,,,,0,0,0,0,0,5,5,5,,,,,,,,,,,,,,,,,,,,,,,,,,,,,,,,,,,,,,,,724.3629455769997,731.778351979,,,,,091621,0,2,1,3,1,1,2,0,22,2021_Sep_16_1354,listening_fmri,3.2.4,59.91046165828216,
7,parcelated_audio/23/23_7.ogg,,,,,,,,,0,0,0,0,0,7,7,7,0,0,0,0,,,,,,,,,0,0,0,0,0,6,6,6,,,,,,,,,,,,,,,,,,,,,,,,,,,,,,,,,,,,,,,,731.7787106269998,738.5289076179997,,,,,091621,0,2,1,3,1,1,2,0,22,2021_Sep_16_1354,listening_fmri,3.2.4,59.91046165828216,
7,parcelated_audio/23/23_8.ogg,,,,,,,,,0,0,0,0,0,7,7,7,0,0,0,0,,,,,,,,,0,0,0,0,0,7,7,7,,,,,,,,,,,,,,,,,,,,,,,,,,,,,,,,,,,,,,,,738.5293004929999,743.9359903889999,,,,,091621,0,2,1,3,1,1,2,0,22,2021_Sep_16_1354,listening_fmri,3.2.4,59.91046165828216,
7,parcelated_audio/23/23_9.ogg,,,,,,,,,0,0,0,0,0,7,7,7,0,0,0,0,,,,,,,,,0,0,0,0,0,8,8,8,,,,,,,,,,,,,,,,,,,,,,,,,,,,,,,,,,,,,,,,743.9362742009998,748.3179469589995,,,,,091621,0,2,1,3,1,1,2,0,22,2021_Sep_16_1354,listening_fmri,3.2.4,59.91046165828216,
7,parcelated_audio/23/23_10.ogg,,,,,,,,,0,0,0,0,0,7,7,7,0,0,0,0,,,,,,,,,0,0,0,0,0,9,9,9,,,,,,,,,,,,,,,,,,,,,,,,,,,,,,,,,,,,,,,,748.3182224759994,752.266609538,,,,,091621,0,2,1,3,1,1,2,0,22,2021_Sep_16_1354,listening_fmri,3.2.4,59.91046165828216,
7,parcelated_audio/23/23_11.ogg,,,,,,,,,0,0,0,0,0,7,7,7,0,0,0,0,,,,,,,,,0,0,0,0,0,10,10,10,,,,,,,,,,,,,,,,,,,,,,,,,,,,,,,,,,,,,,,,752.2669172329997,760.3895953470001,,,,,091621,0,2,1,3,1,1,2,0,22,2021_Sep_16_1354,listening_fmri,3.2.4,59.91046165828216,
7,parcelated_audio/23/23_12.ogg,,,,,,,,,0,0,0,0,0,7,7,7,0,0,0,0,,,,,,,,,0,0,0,0,0,11,11,11,,,,,,,,,,,,,,,,,,,,,,,,,,,,,,,,,,,,,,,,760.3898857599997,767.5335226560001,,,,,091621,0,2,1,3,1,1,2,0,22,2021_Sep_16_1354,listening_fmri,3.2.4,59.91046165828216,
7,parcelated_audio/23/23_13.ogg,,,,,,,,,0,0,0,0,0,7,7,7,0,0,0,0,,,,,,,,,0,0,0,0,0,12,12,12,,,,,,,,,,,,,,,,,,,,,,,,,,,,,,,,,,,,,,,,767.5338176059995,774.3206620680003,,,,,091621,0,2,1,3,1,1,2,0,22,2021_Sep_16_1354,listening_fmri,3.2.4,59.91046165828216,
7,parcelated_audio/23/23_14.ogg,,,,,,,,,0,0,0,0,0,7,7,7,0,0,0,0,,,,,,,,,0,0,0,0,0,13,13,13,,,,,,,,,,,,,,,,,,,,,,,,,,,,,,,,,,,,,,,,774.3209516229999,778.6905849320001,,,,,091621,0,2,1,3,1,1,2,0,22,2021_Sep_16_1354,listening_fmri,3.2.4,59.91046165828216,
7,parcelated_audio/23/23_15.ogg,,,,,,,,,0,0,0,0,0,7,7,7,0,0,0,0,,,,,,,,,0,0,0,0,0,14,14,14,,,,,,,,,,,,,,,,,,,,,,,,,,,,,,,,,,,,,,,,778.6908636019998,783.1065629929999,,,,,091621,0,2,1,3,1,1,2,0,22,2021_Sep_16_1354,listening_fmri,3.2.4,59.91046165828216,
7,parcelated_audio/23/23_16.ogg,,,,,,,,,0,0,0,0,0,7,7,7,0,0,0,0,,,,,,,,,0,0,0,0,0,15,15,15,,,,,,,,,,,,,,,,,,,,,,,,,,,,,,,,,,,,,,,,783.1068542590001,789.6796480009998,,,,,091621,0,2,1,3,1,1,2,0,22,2021_Sep_16_1354,listening_fmri,3.2.4,59.91046165828216,
7,parcelated_audio/23/23_17.ogg,,,,,,,,,0,0,0,0,0,7,7,7,0,0,0,0,,,,,,,,,0,0,0,0,0,16,16,16,,,,,,,,,,,,,,,,,,,,,,,,,,,,,,,,,,,,,,,,789.6799373579997,796.431739996,,,,,091621,0,2,1,3,1,1,2,0,22,2021_Sep_16_1354,listening_fmri,3.2.4,59.91046165828216,
7,parcelated_audio/23/23_18.ogg,,,,,,,,,0,0,0,0,0,7,7,7,0,0,0,0,,,,,,,,,0,0,0,0,0,17,17,17,,,,,,,,,,,,,,,,,,,,,,,,,,,,,,,,,,,,,,,,796.4319960929997,808.4109398609999,,,,,091621,0,2,1,3,1,1,2,0,22,2021_Sep_16_1354,listening_fmri,3.2.4,59.91046165828216,
7,parcelated_audio/23/23_19.ogg,,,,,,,,,0,0,0,0,0,7,7,7,0,0,0,0,,,,,,,,,0,0,0,0,0,18,18,18,,,,,,,,,,,,,,,,,,,,,,,,,,,,,,,,,,,,,,,,808.4113957869995,814.1649753439997,,,,,091621,0,2,1,3,1,1,2,0,22,2021_Sep_16_1354,listening_fmri,3.2.4,59.91046165828216,
7,parcelated_audio/23/23_20.ogg,,,,,,,,,0,0,0,0,0,7,7,7,0,0,0,0,,,,,,,,,0,0,0,0,0,19,19,19,,,,,,,,,,,,,,,,,,,,,,,,,,,,,,,,,,,,,,,,814.1653490009994,817.0322922429996,,,,,091621,0,2,1,3,1,1,2,0,22,2021_Sep_16_1354,listening_fmri,3.2.4,59.91046165828216,
7,parcelated_audio/23/23_21.ogg,,,,,,,,,0,0,0,0,0,7,7,7,0,0,0,0,,,,,,,,,0,0,0,0,0,20,20,20,,,,,,,,,,,,,,,,,,,,,,,,,,,,,,,,,,,,,,,,817.0326494680003,824.6994640289995,,,,,091621,0,2,1,3,1,1,2,0,22,2021_Sep_16_1354,listening_fmri,3.2.4,59.91046165828216,
7,parcelated_audio/23/23_22.ogg,,,,,,,,,0,0,0,0,0,7,7,7,0,0,0,0,,,,,,,,,0,0,0,0,0,21,21,21,,,,,,,,,,,,,,,,,,,,,,,,,,,,,,,,,,,,,,,,824.6998491109998,827.3549369510001,,,,,091621,0,2,1,3,1,1,2,0,22,2021_Sep_16_1354,listening_fmri,3.2.4,59.91046165828216,
7,parcelated_audio/23/23_23.ogg,,,,,,,,,0,0,0,0,0,7,7,7,0,0,0,0,,,,,,,,,0,0,0,0,0,22,22,22,,,,,,,,,,,,,,,,,,,,,,,,,,,,,,,,,,,,,,,,827.3552931079994,831.506244571,,,,,091621,0,2,1,3,1,1,2,0,22,2021_Sep_16_1354,listening_fmri,3.2.4,59.91046165828216,
7,parcelated_audio/23/23_24.ogg,,,,,,,,,0,0,0,0,0,7,7,7,0,0,0,0,,,,,,,,,0,0,0,0,0,23,23,23,,,,,,,,,,,,,,,,,,,,,,,,,,,,,,,,,,,,,,,,831.5065761549995,834.9464060599994,,,,,091621,0,2,1,3,1,1,2,0,22,2021_Sep_16_1354,listening_fmri,3.2.4,59.91046165828216,
7,parcelated_audio/23/23_25.ogg,,,,,,,,,0,0,0,0,0,7,7,7,0,0,0,0,,,,,,,,,0,0,0,0,0,24,24,24,,,,,,,,,,,,,,,,,,,,,,,,,,,,,,,,,,,,,,,,834.9467604239999,839.1047751619999,,,,,091621,0,2,1,3,1,1,2,0,22,2021_Sep_16_1354,listening_fmri,3.2.4,59.91046165828216,
7,parcelated_audio/23/23_26.ogg,,,,,,,,,0,0,0,0,0,7,7,7,0,0,0,0,,,,,,,,,0,0,0,0,0,25,25,25,,,,,,,,,,,,,,,,,,,,,,,,,,,,,,,,,,,,,,,,839.1051335739994,845.3347167659995,,,,,091621,0,2,1,3,1,1,2,0,22,2021_Sep_16_1354,listening_fmri,3.2.4,59.91046165828216,
7,parcelated_audio/23/23_27.ogg,,,,,,,,,0,0,0,0,0,7,7,7,0,0,0,0,,,,,,,,,0,0,0,0,0,26,26,26,,,,,,,,,,,,,,,,,,,,,,,,,,,,,,,,,,,,,,,,845.3350160919999,850.60156482,,,,,091621,0,2,1,3,1,1,2,0,22,2021_Sep_16_1354,listening_fmri,3.2.4,59.91046165828216,
7,parcelated_audio/23/23_28.ogg,,,,,,,,,0,0,0,0,0,7,7,7,0,0,0,0,,,,,,,,,0,0,0,0,0,27,27,27,,,,,,,,,,,,,,,,,,,,,,,,,,,,,,,,,,,,,,,,850.6021465269996,858.5556554409995,,,,,091621,0,2,1,3,1,1,2,0,22,2021_Sep_16_1354,listening_fmri,3.2.4,59.91046165828216,
7,parcelated_audio/23/23_29.ogg,,,,,,,,,0,0,0,0,0,7,7,7,0,0,0,0,,,,,,,,,0,0,0,0,0,28,28,28,,,,,,,,,,,,,,,,,,,,,,,,,,,,,,,,,,,,,,,,858.5560778429999,862.301478333,,,,,091621,0,2,1,3,1,1,2,0,22,2021_Sep_16_1354,listening_fmri,3.2.4,59.91046165828216,
7,parcelated_audio/23/23_30.ogg,,,,,,,,,0,0,0,0,0,7,7,7,0,0,0,0,,,,,,,,,0,0,0,0,0,29,29,29,,,,,,,,,,,,,,,,,,,,,,,,,,,,,,,,,,,,,,,,862.3017731459995,868.2036796080001,,,,,091621,0,2,1,3,1,1,2,0,22,2021_Sep_16_1354,listening_fmri,3.2.4,59.91046165828216,
7,parcelated_audio/23/23_31.ogg,,,,,,,,,0,0,0,0,0,7,7,7,0,0,0,0,,,,,,,,,0,0,0,0,0,30,30,30,,,,,,,,,,,,,,,,,,,,,,,,,,,,,,,,,,,,,,,,868.2039335239997,870.2173248660001,,,,,091621,0,2,1,3,1,1,2,0,22,2021_Sep_16_1354,listening_fmri,3.2.4,59.91046165828216,
7,parcelated_audio/23/23_32.ogg,,,,,,,,,0,0,0,0,0,7,7,7,0,0,0,0,,,,,,,,,0,0,0,0,0,31,31,31,,,,,,,,,,,,,,,,,,,,,,,,,,,,,,,,,,,,,,,,870.2176390329996,873.8200749509997,,,,,091621,0,2,1,3,1,1,2,0,22,2021_Sep_16_1354,listening_fmri,3.2.4,59.91046165828216,
7,parcelated_audio/23/23_33.ogg,,,,,,,,,0,0,0,0,0,7,7,7,0,0,0,0,,,,,,,,,0,0,0,0,0,32,32,32,,,,,,,,,,,,,,,,,,,,,,,,,,,,,,,,,,,,,,,,873.8203538460002,879.8675532890002,,,,,091621,0,2,1,3,1,1,2,0,22,2021_Sep_16_1354,listening_fmri,3.2.4,59.91046165828216,
7,parcelated_audio/23/23_34.ogg,,,,,,,,,0,0,0,0,0,7,7,7,0,0,0,0,,,,,,,,,0,0,0,0,0,33,33,33,,,,,,,,,,,,,,,,,,,,,,,,,,,,,,,,,,,,,,,,879.8683088500002,883.4106484710001,,,,,091621,0,2,1,3,1,1,2,0,22,2021_Sep_16_1354,listening_fmri,3.2.4,59.91046165828216,
7,parcelated_audio/23/23_35.ogg,,,,,,,,,0,0,0,0,0,7,7,7,0,0,0,0,,,,,,,,,0,0,0,0,0,34,34,34,,,,,,,,,,,,,,,,,,,,,,,,,,,,,,,,,,,,,,,,883.4109385259999,887.6914850550002,,,,,091621,0,2,1,3,1,1,2,0,22,2021_Sep_16_1354,listening_fmri,3.2.4,59.91046165828216,
7,parcelated_audio/23/23_36.ogg,,,,,,,,,0,0,0,0,0,7,7,7,0,0,0,0,,,,,,,,,0,0,0,0,0,35,35,35,,,,,,,,,,,,,,,,,,,,,,,,,,,,,,,,,,,,,,,,887.6917774329995,892.3145785719998,,,,,091621,0,2,1,3,1,1,2,0,22,2021_Sep_16_1354,listening_fmri,3.2.4,59.91046165828216,
7,parcelated_audio/23/23_37.ogg,,,,,,,,,0,0,0,0,0,7,7,7,0,0,0,0,,,,,,,,,0,0,0,0,0,36,36,36,,,,,,,,,,,,,,,,,,,,,,,,,,,,,,,,,,,,,,,,892.3148549070002,897.1012914450002,,,,,091621,0,2,1,3,1,1,2,0,22,2021_Sep_16_1354,listening_fmri,3.2.4,59.91046165828216,
7,parcelated_audio/23/23_38.ogg,,,,,,,,,0,0,0,0,0,7,7,7,0,0,0,0,,,,,,,,,0,0,0,0,0,37,37,37,,,,,,,,,,,,,,,,,,,,,,,,,,,,,,,,,,,,,,,,897.1018526839998,904.5838674890001,,,,,091621,0,2,1,3,1,1,2,0,22,2021_Sep_16_1354,listening_fmri,3.2.4,59.91046165828216,
7,parcelated_audio/23/23_39.ogg,,,,,,,,,0,0,0,0,0,7,7,7,0,0,0,0,,,,,,,,,0,0,0,0,0,38,38,38,,,,,,,,,,,,,,,,,,,,,,,,,,,,,,,,,,,,,,,,904.5841904389999,910.8617615249996,,,,,091621,0,2,1,3,1,1,2,0,22,2021_Sep_16_1354,listening_fmri,3.2.4,59.91046165828216,
7,,,,,,,,,,0,0,0,0,0,7,7,7,0,0,0,0,,,,,,,,,0,0,0,0,,,,,,,,,,,,,,,,,,,,,,,,,,,,,,,,,,,,,,,,,,,,,,,,,,091621,0,2,1,3,1,1,2,0,22,2021_Sep_16_1354,listening_fmri,3.2.4,59.91046165828216,
,,,,,,,,,,,,,,,,,,,,,,,,,,,,,,,,,,,,,,,,,,,,,,,,,,,,,,,910.862234837,916.8500738020002,999.3931292030002,None,,,,,,,,,,,,,,,,,,,,,1005.3948638189995,None,1005.3948638189995,None,,,,,,,,,,,,,,,
