instructText,count,trials_5.thisRepN,trials_5.thisTrialN,trials_5.thisN,trials_5.thisIndex,trials_6.thisRepN,trials_6.thisTrialN,trials_6.thisN,trials_6.thisIndex,trials.thisRepN,trials.thisTrialN,trials.thisN,trials.thisIndex,trials_8.thisRepN,trials_8.thisTrialN,trials_8.thisN,trials_8.thisIndex,story_list_block1,action_list_block1,story_list_block2,action_list_block2,key_resp_3.keys,key_resp_3.rt,key_resp_3.started,key_resp_3.stopped,text_13.started,text_13.stopped,text_23.started,text_23.stopped,text_43.started,text_43.stopped,key_resp_11.keys,key_resp_11.rt,key_resp_11.started,key_resp_11.stopped,text_44.started,text_44.stopped,text_53.started,text_53.stopped,image_10.started,image_10.stopped,text_22.started,text_22.stopped,recall,question1_answer,order of question,text_14.started,text_14.stopped,text_15.started,text_15.stopped,image_6.started,image_6.stopped,polygon_3.started,polygon_3.stopped,bottom_line_3.started,bottom_line_3.stopped,right_line_3.started,right_line_3.stopped,left_line_3.started,left_line_3.stopped,question2_answer,text_16.started,text_16.stopped,text_17.started,text_17.stopped,image_7.started,image_7.stopped,polygon_4.started,polygon_4.stopped,bottom_line_4.started,bottom_line_4.stopped,right_line_4.started,right_line_4.stopped,left_line_4.started,left_line_4.stopped,question3_answer,text_18.started,text_18.stopped,text_19.started,text_19.stopped,image_8.started,image_8.stopped,polygon_5.started,polygon_5.stopped,bottom_line_5.started,bottom_line_5.stopped,right_line_5.started,right_line_5.stopped,left_line_5.started,left_line_5.stopped,question4_answer,text_20.started,text_20.stopped,text_21.started,text_21.stopped,image_9.started,image_9.stopped,polygon_6.started,polygon_6.stopped,bottom_line_6.started,bottom_line_6.stopped,right_line_6.started,right_line_6.stopped,left_line_6.started,left_line_6.stopped,question5_answer,text_25.started,text_25.stopped,text_26.started,text_26.stopped,image_11.started,image_11.stopped,polygon_7.started,polygon_7.stopped,bottom_line_7.started,bottom_line_7.stopped,right_line_7.started,right_line_7.stopped,left_line_7.started,left_line_7.stopped,question6_answer,text_27.started,text_27.stopped,text_28.started,text_28.stopped,image_12.started,image_12.stopped,polygon_8.started,polygon_8.stopped,bottom_line_8.started,bottom_line_8.stopped,right_line_8.started,right_line_8.stopped,left_line_8.started,left_line_8.stopped,question7_answer,text_29.started,text_29.stopped,text_30.started,text_30.stopped,image_13.started,image_13.stopped,polygon_9.started,polygon_9.stopped,bottom_line_9.started,bottom_line_9.stopped,right_line_9.started,right_line_9.stopped,left_line_9.started,left_line_9.stopped,question8_answer,text_31.started,text_31.stopped,text_32.started,text_32.stopped,image_14.started,image_14.stopped,polygon_10.started,polygon_10.stopped,bottom_line_10.started,bottom_line_10.stopped,right_line_10.started,right_line_10.stopped,left_line_10.started,left_line_10.stopped,text_36.started,text_36.stopped,participant,sA,sB,lA,lB,block_struct,random_seed,date,expName,psychopyVersion,frameRate,
"In the final part of the experiment, please answer 8 questions about each story.",,0,0,0,0,,,,,,,,,,,,,[23 12 32 34 43 41 21 14],[4 3 2 2 1 1 4 3],[22 33 11 24 42 44 31 13],[2 4 1 2 3 3 4 1],space,4.340395973999875,6.191891566999402,None,6.191891566999402,None,6.191891566999402,None,,,,,,,,,,,,,,,,,,,,,,,,,,,,,,,,,,,,,,,,,,,,,,,,,,,,,,,,,,,,,,,,,,,,,,,,,,,,,,,,,,,,,,,,,,,,,,,,,,,,,,,,,,,,,,,,,,,,,,,,,,,,,,,,,,,,,,,,,,,111221,0,3,1,3,0,34,2021_Nov_12_1605,short_answer,3.2.4,59.93736593204177,
"We did not tell you to think of all or some of these questions during the story, but please do your best to answer them.",,0,1,1,1,,,,,,,,,,,,,,,,,space,5.413849243000186,10.574562200999935,None,10.574562200999935,None,10.574562200999935,None,,,,,,,,,,,,,,,,,,,,,,,,,,,,,,,,,,,,,,,,,,,,,,,,,,,,,,,,,,,,,,,,,,,,,,,,,,,,,,,,,,,,,,,,,,,,,,,,,,,,,,,,,,,,,,,,,,,,,,,,,,,,,,,,,,,,,,,,,,,111221,0,3,1,3,0,34,2021_Nov_12_1605,short_answer,3.2.4,59.93736593204177,
"Answer as much as you remember, and be specific and concrete in your answers. It is best to try to be as faithful as possible to what the story actually said.
",,0,2,2,2,,,,,,,,,,,,,,,,,space,7.666100822999397,16.024441338999168,None,16.024441338999168,None,16.024441338999168,None,,,,,,,,,,,,,,,,,,,,,,,,,,,,,,,,,,,,,,,,,,,,,,,,,,,,,,,,,,,,,,,,,,,,,,,,,,,,,,,,,,,,,,,,,,,,,,,,,,,,,,,,,,,,,,,,,,,,,,,,,,,,,,,,,,,,,,,,,,,111221,0,3,1,3,0,34,2021_Nov_12_1605,short_answer,3.2.4,59.93736593204177,
"When you have finished typing your answer, hit ‘return’ to submit your answer and move onto the next question. ",,0,3,3,3,,,,,,,,,,,,,,,,,space,5.317067306000354,23.725543188999836,None,23.725543188999836,None,23.725543188999836,None,,,,,,,,,,,,,,,,,,,,,,,,,,,,,,,,,,,,,,,,,,,,,,,,,,,,,,,,,,,,,,,,,,,,,,,,,,,,,,,,,,,,,,,,,,,,,,,,,,,,,,,,,,,,,,,,,,,,,,,,,,,,,,,,,,,,,,,,,,,111221,0,3,1,3,0,34,2021_Nov_12_1605,short_answer,3.2.4,59.93736593204177,
,0,,,,,0,0,0,0,0,0,0,0,,,,,,,,,,,,,,,,,29.075027689999843,None,space,22.460662661000242,29.075027689999843,None,29.075027689999843,None,29.075027689999843,None,51.64265774099931,None,51.64265774099931,None,Her dad mom or some family member i think,,"[2, 1]",56.09075901899996,None,56.09075901899996,None,56.09075901899996,None,56.09075901899996,None,56.09075901899996,None,56.09075901899996,None,56.09075901899996,None,,60.69219825399978,None,60.69219825399978,None,60.69219825399978,None,60.69219825399978,None,60.69219825399978,None,60.69219825399978,None,60.69219825399978,None,,63.326111213999866,None,63.326111213999866,None,63.326111213999866,None,63.326111213999866,None,63.326111213999866,None,63.326111213999866,None,63.326111213999866,None,14$ alex pays while chloe sends a picture of the diamond ring to her family ,72.82539346399972,None,72.82539346399972,None,72.82539346399972,None,72.82539346399972,None,72.82539346399972,None,72.82539346399972,None,72.82539346399972,None,,103.37498167599915,None,103.37498167599915,None,103.37498167599915,None,103.37498167599915,None,103.37498167599915,None,103.37498167599915,None,103.37498167599915,None,1 large diamond that she flaunts to some stranger. this one was standard diamond i think .,105.85838346799937,None,105.85838346799937,None,105.85838346799937,None,105.85838346799937,None,105.85838346799937,None,105.85838346799937,None,105.85838346799937,None,,138.39217408399963,None,138.39217408399963,None,138.39217408399963,None,138.39217408399963,None,138.39217408399963,None,138.39217408399963,None,138.39217408399963,None,Her dad mom or some family member i think,143.37446442999953,None,143.37446442999953,None,143.37446442999953,None,143.37446442999953,None,143.37446442999953,None,143.37446442999953,None,143.37446442999953,None,,,111221,0,3,1,3,0,34,2021_Nov_12_1605,short_answer,3.2.4,59.93736593204177,
,0,,,,,0,0,0,0,,,,,,,,,,,,,,,,,,,,,,,,,,,,,,,,,,,,,,,,,,,,,,,,,,,,,,,,,,,,,,,,,,,,,,,,,,,,,,,,,,,,,,,,,,,,,,,,,,,,,,,,,,,,,,,,,,,,,,,,,,,,,,,,,,,,,,,,,,,,,,,,,,,,,,,,,,,,,,,111221,0,3,1,3,0,34,2021_Nov_12_1605,short_answer,3.2.4,59.93736593204177,
,1,,,,,0,1,1,1,,,,,,,,,,,,,,,,,,,,,,,,,,,,,,,,,,,,,,,,,,,,,,,,,,,,,,,,,,,,,,,,,,,,,,,,,,,,,,,,,,,,,,,,,,,,,,,,,,,,,,,,,,,,,,,,,,,,,,,,,,,,,,,,,,,,,,,,,,,,,,,,,,,,,,,,,,,,,,,111221,0,3,1,3,0,34,2021_Nov_12_1605,short_answer,3.2.4,59.93736593204177,
,2,,,,,0,2,2,2,0,0,0,0,,,,,,,,,,,,,,,,,156.4736254419995,None,space,0.7463348219998807,156.4736254419995,None,156.4736254419995,None,156.4736254419995,None,157.2573236169992,None,157.2573236169992,None,,,"[2, 1]",158.27491596399977,None,158.27491596399977,None,158.27491596399977,None,158.27491596399977,None,158.27491596399977,None,158.27491596399977,None,158.27491596399977,None,,161.90748673799953,None,161.90748673799953,None,161.90748673799953,None,161.90748673799953,None,161.90748673799953,None,161.90748673799953,None,161.90748673799953,None,,165.87405583299915,None,165.87405583299915,None,165.87405583299915,None,165.87405583299915,None,165.87405583299915,None,165.87405583299915,None,165.87405583299915,None,Pretty sure both sit in business class jeff is in seat 4a or smthn similar,168.92411091699978,None,168.92411091699978,None,168.92411091699978,None,168.92411091699978,None,168.92411091699978,None,168.92411091699978,None,168.92411091699978,None,Jeff works for an east coast winery or company that sells east coast wines while william works as a corporate wine seller who would buy the wines from people like jeff,197.60640302899992,None,197.60640302899992,None,197.60640302899992,None,197.60640302899992,None,197.60640302899992,None,197.60640302899992,None,197.60640302899992,None,"800 for a large 6ish crate sample of wines. william argues that despite this initial steep sample discount, the potential of landing a client would make it worth it",241.38933067299968,None,241.38933067299968,None,241.38933067299968,None,241.38933067299968,None,241.38933067299968,None,241.38933067299968,None,241.38933067299968,None,,284.48916305999956,None,284.48916305999956,None,284.48916305999956,None,284.48916305999956,None,284.48916305999956,None,284.48916305999956,None,284.48916305999956,None,,288.0888969609996,None,288.0888969609996,None,288.0888969609996,None,288.0888969609996,None,288.0888969609996,None,288.0888969609996,None,288.0888969609996,None,,,111221,0,3,1,3,0,34,2021_Nov_12_1605,short_answer,3.2.4,59.93736593204177,
,2,,,,,0,2,2,2,,,,,,,,,,,,,,,,,,,,,,,,,,,,,,,,,,,,,,,,,,,,,,,,,,,,,,,,,,,,,,,,,,,,,,,,,,,,,,,,,,,,,,,,,,,,,,,,,,,,,,,,,,,,,,,,,,,,,,,,,,,,,,,,,,,,,,,,,,,,,,,,,,,,,,,,,,,,,,,111221,0,3,1,3,0,34,2021_Nov_12_1605,short_answer,3.2.4,59.93736593204177,
,3,,,,,0,3,3,3,0,0,0,0,,,,,,,,,,,,,,,,,298.5718608469997,None,space,2.0483246610001515,298.5718608469997,None,298.5718608469997,None,298.5718608469997,None,300.6557188609995,None,300.6557188609995,None,,Largeish lecture hall where they sit in the back of their history class,"[2, 1]",301.73911451999993,None,301.73911451999993,None,301.73911451999993,None,301.73911451999993,None,301.73911451999993,None,301.73911451999993,None,301.73911451999993,None,History class. professor mentions at the end to not forget their midterm paper,338.0564597399998,None,338.0564597399998,None,338.0564597399998,None,338.0564597399998,None,338.0564597399998,None,338.0564597399998,None,338.0564597399998,None,,350.9388191279995,None,350.9388191279995,None,350.9388191279995,None,350.9388191279995,None,350.9388191279995,None,350.9388191279995,None,350.9388191279995,None,Midterm paper is soon due next week or class i think,353.22227693899913,None,353.22227693899913,None,353.22227693899913,None,353.22227693899913,None,353.22227693899913,None,353.22227693899913,None,353.22227693899913,None,Charlie is a fund manager at the schools venture capital club and alma is negotiating for a startup company shes involved in or runs ,362.85441570199964,None,362.85441570199964,None,362.85441570199964,None,362.85441570199964,None,362.85441570199964,None,362.85441570199964,None,362.85441570199964,None,"56000 is the initial ask from alma, but charlie counters with 28k-28k halves, with the second half contingent on good performance ",391.9373875329993,None,391.9373875329993,None,391.9373875329993,None,391.9373875329993,None,391.9373875329993,None,391.9373875329993,None,391.9373875329993,None,,418.62102950999997,None,418.62102950999997,None,418.62102950999997,None,418.62102950999997,None,418.62102950999997,None,418.62102950999997,None,418.62102950999997,None,,425.35441657999945,None,425.35441657999945,None,425.35441657999945,None,425.35441657999945,None,425.35441657999945,None,425.35441657999945,None,425.35441657999945,None,,,111221,0,3,1,3,0,34,2021_Nov_12_1605,short_answer,3.2.4,59.93736593204177,
,3,,,,,0,3,3,3,,,,,,,,,,,,,,,,,,,,,,,,,,,,,,,,,,,,,,,,,,,,,,,,,,,,,,,,,,,,,,,,,,,,,,,,,,,,,,,,,,,,,,,,,,,,,,,,,,,,,,,,,,,,,,,,,,,,,,,,,,,,,,,,,,,,,,,,,,,,,,,,,,,,,,,,,,,,,,,111221,0,3,1,3,0,34,2021_Nov_12_1605,short_answer,3.2.4,59.93736593204177,
,4,,,,,0,4,4,4,0,0,0,0,,,,,,,,,,,,,,,,,428.0036159149995,None,space,0.7194489339999564,428.0036159149995,None,428.0036159149995,None,428.0036159149995,None,428.76958435599954,None,428.76958435599954,None,"Not sure but simon ends up paying for carina, stating that this was like their first date",Keys or the cornish hen,"[1, 2]",429.8213249349992,None,429.8213249349992,None,429.8213249349992,None,429.8213249349992,None,429.8213249349992,None,429.8213249349992,None,429.8213249349992,None,"Cornish hen is younger brother of the bigger chicken, and its an unfortunate family since theyre all dead and in the grocery store",441.4211727769998,None,441.4211727769998,None,441.4211727769998,None,441.4211727769998,None,441.4211727769998,None,441.4211727769998,None,441.4211727769998,None,,462.6043495799995,None,462.6043495799995,None,462.6043495799995,None,462.6043495799995,None,462.6043495799995,None,462.6043495799995,None,462.6043495799995,None,3ish ,470.52090139899974,None,470.52090139899974,None,470.52090139899974,None,470.52090139899974,None,470.52090139899974,None,470.52090139899974,None,470.52090139899974,None,,475.8874603999993,None,475.8874603999993,None,475.8874603999993,None,475.8874603999993,None,475.8874603999993,None,475.8874603999993,None,475.8874603999993,None,Items for their summer barbecue parties. carina gets recommended simon's sauce and simon is recommended her veggie kebabs,477.7700878029991,None,477.7700878029991,None,477.7700878029991,None,477.7700878029991,None,477.7700878029991,None,477.7700878029991,None,477.7700878029991,None,2 or 3 i think,507.4707340059995,None,507.4707340059995,None,507.4707340059995,None,507.4707340059995,None,507.4707340059995,None,507.4707340059995,None,507.4707340059995,None,"Not sure but simon ends up paying for carina, stating that this was like their first date",518.270232848,None,518.270232848,None,518.270232848,None,518.270232848,None,518.270232848,None,518.270232848,None,518.270232848,None,,,111221,0,3,1,3,0,34,2021_Nov_12_1605,short_answer,3.2.4,59.93736593204177,
,4,,,,,0,4,4,4,,,,,,,,,,,,,,,,,,,,,,,,,,,,,,,,,,,,,,,,,,,,,,,,,,,,,,,,,,,,,,,,,,,,,,,,,,,,,,,,,,,,,,,,,,,,,,,,,,,,,,,,,,,,,,,,,,,,,,,,,,,,,,,,,,,,,,,,,,,,,,,,,,,,,,,,,,,,,,,111221,0,3,1,3,0,34,2021_Nov_12_1605,short_answer,3.2.4,59.93736593204177,
,5,,,,,0,5,5,5,0,0,0,0,,,,,,,,,,,,,,,,,533.8361515979996,None,space,0.6445700779995605,533.8361515979996,None,533.8361515979996,None,533.8361515979996,None,534.5195808429999,None,534.5195808429999,None,,Teresa slams into a door holding her phone. james is already seated in the restaurant,"[1, 2]",535.8183985699998,None,535.8183985699998,None,535.8183985699998,None,535.8183985699998,None,535.8183985699998,None,535.8183985699998,None,535.8183985699998,None,"Pretty sure he asked her if it hurt, and she asked if he's ever felt the sting of a scorpion, particularly some death-something egyptian one. ",552.5187625969993,None,552.5187625969993,None,552.5187625969993,None,552.5187625969993,None,552.5187625969993,None,552.5187625969993,None,552.5187625969993,None,They will be meeting tonight for an egyptian performer's concert. james will pick her up ,610.701997401,None,610.701997401,None,610.701997401,None,610.701997401,None,610.701997401,None,610.701997401,None,610.701997401,None,3ish maybe since one of them was running late and they were having lunch ,636.1513191129998,None,636.1513191129998,None,636.1513191129998,None,636.1513191129998,None,636.1513191129998,None,636.1513191129998,None,636.1513191129998,None,New atlanta sushi place with wood or oak counters and whatnot ,650.7178087599996,None,650.7178087599996,None,650.7178087599996,None,650.7178087599996,None,650.7178087599996,None,650.7178087599996,None,650.7178087599996,None,,665.917148089,None,665.917148089,None,665.917148089,None,665.917148089,None,665.917148089,None,665.917148089,None,665.917148089,None,"Teresa orders some roll w fish and a japanese beer, he orders two rolls one of which being a vegetable roll",670.8183212869999,None,670.8183212869999,None,670.8183212869999,None,670.8183212869999,None,670.8183212869999,None,670.8183212869999,None,670.8183212869999,None,,692.3846044229995,None,692.3846044229995,None,692.3846044229995,None,692.3846044229995,None,692.3846044229995,None,692.3846044229995,None,692.3846044229995,None,,,111221,0,3,1,3,0,34,2021_Nov_12_1605,short_answer,3.2.4,59.93736593204177,
,5,,,,,0,5,5,5,,,,,,,,,,,,,,,,,,,,,,,,,,,,,,,,,,,,,,,,,,,,,,,,,,,,,,,,,,,,,,,,,,,,,,,,,,,,,,,,,,,,,,,,,,,,,,,,,,,,,,,,,,,,,,,,,,,,,,,,,,,,,,,,,,,,,,,,,,,,,,,,,,,,,,,,,,,,,,,111221,0,3,1,3,0,34,2021_Nov_12_1605,short_answer,3.2.4,59.93736593204177,
,6,,,,,0,6,6,6,0,0,0,0,,,,,,,,,,,,,,,,,702.9001282879999,None,space,1.2361000999999305,702.9001282879999,None,702.9001282879999,None,702.9001282879999,None,704.1841277959993,None,704.1841277959993,None,Something like mom or dad,Fancy restaurant that overlooks the pacific ,"[2, 1]",705.2675781779999,None,705.2675781779999,None,705.2675781779999,None,705.2675781779999,None,705.2675781779999,None,705.2675781779999,None,705.2675781779999,None,Menus dont have prices on them,717.183010105,None,717.183010105,None,717.183010105,None,717.183010105,None,717.183010105,None,717.183010105,None,717.183010105,None,Assortment of seafood including things like scallops but cant remember anything else,722.6177165689996,None,722.6177165689996,None,722.6177165689996,None,722.6177165689996,None,722.6177165689996,None,722.6177165689996,None,722.6177165689996,None,,736.316759976,None,736.316759976,None,736.316759976,None,736.316759976,None,736.316759976,None,736.316759976,None,736.316759976,None,,739.0330598859991,None,739.0330598859991,None,739.0330598859991,None,739.0330598859991,None,739.0330598859991,None,739.0330598859991,None,739.0330598859991,None,3 canary yellow diamonds on the ring,741.4008080429994,None,741.4008080429994,None,741.4008080429994,None,741.4008080429994,None,741.4008080429994,None,741.4008080429994,None,741.4008080429994,None,Cant remember what was mentioned but i think senna called over the waiter while alvira was in the bathroom to give him the order and ring. ,758.3002641019993,None,758.3002641019993,None,758.3002641019993,None,758.3002641019993,None,758.3002641019993,None,758.3002641019993,None,758.3002641019993,None,Something like mom or dad,787.3166551309996,None,787.3166551309996,None,787.3166551309996,None,787.3166551309996,None,787.3166551309996,None,787.3166551309996,None,787.3166551309996,None,,,111221,0,3,1,3,0,34,2021_Nov_12_1605,short_answer,3.2.4,59.93736593204177,
,6,,,,,0,6,6,6,,,,,,,,,,,,,,,,,,,,,,,,,,,,,,,,,,,,,,,,,,,,,,,,,,,,,,,,,,,,,,,,,,,,,,,,,,,,,,,,,,,,,,,,,,,,,,,,,,,,,,,,,,,,,,,,,,,,,,,,,,,,,,,,,,,,,,,,,,,,,,,,,,,,,,,,,,,,,,,111221,0,3,1,3,0,34,2021_Nov_12_1605,short_answer,3.2.4,59.93736593204177,
,7,,,,,0,7,7,7,,,,,,,,,,,,,,,,,,,,,,,,,,,,,,,,,,,,,,,,,,,,,,,,,,,,,,,,,,,,,,,,,,,,,,,,,,,,,,,,,,,,,,,,,,,,,,,,,,,,,,,,,,,,,,,,,,,,,,,,,,,,,,,,,,,,,,,,,,,,,,,,,,,,,,,,,,,,,,,111221,0,3,1,3,0,34,2021_Nov_12_1605,short_answer,3.2.4,59.93736593204177,
,8,,,,,0,8,8,8,0,0,0,0,,,,,,,,,,,,,,,,,795.7662620539995,None,space,0.6177182869996614,795.7662620539995,None,795.7662620539995,None,795.7662620539995,None,796.4331561969993,None,796.4331561969993,None,Probably her family like mom or dad,,"[2, 1]",797.5836866369991,None,797.5836866369991,None,797.5836866369991,None,797.5836866369991,None,797.5836866369991,None,797.5836866369991,None,797.5836866369991,None,Some guy in front had lots of metal on his body,817.5828458719998,None,817.5828458719998,None,817.5828458719998,None,817.5828458719998,None,817.5828458719998,None,817.5828458719998,None,817.5828458719998,None,,827.5835932059999,None,827.5835932059999,None,827.5835932059999,None,827.5835932059999,None,827.5835932059999,None,827.5835932059999,None,827.5835932059999,None,,832.5667690279997,None,832.5667690279997,None,832.5667690279997,None,832.5667690279997,None,832.5667690279997,None,832.5667690279997,None,832.5667690279997,None,"11 months, and he already got the ring 2 months prior",834.2988574419996,None,834.2988574419996,None,834.2988574419996,None,834.2988574419996,None,834.2988574419996,None,834.2988574419996,None,834.2988574419996,None,,846.3489743079999,None,846.3489743079999,None,846.3489743079999,None,846.3489743079999,None,846.3489743079999,None,846.3489743079999,None,846.3489743079999,None,"He pulled out a box from his bag, but then pocketed the ring before he was forced to present it",850.9985097999997,None,850.9985097999997,None,850.9985097999997,None,850.9985097999997,None,850.9985097999997,None,850.9985097999997,None,850.9985097999997,None,Probably her family like mom or dada,870.4316488819995,None,870.4316488819995,None,870.4316488819995,None,870.4316488819995,None,870.4316488819995,None,870.4316488819995,None,870.4316488819995,None,,,111221,0,3,1,3,0,34,2021_Nov_12_1605,short_answer,3.2.4,59.93736593204177,
,8,,,,,0,8,8,8,,,,,,,,,,,,,,,,,,,,,,,,,,,,,,,,,,,,,,,,,,,,,,,,,,,,,,,,,,,,,,,,,,,,,,,,,,,,,,,,,,,,,,,,,,,,,,,,,,,,,,,,,,,,,,,,,,,,,,,,,,,,,,,,,,,,,,,,,,,,,,,,,,,,,,,,,,,,,,,111221,0,3,1,3,0,34,2021_Nov_12_1605,short_answer,3.2.4,59.93736593204177,
,9,,,,,0,9,9,9,0,0,0,0,,,,,,,,,,,,,,,,,880.931779048,None,space,1.040427382999951,880.931779048,None,880.931779048,None,880.931779048,None,882.0144537489996,None,882.0144537489996,None,,"Bianchi represents some italian quality cheese company and morrison is the cpo or chief procurement officer of a grocery chain, responsible for choosing what products they buy and sell","[1, 2]",882.9481597049999,None,882.9481597049999,None,882.9481597049999,None,882.9481597049999,None,882.9481597049999,None,882.9481597049999,None,882.9481597049999,None,,919.8154418339991,None,919.8154418339991,None,919.8154418339991,None,919.8154418339991,None,919.8154418339991,None,919.8154418339991,None,919.8154418339991,None,,923.3481536589998,None,923.3481536589998,None,923.3481536589998,None,923.3481536589998,None,923.3481536589998,None,923.3481536589998,None,923.3481536589998,None,Pop some champagne that was pulled from a purse,925.2156110309998,None,925.2156110309998,None,925.2156110309998,None,925.2156110309998,None,925.2156110309998,None,925.2156110309998,None,925.2156110309998,None,,935.4649592039996,None,935.4649592039996,None,935.4649592039996,None,935.4649592039996,None,935.4649592039996,None,935.4649592039996,None,935.4649592039996,None,Someone buys crackers ketchup and champagne or wine,937.9148368389997,None,937.9148368389997,None,937.9148368389997,None,937.9148368389997,None,937.9148368389997,None,937.9148368389997,None,937.9148368389997,None,,947.4814565549996,None,947.4814565549996,None,947.4814565549996,None,947.4814565549996,None,947.4814565549996,None,947.4814565549996,None,947.4814565549996,None,,950.2645950799997,None,950.2645950799997,None,950.2645950799997,None,950.2645950799997,None,950.2645950799997,None,950.2645950799997,None,950.2645950799997,None,,,111221,0,3,1,3,0,34,2021_Nov_12_1605,short_answer,3.2.4,59.93736593204177,
,9,,,,,0,9,9,9,,,,,,,,,,,,,,,,,,,,,,,,,,,,,,,,,,,,,,,,,,,,,,,,,,,,,,,,,,,,,,,,,,,,,,,,,,,,,,,,,,,,,,,,,,,,,,,,,,,,,,,,,,,,,,,,,,,,,,,,,,,,,,,,,,,,,,,,,,,,,,,,,,,,,,,,,,,,,,,111221,0,3,1,3,0,34,2021_Nov_12_1605,short_answer,3.2.4,59.93736593204177,
,10,,,,,0,10,10,10,0,0,0,0,,,,,,,,,,,,,,,,,952.3966703059996,None,space,0.7282923000002484,952.3966703059996,None,952.3966703059996,None,952.3966703059996,None,953.1646443539994,None,953.1646443539994,None,Sadie wants her polaroid and beatles poster,70s restaurant theme ,"[2, 1]",954.1315247879993,None,954.1315247879993,None,954.1315247879993,None,954.1315247879993,None,954.1315247879993,None,954.1315247879993,None,954.1315247879993,None,They barely interacted with the menus and just ordered what was familiar,960.0136512219997,None,960.0136512219997,None,960.0136512219997,None,960.0136512219997,None,960.0136512219997,None,960.0136512219997,None,960.0136512219997,None,A burger and a reuben ,972.6802321979994,None,972.6802321979994,None,972.6802321979994,None,972.6802321979994,None,972.6802321979994,None,972.6802321979994,None,972.6802321979994,None,"Hamburger was fishy and dry, jeff wonders if the bad taste was from the restaurant or burger",977.8977743519999,None,977.8977743519999,None,977.8977743519999,None,977.8977743519999,None,977.8977743519999,None,977.8977743519999,None,977.8977743519999,None,2 months,1000.1309170809991,None,1000.1309170809991,None,1000.1309170809991,None,1000.1309170809991,None,1000.1309170809991,None,1000.1309170809991,None,1000.1309170809991,None,He is very stressed and preoccupied by his job and questions of whether or not this career path and company is right for him,1003.0803812199993,None,1003.0803812199993,None,1003.0803812199993,None,1003.0803812199993,None,1003.0803812199993,None,1003.0803812199993,None,1003.0803812199993,None,"She initially doesnt want to break up cause she thinks things were going well, and she is willing to see him less often if that would help. but then she gets angry and storms out, asking him to never speak to her and give her back the polaroid and beatles poster",1024.2969287059996,None,1024.2969287059996,None,1024.2969287059996,None,1024.2969287059996,None,1024.2969287059996,None,1024.2969287059996,None,1024.2969287059996,None,Sadie wants her polaroid and beatles poster,1073.7961711939997,None,1073.7961711939997,None,1073.7961711939997,None,1073.7961711939997,None,1073.7961711939997,None,1073.7961711939997,None,1073.7961711939997,None,,,111221,0,3,1,3,0,34,2021_Nov_12_1605,short_answer,3.2.4,59.93736593204177,
,10,,,,,0,10,10,10,,,,,,,,,,,,,,,,,,,,,,,,,,,,,,,,,,,,,,,,,,,,,,,,,,,,,,,,,,,,,,,,,,,,,,,,,,,,,,,,,,,,,,,,,,,,,,,,,,,,,,,,,,,,,,,,,,,,,,,,,,,,,,,,,,,,,,,,,,,,,,,,,,,,,,,,,,,,,,,111221,0,3,1,3,0,34,2021_Nov_12_1605,short_answer,3.2.4,59.93736593204177,
,11,,,,,0,11,11,11,0,0,0,0,,,,,,,,,,,,,,,,,1083.1282445789993,None,space,0.5672547619997204,1083.1282445789993,None,1083.1282445789993,None,1083.1282445789993,None,1083.7289291829993,None,1083.7289291829993,None,Parents probably. friends are waiting outside and came in,Princeton lecture halls with that gothic/hogwarts aesthetic and vibes,"[2, 1]",1084.4794820879997,None,1084.4794820879997,None,1084.4794820879997,None,1084.4794820879997,None,1084.4794820879997,None,1084.4794820879997,None,1084.4794820879997,None,"Chemistry, prof asks what makes atoms unique. ",1097.2956878469995,None,1097.2956878469995,None,1097.2956878469995,None,1097.2956878469995,None,1097.2956878469995,None,1097.2956878469995,None,1097.2956878469995,None,Protons are what identify an atom. atomic number equals number of protons,1111.1296200069992,None,1111.1296200069992,None,1111.1296200069992,None,1111.1296200069992,None,1111.1296200069992,None,1111.1296200069992,None,1111.1296200069992,None,,1128.5956395419998,None,1128.5956395419998,None,1128.5956395419998,None,1128.5956395419998,None,1128.5956395419998,None,1128.5956395419998,None,1128.5956395419998,None,Since freshman year when they met in a similar class,1134.195691684,None,1134.195691684,None,1134.195691684,None,1134.195691684,None,1134.195691684,None,1134.195691684,None,1134.195691684,None,5 red diamonds cause theyre quirky and match her avant garde style ,1144.7625321319993,None,1144.7625321319993,None,1144.7625321319993,None,1144.7625321319993,None,1144.7625321319993,None,1144.7625321319993,None,1144.7625321319993,None,It was tucked into his notebook,1161.2451943939996,None,1161.2451943939996,None,1161.2451943939996,None,1161.2451943939996,None,1161.2451943939996,None,1161.2451943939996,None,1161.2451943939996,None,Parents probably. friends are waiting outside and came in,1168.178041274,None,1168.178041274,None,1168.178041274,None,1168.178041274,None,1168.178041274,None,1168.178041274,None,1168.178041274,None,,,111221,0,3,1,3,0,34,2021_Nov_12_1605,short_answer,3.2.4,59.93736593204177,
,11,,,,,0,11,11,11,,,,,,,,,,,,,,,,,,,,,,,,,,,,,,,,,,,,,,,,,,,,,,,,,,,,,,,,,,,,,,,,,,,,,,,,,,,,,,,,,,,,,,,,,,,,,,,,,,,,,,,,,,,,,,,,,,,,,,,,,,,,,,,,,,,,,,,,,,,,,,,,,,,,,,,,,,,,,,,111221,0,3,1,3,0,34,2021_Nov_12_1605,short_answer,3.2.4,59.93736593204177,
,12,,,,,0,12,12,12,,,,,,,,,,,,,,,,,,,,,,,,,,,,,,,,,,,,,,,,,,,,,,,,,,,,,,,,,,,,,,,,,,,,,,,,,,,,,,,,,,,,,,,,,,,,,,,,,,,,,,,,,,,,,,,,,,,,,,,,,,,,,,,,,,,,,,,,,,,,,,,,,,,,,,,,,,,,,,,111221,0,3,1,3,0,34,2021_Nov_12_1605,short_answer,3.2.4,59.93736593204177,
,13,,,,,0,13,13,13,,,,,,,,,,,,,,,,,,,,,,,,,,,,,,,,,,,,,,,,,,,,,,,,,,,,,,,,,,,,,,,,,,,,,,,,,,,,,,,,,,,,,,,,,,,,,,,,,,,,,,,,,,,,,,,,,,,,,,,,,,,,,,,,,,,,,,,,,,,,,,,,,,,,,,,,,,,,,,,111221,0,3,1,3,0,34,2021_Nov_12_1605,short_answer,3.2.4,59.93736593204177,
,14,,,,,0,14,14,14,0,0,0,0,,,,,,,,,,,,,,,,,1180.0604223439996,None,space,0.6498615629998312,1180.0604223439996,None,1180.0604223439996,None,1180.0604223439996,None,1180.7437972419993,None,1180.7437972419993,None,,Shelton is a top level admin in some established airline for a while but gordon is head of a startup that will disrupt the airline industry,"[1, 2]",1181.6446808439996,None,1181.6446808439996,None,1181.6446808439996,None,1181.6446808439996,None,1181.6446808439996,None,1181.6446808439996,None,1181.6446808439996,None,,1214.7112908269992,None,1214.7112908269992,None,1214.7112908269992,None,1214.7112908269992,None,1214.7112908269992,None,1214.7112908269992,None,1214.7112908269992,None,Techjet,1218.5946832119998,None,1218.5946832119998,None,1218.5946832119998,None,1218.5946832119998,None,1218.5946832119998,None,1218.5946832119998,None,1218.5946832119998,None,,1223.2778098139997,None,1223.2778098139997,None,1223.2778098139997,None,1223.2778098139997,None,1223.2778098139997,None,1223.2778098139997,None,1223.2778098139997,None,,1226.6110992989998,None,1226.6110992989998,None,1226.6110992989998,None,1226.6110992989998,None,1226.6110992989998,None,1226.6110992989998,None,1226.6110992989998,None,,1228.6447357009993,None,1228.6447357009993,None,1228.6447357009993,None,1228.6447357009993,None,1228.6447357009993,None,1228.6447357009993,None,1228.6447357009993,None,,1229.795145952,None,1229.795145952,None,1229.795145952,None,1229.795145952,None,1229.795145952,None,1229.795145952,None,1229.795145952,None,,1230.8949927519998,None,1230.8949927519998,None,1230.8949927519998,None,1230.8949927519998,None,1230.8949927519998,None,1230.8949927519998,None,1230.8949927519998,None,,,111221,0,3,1,3,0,34,2021_Nov_12_1605,short_answer,3.2.4,59.93736593204177,
,14,,,,,0,14,14,14,,,,,,,,,,,,,,,,,,,,,,,,,,,,,,,,,,,,,,,,,,,,,,,,,,,,,,,,,,,,,,,,,,,,,,,,,,,,,,,,,,,,,,,,,,,,,,,,,,,,,,,,,,,,,,,,,,,,,,,,,,,,,,,,,,,,,,,,,,,,,,,,,,,,,,,,,,,,,,,111221,0,3,1,3,0,34,2021_Nov_12_1605,short_answer,3.2.4,59.93736593204177,
,15,,,,,0,15,15,15,0,0,0,0,,,,,,,,,,,,,,,,,1231.5936465529994,None,space,0.9049563270000363,1231.5936465529994,None,1231.5936465529994,None,1231.5936465529994,None,1232.5431638189993,None,1232.5431638189993,None,"He wants the cat, and proposes whoever spills the beans bout the breakup at their dinner party gets custody. he wants it back, but she knows thats another issue theyll have down the line",,"[2, 1]",1233.4939894929994,None,1233.4939894929994,None,1233.4939894929994,None,1233.4939894929994,None,1233.4939894929994,None,1233.4939894929994,None,1233.4939894929994,None,Buying things like pasta sauce for dinner party that night,1236.6770457629991,None,1236.6770457629991,None,1236.6770457629991,None,1236.6770457629991,None,1236.6770457629991,None,1236.6770457629991,None,1236.6770457629991,None,I think it mentions most lanes were open,1246.1440688459998,None,1246.1440688459998,None,1246.1440688459998,None,1246.1440688459998,None,1246.1440688459998,None,1246.1440688459998,None,1246.1440688459998,None,,1253.9938890479998,None,1253.9938890479998,None,1253.9938890479998,None,1253.9938890479998,None,1253.9938890479998,None,1253.9938890479998,None,1253.9938890479998,None,"Theyve both been fighting a lot in recent times, and both are fed up. emmanuella initiates it while liam ruminates on it until the check out line where he agrees and says it would be better to see other people",1256.7448731409995,None,1256.7448731409995,None,1256.7448731409995,None,1256.7448731409995,None,1256.7448731409995,None,1256.7448731409995,None,1256.7448731409995,None,They are constantly fighting over the smallest things,1299.0434574319997,None,1299.0434574319997,None,1299.0434574319997,None,1299.0434574319997,None,1299.0434574319997,None,1299.0434574319997,None,1299.0434574319997,None,Its mutual. both believe they would be happier without these current arguements in their relationship ,1310.4935350859996,None,1310.4935350859996,None,1310.4935350859996,None,1310.4935350859996,None,1310.4935350859996,None,1310.4935350859996,None,1310.4935350859996,None,"He wants the cat, and proposes whoever spills the beans bout the breakup at their dinner party gets custody. he wants it back, but she knows thats another issue theyll have down the line",1329.0765457059997,None,1329.0765457059997,None,1329.0765457059997,None,1329.0765457059997,None,1329.0765457059997,None,1329.0765457059997,None,1329.0765457059997,None,,,111221,0,3,1,3,0,34,2021_Nov_12_1605,short_answer,3.2.4,59.93736593204177,
,15,,,,,0,15,15,15,,,,,,,,,,,,,,,,,,,,,,,,,,,,,,,,,,,,,,,,,,,,,,,,,,,,,,,,,,,,,,,,,,,,,,,,,,,,,,,,,,,,,,,,,,,,,,,,,,,,,,,,,,,,,,,,,,,,,,,,,,,,,,,,,,,,,,,,,,,,,,,,,,,,,,,,,,,,,,,111221,0,3,1,3,0,34,2021_Nov_12_1605,short_answer,3.2.4,59.93736593204177,
,,,,,,,,,,,,,,0,0,0,0,,,,,,,,,,,,,,,,,,,,,,,,,,,,,,,,,,,,,,,,,,,,,,,,,,,,,,,,,,,,,,,,,,,,,,,,,,,,,,,,,,,,,,,,,,,,,,,,,,,,,,,,,,,,,,,,,,,,,,,,,,,,,,,,,,,,,,,,,,,,,,,,,,,,,1364.6254779679994,None,111221,0,3,1,3,0,34,2021_Nov_12_1605,short_answer,3.2.4,59.93736593204177,
