count,audio,trials_14.thisRepN,trials_14.thisTrialN,trials_14.thisN,trials_14.thisIndex,trials_3.thisRepN,trials_3.thisTrialN,trials_3.thisN,trials_3.thisIndex,trials_4.thisRepN,trials_4.thisTrialN,trials_4.thisN,trials_4.thisIndex,trials_6.thisRepN,trials_6.thisTrialN,trials_6.thisN,trials_6.thisIndex,trials_9.thisRepN,trials_9.thisTrialN,trials_9.thisN,trials_9.thisIndex,trials_10.thisRepN,trials_10.thisTrialN,trials_10.thisN,trials_10.thisIndex,trials_11.thisRepN,trials_11.thisTrialN,trials_11.thisN,trials_11.thisIndex,trials_12.thisRepN,trials_12.thisTrialN,trials_12.thisN,trials_12.thisIndex,trials_25.thisRepN,trials_25.thisTrialN,trials_25.thisN,trials_25.thisIndex,trials_15.thisRepN,trials_15.thisTrialN,trials_15.thisN,trials_15.thisIndex,trials_26.thisRepN,trials_26.thisTrialN,trials_26.thisN,trials_26.thisIndex,trials_8.thisRepN,trials_8.thisTrialN,trials_8.thisN,trials_8.thisIndex,story_list_block2,action_list_block2,textTrigger.started,textTrigger.stopped,getTrigger.keys,getTrigger.rt,getTrigger.started,getTrigger.stopped,triggerTime,text_76.started,text_76.stopped,text_77.started,text_77.stopped,startWait,endWait,image_23.started,image_23.stopped,text_55.started,text_55.stopped,text_56.started,text_56.stopped,key_resp_2.keys,key_resp_2.rt,key_resp_2.started,key_resp_2.stopped,text_82.started,text_82.stopped,text_57.started,text_57.stopped,key_resp_17.keys,key_resp_17.rt,key_resp_17.started,key_resp_17.stopped,text_83.started,text_83.stopped,text_60.started,text_60.stopped,image_2.started,image_2.stopped,text_58.started,text_58.stopped,key_resp_23.keys,key_resp_23.rt,key_resp_23.started,key_resp_23.stopped,text_62.started,text_62.stopped,key_resp_18.keys,key_resp_18.rt,key_resp_18.started,key_resp_18.stopped,text_84.started,text_84.stopped,question1_2.started,question1_2.stopped,question2_2.started,question2_2.stopped,question3_2.started,question3_2.stopped,question4_2.started,question4_2.stopped,question5_2.started,question5_2.stopped,question6_2.started,question6_2.stopped,image_15.started,image_15.stopped,key_resp.keys,key_resp.started,key_resp.stopped,text_59.started,text_59.stopped,key_resp_19.keys,key_resp_19.rt,key_resp_19.started,key_resp_19.stopped,text_85.started,text_85.stopped,text_61.started,text_61.stopped,image_17.started,image_17.stopped,text_63.started,text_63.stopped,key_resp_24.keys,key_resp_24.rt,key_resp_24.started,key_resp_24.stopped,text_64.started,text_64.stopped,key_resp_20.keys,key_resp_20.rt,key_resp_20.started,key_resp_20.stopped,storyImage_StartTime,storyImage_EndTime,clip_StartTime,clip_EndTime,text_67.started,text_67.stopped,text_68.started,text_68.stopped,text_36.started,text_36.stopped,participant,sA,sB,lA,lB,block_struct,play_stories,block,behavioral,random_seed,date,expName,psychopyVersion,frameRate,
0,,,,,,,,,,0,0,0,0,0,0,0,0,0,0,0,0,0,0,0,0,0,0,0,0,,,,,,,,,,,,,,,,,,,,,[22 33 11 24 42 44 31 13],[2 4 1 2 3 3 4 1],13.323045143999934,None,equal,27.850578753000264,13.323045143999934,None,27.875679549000324,13.323045143999934,None,13.323045143999934,None,0.0003043409997189883,5.999192759999914,41.192204493999725,None,47.20601531800003,None,47.20601531800003,None,5,0.96660317199985,47.20601531800003,None,47.20601531800003,None,48.19260708899992,None,5,0.9799976779995632,48.19260708899992,None,48.19260708899992,None,49.222228490999896,None,49.222228490999896,None,49.222228490999896,None,5,0.9503837360002763,49.222228490999896,None,50.19175925299987,None,5,0.9807050529998378,50.19175925299987,None,50.19175925299987,None,51.27260706299967,None,51.27260706299967,None,51.27260706299967,None,51.27260706299967,None,51.27260706299967,None,51.27260706299967,None,51.27260706299967,None,None,51.27260706299967,None,,,,,,,,,,,,,,,,,,,,,,,,,,,,,,,,,,,111221,0,3,1,3,0,1,2,0,34,2021_Nov_12_1456,listening_fmri,3.2.4,60.253028979956696,
0,,,,,,,,,,0,0,0,0,0,0,0,0,0,0,0,0,0,0,0,0,,,,,,,,,,,,,,,,,,,,,,,,,,,,,,,,,,,,,,,,,,,,,,,,,,,,,,,,,,,,,,,,,,,,,,,,,,,,,,,,,,,,,,,,,,,,,,,76.98878986299997,None,5,0.18272590000015043,76.98878986299997,None,76.98878986299997,None,77.20567706599968,None,77.20567706599968,None,77.20567706599968,None,5,0.9659276829997907,77.20567706599968,None,,,,,,,,,,,,,,,,,111221,0,3,1,3,0,1,2,0,34,2021_Nov_12_1456,listening_fmri,3.2.4,60.253028979956696,
0,parcelated_audio/22/22_1.ogg,,,,,,,,,0,0,0,0,0,0,0,0,0,0,0,0,,,,,,,,,,,,,0,0,0,0,0,0,0,0,,,,,,,,,,,,,,,,,,,,,,,,,,,,,,,,,,,,,,,,,,,,,,,,,,,,,,,,,,,,,,,,,,,,,,,,,,,,,,,,,,,,,,,,,,,,,,,,,78.19202011499965,None,5,0.9794903900001373,78.19202011499965,None,38.006747445999736,41.01637224299975,41.026155562999975,54.0901453309998,,,,,,,111221,0,3,1,3,0,1,2,0,34,2021_Nov_12_1456,listening_fmri,3.2.4,60.253028979956696,
0,parcelated_audio/22/22_2.ogg,,,,,,,,,0,0,0,0,0,0,0,0,0,0,0,0,,,,,,,,,,,,,0,0,0,0,0,1,1,1,,,,,,,,,,,,,,,,,,,,,,,,,,,,,,,,,,,,,,,,,,,,,,,,,,,,,,,,,,,,,,,,,,,,,,,,,,,,,,,,,,,,,,,,,,,,,,,,,,,,,,,,,54.09042148599974,60.48277197800007,,,,,,,111221,0,3,1,3,0,1,2,0,34,2021_Nov_12_1456,listening_fmri,3.2.4,60.253028979956696,
0,parcelated_audio/22/22_3.ogg,,,,,,,,,0,0,0,0,0,0,0,0,0,0,0,0,,,,,,,,,,,,,0,0,0,0,0,2,2,2,,,,,,,,,,,,,,,,,,,,,,,,,,,,,,,,,,,,,,,,,,,,,,,,,,,,,,,,,,,,,,,,,,,,,,,,,,,,,,,,,,,,,,,,,,,,,,,,,,,,,,,,,60.483398655999736,73.40826568500006,,,,,,,111221,0,3,1,3,0,1,2,0,34,2021_Nov_12_1456,listening_fmri,3.2.4,60.253028979956696,
0,parcelated_audio/22/22_4.ogg,,,,,,,,,0,0,0,0,0,0,0,0,0,0,0,0,,,,,,,,,,,,,0,0,0,0,0,3,3,3,,,,,,,,,,,,,,,,,,,,,,,,,,,,,,,,,,,,,,,,,,,,,,,,,,,,,,,,,,,,,,,,,,,,,,,,,,,,,,,,,,,,,,,,,,,,,,,,,,,,,,,,,73.40865765799981,85.82127595699967,,,,,,,111221,0,3,1,3,0,1,2,0,34,2021_Nov_12_1456,listening_fmri,3.2.4,60.253028979956696,
0,parcelated_audio/22/22_5.ogg,,,,,,,,,0,0,0,0,0,0,0,0,0,0,0,0,,,,,,,,,,,,,0,0,0,0,0,4,4,4,,,,,,,,,,,,,,,,,,,,,,,,,,,,,,,,,,,,,,,,,,,,,,,,,,,,,,,,,,,,,,,,,,,,,,,,,,,,,,,,,,,,,,,,,,,,,,,,,,,,,,,,,85.82164539399992,91.75575803699985,,,,,,,111221,0,3,1,3,0,1,2,0,34,2021_Nov_12_1456,listening_fmri,3.2.4,60.253028979956696,
0,parcelated_audio/22/22_6.ogg,,,,,,,,,0,0,0,0,0,0,0,0,0,0,0,0,,,,,,,,,,,,,0,0,0,0,0,5,5,5,,,,,,,,,,,,,,,,,,,,,,,,,,,,,,,,,,,,,,,,,,,,,,,,,,,,,,,,,,,,,,,,,,,,,,,,,,,,,,,,,,,,,,,,,,,,,,,,,,,,,,,,,91.756162485,100.95679775899998,,,,,,,111221,0,3,1,3,0,1,2,0,34,2021_Nov_12_1456,listening_fmri,3.2.4,60.253028979956696,
0,parcelated_audio/22/22_7.ogg,,,,,,,,,0,0,0,0,0,0,0,0,0,0,0,0,,,,,,,,,,,,,0,0,0,0,0,6,6,6,,,,,,,,,,,,,,,,,,,,,,,,,,,,,,,,,,,,,,,,,,,,,,,,,,,,,,,,,,,,,,,,,,,,,,,,,,,,,,,,,,,,,,,,,,,,,,,,,,,,,,,,,100.95715165399997,105.94588902899977,,,,,,,111221,0,3,1,3,0,1,2,0,34,2021_Nov_12_1456,listening_fmri,3.2.4,60.253028979956696,
0,parcelated_audio/22/22_8.ogg,,,,,,,,,0,0,0,0,0,0,0,0,0,0,0,0,,,,,,,,,,,,,0,0,0,0,0,7,7,7,,,,,,,,,,,,,,,,,,,,,,,,,,,,,,,,,,,,,,,,,,,,,,,,,,,,,,,,,,,,,,,,,,,,,,,,,,,,,,,,,,,,,,,,,,,,,,,,,,,,,,,,,105.94629676199975,109.58883649900008,,,,,,,111221,0,3,1,3,0,1,2,0,34,2021_Nov_12_1456,listening_fmri,3.2.4,60.253028979956696,
0,parcelated_audio/22/22_9.ogg,,,,,,,,,0,0,0,0,0,0,0,0,0,0,0,0,,,,,,,,,,,,,0,0,0,0,0,8,8,8,,,,,,,,,,,,,,,,,,,,,,,,,,,,,,,,,,,,,,,,,,,,,,,,,,,,,,,,,,,,,,,,,,,,,,,,,,,,,,,,,,,,,,,,,,,,,,,,,,,,,,,,,109.5892911359997,113.48225406999973,,,,,,,111221,0,3,1,3,0,1,2,0,34,2021_Nov_12_1456,listening_fmri,3.2.4,60.253028979956696,
0,parcelated_audio/22/22_10.ogg,,,,,,,,,0,0,0,0,0,0,0,0,0,0,0,0,,,,,,,,,,,,,0,0,0,0,0,9,9,9,,,,,,,,,,,,,,,,,,,,,,,,,,,,,,,,,,,,,,,,,,,,,,,,,,,,,,,,,,,,,,,,,,,,,,,,,,,,,,,,,,,,,,,,,,,,,,,,,,,,,,,,,113.48260523999988,118.25279677199978,,,,,,,111221,0,3,1,3,0,1,2,0,34,2021_Nov_12_1456,listening_fmri,3.2.4,60.253028979956696,
0,parcelated_audio/22/22_11.ogg,,,,,,,,,0,0,0,0,0,0,0,0,0,0,0,0,,,,,,,,,,,,,0,0,0,0,0,10,10,10,,,,,,,,,,,,,,,,,,,,,,,,,,,,,,,,,,,,,,,,,,,,,,,,,,,,,,,,,,,,,,,,,,,,,,,,,,,,,,,,,,,,,,,,,,,,,,,,,,,,,,,,,118.25315056199997,125.55458017899991,,,,,,,111221,0,3,1,3,0,1,2,0,34,2021_Nov_12_1456,listening_fmri,3.2.4,60.253028979956696,
0,parcelated_audio/22/22_12.ogg,,,,,,,,,0,0,0,0,0,0,0,0,0,0,0,0,,,,,,,,,,,,,0,0,0,0,0,11,11,11,,,,,,,,,,,,,,,,,,,,,,,,,,,,,,,,,,,,,,,,,,,,,,,,,,,,,,,,,,,,,,,,,,,,,,,,,,,,,,,,,,,,,,,,,,,,,,,,,,,,,,,,,125.55491186299969,133.28041571999984,,,,,,,111221,0,3,1,3,0,1,2,0,34,2021_Nov_12_1456,listening_fmri,3.2.4,60.253028979956696,
0,parcelated_audio/22/22_13.ogg,,,,,,,,,0,0,0,0,0,0,0,0,0,0,0,0,,,,,,,,,,,,,0,0,0,0,0,12,12,12,,,,,,,,,,,,,,,,,,,,,,,,,,,,,,,,,,,,,,,,,,,,,,,,,,,,,,,,,,,,,,,,,,,,,,,,,,,,,,,,,,,,,,,,,,,,,,,,,,,,,,,,,133.28077770299979,140.5542683929998,,,,,,,111221,0,3,1,3,0,1,2,0,34,2021_Nov_12_1456,listening_fmri,3.2.4,60.253028979956696,
0,parcelated_audio/22/22_14.ogg,,,,,,,,,0,0,0,0,0,0,0,0,0,0,0,0,,,,,,,,,,,,,0,0,0,0,0,13,13,13,,,,,,,,,,,,,,,,,,,,,,,,,,,,,,,,,,,,,,,,,,,,,,,,,,,,,,,,,,,,,,,,,,,,,,,,,,,,,,,,,,,,,,,,,,,,,,,,,,,,,,,,,140.5545315119998,146.18905772399967,,,,,,,111221,0,3,1,3,0,1,2,0,34,2021_Nov_12_1456,listening_fmri,3.2.4,60.253028979956696,
0,parcelated_audio/22/22_15.ogg,,,,,,,,,0,0,0,0,0,0,0,0,0,0,0,0,,,,,,,,,,,,,0,0,0,0,0,14,14,14,,,,,,,,,,,,,,,,,,,,,,,,,,,,,,,,,,,,,,,,,,,,,,,,,,,,,,,,,,,,,,,,,,,,,,,,,,,,,,,,,,,,,,,,,,,,,,,,,,,,,,,,,146.18940245799968,153.97026719999985,,,,,,,111221,0,3,1,3,0,1,2,0,34,2021_Nov_12_1456,listening_fmri,3.2.4,60.253028979956696,
0,parcelated_audio/22/22_16.ogg,,,,,,,,,0,0,0,0,0,0,0,0,0,0,0,0,,,,,,,,,,,,,0,0,0,0,0,15,15,15,,,,,,,,,,,,,,,,,,,,,,,,,,,,,,,,,,,,,,,,,,,,,,,,,,,,,,,,,,,,,,,,,,,,,,,,,,,,,,,,,,,,,,,,,,,,,,,,,,,,,,,,,153.9706344199999,162.64237266200007,,,,,,,111221,0,3,1,3,0,1,2,0,34,2021_Nov_12_1456,listening_fmri,3.2.4,60.253028979956696,
0,parcelated_audio/22/22_17.ogg,,,,,,,,,0,0,0,0,0,0,0,0,0,0,0,0,,,,,,,,,,,,,0,0,0,0,0,16,16,16,,,,,,,,,,,,,,,,,,,,,,,,,,,,,,,,,,,,,,,,,,,,,,,,,,,,,,,,,,,,,,,,,,,,,,,,,,,,,,,,,,,,,,,,,,,,,,,,,,,,,,,,,162.64267835200008,165.79727582099986,,,,,,,111221,0,3,1,3,0,1,2,0,34,2021_Nov_12_1456,listening_fmri,3.2.4,60.253028979956696,
0,parcelated_audio/22/22_18.ogg,,,,,,,,,0,0,0,0,0,0,0,0,0,0,0,0,,,,,,,,,,,,,0,0,0,0,0,17,17,17,,,,,,,,,,,,,,,,,,,,,,,,,,,,,,,,,,,,,,,,,,,,,,,,,,,,,,,,,,,,,,,,,,,,,,,,,,,,,,,,,,,,,,,,,,,,,,,,,,,,,,,,,165.79755117600007,172.535413652,,,,,,,111221,0,3,1,3,0,1,2,0,34,2021_Nov_12_1456,listening_fmri,3.2.4,60.253028979956696,
0,parcelated_audio/22/22_19.ogg,,,,,,,,,0,0,0,0,0,0,0,0,0,0,0,0,,,,,,,,,,,,,0,0,0,0,0,18,18,18,,,,,,,,,,,,,,,,,,,,,,,,,,,,,,,,,,,,,,,,,,,,,,,,,,,,,,,,,,,,,,,,,,,,,,,,,,,,,,,,,,,,,,,,,,,,,,,,,,,,,,,,,172.53568909199976,177.51225071599993,,,,,,,111221,0,3,1,3,0,1,2,0,34,2021_Nov_12_1456,listening_fmri,3.2.4,60.253028979956696,
0,parcelated_audio/22/22_20.ogg,,,,,,,,,0,0,0,0,0,0,0,0,0,0,0,0,,,,,,,,,,,,,0,0,0,0,0,19,19,19,,,,,,,,,,,,,,,,,,,,,,,,,,,,,,,,,,,,,,,,,,,,,,,,,,,,,,,,,,,,,,,,,,,,,,,,,,,,,,,,,,,,,,,,,,,,,,,,,,,,,,,,,177.5125312289997,191.62633045899975,,,,,,,111221,0,3,1,3,0,1,2,0,34,2021_Nov_12_1456,listening_fmri,3.2.4,60.253028979956696,
0,parcelated_audio/22/22_21.ogg,,,,,,,,,0,0,0,0,0,0,0,0,0,0,0,0,,,,,,,,,,,,,0,0,0,0,0,20,20,20,,,,,,,,,,,,,,,,,,,,,,,,,,,,,,,,,,,,,,,,,,,,,,,,,,,,,,,,,,,,,,,,,,,,,,,,,,,,,,,,,,,,,,,,,,,,,,,,,,,,,,,,,191.62694296900008,193.6444619519998,,,,,,,111221,0,3,1,3,0,1,2,0,34,2021_Nov_12_1456,listening_fmri,3.2.4,60.253028979956696,
0,parcelated_audio/22/22_22.ogg,,,,,,,,,0,0,0,0,0,0,0,0,0,0,0,0,,,,,,,,,,,,,0,0,0,0,0,21,21,21,,,,,,,,,,,,,,,,,,,,,,,,,,,,,,,,,,,,,,,,,,,,,,,,,,,,,,,,,,,,,,,,,,,,,,,,,,,,,,,,,,,,,,,,,,,,,,,,,,,,,,,,,193.644775924,196.79660027699992,,,,,,,111221,0,3,1,3,0,1,2,0,34,2021_Nov_12_1456,listening_fmri,3.2.4,60.253028979956696,
0,parcelated_audio/22/22_23.ogg,,,,,,,,,0,0,0,0,0,0,0,0,0,0,0,0,,,,,,,,,,,,,0,0,0,0,0,22,22,22,,,,,,,,,,,,,,,,,,,,,,,,,,,,,,,,,,,,,,,,,,,,,,,,,,,,,,,,,,,,,,,,,,,,,,,,,,,,,,,,,,,,,,,,,,,,,,,,,,,,,,,,,196.79695375899973,203.32157300499966,,,,,,,111221,0,3,1,3,0,1,2,0,34,2021_Nov_12_1456,listening_fmri,3.2.4,60.253028979956696,
0,parcelated_audio/22/22_24.ogg,,,,,,,,,0,0,0,0,0,0,0,0,0,0,0,0,,,,,,,,,,,,,0,0,0,0,0,23,23,23,,,,,,,,,,,,,,,,,,,,,,,,,,,,,,,,,,,,,,,,,,,,,,,,,,,,,,,,,,,,,,,,,,,,,,,,,,,,,,,,,,,,,,,,,,,,,,,,,,,,,,,,,203.32192231199997,209.06721821499968,,,,,,,111221,0,3,1,3,0,1,2,0,34,2021_Nov_12_1456,listening_fmri,3.2.4,60.253028979956696,
0,parcelated_audio/22/22_25.ogg,,,,,,,,,0,0,0,0,0,0,0,0,0,0,0,0,,,,,,,,,,,,,0,0,0,0,0,24,24,24,,,,,,,,,,,,,,,,,,,,,,,,,,,,,,,,,,,,,,,,,,,,,,,,,,,,,,,,,,,,,,,,,,,,,,,,,,,,,,,,,,,,,,,,,,,,,,,,,,,,,,,,,209.0702942879998,221.76380276400005,,,,,,,111221,0,3,1,3,0,1,2,0,34,2021_Nov_12_1456,listening_fmri,3.2.4,60.253028979956696,
0,parcelated_audio/22/22_26.ogg,,,,,,,,,0,0,0,0,0,0,0,0,0,0,0,0,,,,,,,,,,,,,0,0,0,0,0,25,25,25,,,,,,,,,,,,,,,,,,,,,,,,,,,,,,,,,,,,,,,,,,,,,,,,,,,,,,,,,,,,,,,,,,,,,,,,,,,,,,,,,,,,,,,,,,,,,,,,,,,,,,,,,221.76415268499977,228.50665927,,,,,,,111221,0,3,1,3,0,1,2,0,34,2021_Nov_12_1456,listening_fmri,3.2.4,60.253028979956696,
0,parcelated_audio/22/22_27.ogg,,,,,,,,,0,0,0,0,0,0,0,0,0,0,0,0,,,,,,,,,,,,,0,0,0,0,0,26,26,26,,,,,,,,,,,,,,,,,,,,,,,,,,,,,,,,,,,,,,,,,,,,,,,,,,,,,,,,,,,,,,,,,,,,,,,,,,,,,,,,,,,,,,,,,,,,,,,,,,,,,,,,,228.50730911599976,232.9237396919998,,,,,,,111221,0,3,1,3,0,1,2,0,34,2021_Nov_12_1456,listening_fmri,3.2.4,60.253028979956696,
0,parcelated_audio/22/22_28.ogg,,,,,,,,,0,0,0,0,0,0,0,0,0,0,0,0,,,,,,,,,,,,,0,0,0,0,0,27,27,27,,,,,,,,,,,,,,,,,,,,,,,,,,,,,,,,,,,,,,,,,,,,,,,,,,,,,,,,,,,,,,,,,,,,,,,,,,,,,,,,,,,,,,,,,,,,,,,,,,,,,,,,,232.92449224699976,238.66567723699973,,,,,,,111221,0,3,1,3,0,1,2,0,34,2021_Nov_12_1456,listening_fmri,3.2.4,60.253028979956696,
0,parcelated_audio/22/22_29.ogg,,,,,,,,,0,0,0,0,0,0,0,0,0,0,0,0,,,,,,,,,,,,,0,0,0,0,0,28,28,28,,,,,,,,,,,,,,,,,,,,,,,,,,,,,,,,,,,,,,,,,,,,,,,,,,,,,,,,,,,,,,,,,,,,,,,,,,,,,,,,,,,,,,,,,,,,,,,,,,,,,,,,,238.66603150899982,244.3881258409997,,,,,,,111221,0,3,1,3,0,1,2,0,34,2021_Nov_12_1456,listening_fmri,3.2.4,60.253028979956696,
0,parcelated_audio/22/22_30.ogg,,,,,,,,,0,0,0,0,0,0,0,0,0,0,0,0,,,,,,,,,,,,,0,0,0,0,0,29,29,29,,,,,,,,,,,,,,,,,,,,,,,,,,,,,,,,,,,,,,,,,,,,,,,,,,,,,,,,,,,,,,,,,,,,,,,,,,,,,,,,,,,,,,,,,,,,,,,,,,,,,,,,,244.38858122099964,247.11724323099997,,,,,,,111221,0,3,1,3,0,1,2,0,34,2021_Nov_12_1456,listening_fmri,3.2.4,60.253028979956696,
0,parcelated_audio/22/22_31.ogg,,,,,,,,,0,0,0,0,0,0,0,0,0,0,0,0,,,,,,,,,,,,,0,0,0,0,0,30,30,30,,,,,,,,,,,,,,,,,,,,,,,,,,,,,,,,,,,,,,,,,,,,,,,,,,,,,,,,,,,,,,,,,,,,,,,,,,,,,,,,,,,,,,,,,,,,,,,,,,,,,,,,,247.11783126599994,252.2686711649999,,,,,,,111221,0,3,1,3,0,1,2,0,34,2021_Nov_12_1456,listening_fmri,3.2.4,60.253028979956696,
0,parcelated_audio/22/22_32.ogg,,,,,,,,,0,0,0,0,0,0,0,0,0,0,0,0,,,,,,,,,,,,,0,0,0,0,0,31,31,31,,,,,,,,,,,,,,,,,,,,,,,,,,,,,,,,,,,,,,,,,,,,,,,,,,,,,,,,,,,,,,,,,,,,,,,,,,,,,,,,,,,,,,,,,,,,,,,,,,,,,,,,,252.26909137599978,258.59696902999985,,,,,,,111221,0,3,1,3,0,1,2,0,34,2021_Nov_12_1456,listening_fmri,3.2.4,60.253028979956696,
0,parcelated_audio/22/22_33.ogg,,,,,,,,,0,0,0,0,0,0,0,0,0,0,0,0,,,,,,,,,,,,,0,0,0,0,0,32,32,32,,,,,,,,,,,,,,,,,,,,,,,,,,,,,,,,,,,,,,,,,,,,,,,,,,,,,,,,,,,,,,,,,,,,,,,,,,,,,,,,,,,,,,,,,,,,,,,,,,,,,,,,,258.5972805289998,263.04579183099986,,,,,,,111221,0,3,1,3,0,1,2,0,34,2021_Nov_12_1456,listening_fmri,3.2.4,60.253028979956696,
0,parcelated_audio/22/22_34.ogg,,,,,,,,,0,0,0,0,0,0,0,0,0,0,0,0,,,,,,,,,,,,,0,0,0,0,0,33,33,33,,,,,,,,,,,,,,,,,,,,,,,,,,,,,,,,,,,,,,,,,,,,,,,,,,,,,,,,,,,,,,,,,,,,,,,,,,,,,,,,,,,,,,,,,,,,,,,,,,,,,,,,,263.04612056199994,271.0984385329998,,,,,,,111221,0,3,1,3,0,1,2,0,34,2021_Nov_12_1456,listening_fmri,3.2.4,60.253028979956696,
0,parcelated_audio/22/22_35.ogg,,,,,,,,,0,0,0,0,0,0,0,0,0,0,0,0,,,,,,,,,,,,,0,0,0,0,0,34,34,34,,,,,,,,,,,,,,,,,,,,,,,,,,,,,,,,,,,,,,,,,,,,,,,,,,,,,,,,,,,,,,,,,,,,,,,,,,,,,,,,,,,,,,,,,,,,,,,,,,,,,,,,,271.0987668339999,278.63706542299997,,,,,,,111221,0,3,1,3,0,1,2,0,34,2021_Nov_12_1456,listening_fmri,3.2.4,60.253028979956696,
0,parcelated_audio/22/22_36.ogg,,,,,,,,,0,0,0,0,0,0,0,0,0,0,0,0,,,,,,,,,,,,,0,0,0,0,0,35,35,35,,,,,,,,,,,,,,,,,,,,,,,,,,,,,,,,,,,,,,,,,,,,,,,,,,,,,,,,,,,,,,,,,,,,,,,,,,,,,,,,,,,,,,,,,,,,,,,,,,,,,,,,,278.6373381919998,291.3582697749998,,,,,,,111221,0,3,1,3,0,1,2,0,34,2021_Nov_12_1456,listening_fmri,3.2.4,60.253028979956696,
0,parcelated_audio/22/22_37.ogg,,,,,,,,,0,0,0,0,0,0,0,0,0,0,0,0,,,,,,,,,,,,,0,0,0,0,0,36,36,36,,,,,,,,,,,,,,,,,,,,,,,,,,,,,,,,,,,,,,,,,,,,,,,,,,,,,,,,,,,,,,,,,,,,,,,,,,,,,,,,,,,,,,,,,,,,,,,,,,,,,,,,,291.35855839999977,298.5462928369998,,,,,,,111221,0,3,1,3,0,1,2,0,34,2021_Nov_12_1456,listening_fmri,3.2.4,60.253028979956696,
0,,,,,,,,,,0,0,0,0,0,0,0,0,0,0,0,0,,,,,,,,,,,,,0,0,0,0,,,,,,,,,,,,,,,,,,,,,,,,,,,,,,,,,,,,,,,,,,,,,,,,,,,,,,,,,,,,,,,,,,,,,,,,,,,,,,,,,,,,,,,,,,,,,,,,,,,,,,,,,,,,,,,,,,,,,111221,0,3,1,3,0,1,2,0,34,2021_Nov_12_1456,listening_fmri,3.2.4,60.253028979956696,
0,,,,,,,,,,0,0,0,0,0,0,0,0,0,0,0,0,,,,,,,,,,,,,,,,,,,,,,,,,,,,,,,,,,,,,,,,,,298.54666733099975,304.5332638289997,339.7250185839998,None,,,,,,,,,,,,,,,,,,,,,,,,,,,,,,,,,,,,,,,,,,,,,,,,,,,,,,,,,,,,,,,,,,,,,,,,,,,,,,,,,,345.73518449899984,None,345.73518449899984,None,,,111221,0,3,1,3,0,1,2,0,34,2021_Nov_12_1456,listening_fmri,3.2.4,60.253028979956696,
0,,,,,,,,,,0,0,0,0,0,0,0,0,,,,,,,,,,,,,,,,,,,,,,,,,,,,,,,,,,,,,,,,,,,,,,,,,,,,,,,,,,,,,,,,,,,,,,,,,,,,,,,,,,,,,,,,,,,,,,,,,,,,,,,,,,,,,,,,,,,,,,,,,,,,,,,,,,,,,,,,,111221,0,3,1,3,0,1,2,0,34,2021_Nov_12_1456,listening_fmri,3.2.4,60.253028979956696,
1,parcelated_audio/33/33_1.ogg,,,,,,,,,0,0,0,0,0,1,1,1,0,0,0,0,,,,,,,,,,,,,0,0,0,0,0,0,0,0,,,,,,,,,,,,,,,,,,,,,,,,,,346.735680067,None,346.735680067,None,5,0.4329574930002309,346.735680067,None,346.735680067,None,,,,,,,,,,,,,,,,,,,,,,,,,,,,,,,,,,,,,,,,,,,,,,,,,,,,,,,,,,,,,,347.192807937,None,5,0.9756294670000898,347.192807937,None,307.00790812199966,310.0169007149998,310.0223459199997,319.99231476299974,,,,,,,111221,0,3,1,3,0,1,2,0,34,2021_Nov_12_1456,listening_fmri,3.2.4,60.253028979956696,
1,parcelated_audio/33/33_2.ogg,,,,,,,,,0,0,0,0,0,1,1,1,0,0,0,0,,,,,,,,,,,,,0,0,0,0,0,1,1,1,,,,,,,,,,,,,,,,,,,,,,,,,,,,,,,,,,,,,,,,,,,,,,,,,,,,,,,,,,,,,,,,,,,,,,,,,,,,,,,,,,,,,,,,,,,,,,,,,,,,,,,,,319.9932267659997,330.4395582679999,,,,,,,111221,0,3,1,3,0,1,2,0,34,2021_Nov_12_1456,listening_fmri,3.2.4,60.253028979956696,
1,parcelated_audio/33/33_3.ogg,,,,,,,,,0,0,0,0,0,1,1,1,0,0,0,0,,,,,,,,,,,,,0,0,0,0,0,2,2,2,,,,,,,,,,,,,,,,,,,,,,,,,,,,,,,,,,,,,,,,,,,,,,,,,,,,,,,,,,,,,,,,,,,,,,,,,,,,,,,,,,,,,,,,,,,,,,,,,,,,,,,,,330.4399403709999,336.99845056999993,,,,,,,111221,0,3,1,3,0,1,2,0,34,2021_Nov_12_1456,listening_fmri,3.2.4,60.253028979956696,
1,parcelated_audio/33/33_4.ogg,,,,,,,,,0,0,0,0,0,1,1,1,0,0,0,0,,,,,,,,,,,,,0,0,0,0,0,3,3,3,,,,,,,,,,,,,,,,,,,,,,,,,,,,,,,,,,,,,,,,,,,,,,,,,,,,,,,,,,,,,,,,,,,,,,,,,,,,,,,,,,,,,,,,,,,,,,,,,,,,,,,,,336.9988718499999,340.5893454719999,,,,,,,111221,0,3,1,3,0,1,2,0,34,2021_Nov_12_1456,listening_fmri,3.2.4,60.253028979956696,
1,parcelated_audio/33/33_5.ogg,,,,,,,,,0,0,0,0,0,1,1,1,0,0,0,0,,,,,,,,,,,,,0,0,0,0,0,4,4,4,,,,,,,,,,,,,,,,,,,,,,,,,,,,,,,,,,,,,,,,,,,,,,,,,,,,,,,,,,,,,,,,,,,,,,,,,,,,,,,,,,,,,,,,,,,,,,,,,,,,,,,,,340.58971913100004,351.8475450279998,,,,,,,111221,0,3,1,3,0,1,2,0,34,2021_Nov_12_1456,listening_fmri,3.2.4,60.253028979956696,
1,parcelated_audio/33/33_6.ogg,,,,,,,,,0,0,0,0,0,1,1,1,0,0,0,0,,,,,,,,,,,,,0,0,0,0,0,5,5,5,,,,,,,,,,,,,,,,,,,,,,,,,,,,,,,,,,,,,,,,,,,,,,,,,,,,,,,,,,,,,,,,,,,,,,,,,,,,,,,,,,,,,,,,,,,,,,,,,,,,,,,,,351.84789257099965,363.54480431599995,,,,,,,111221,0,3,1,3,0,1,2,0,34,2021_Nov_12_1456,listening_fmri,3.2.4,60.253028979956696,
1,parcelated_audio/33/33_7.ogg,,,,,,,,,0,0,0,0,0,1,1,1,0,0,0,0,,,,,,,,,,,,,0,0,0,0,0,6,6,6,,,,,,,,,,,,,,,,,,,,,,,,,,,,,,,,,,,,,,,,,,,,,,,,,,,,,,,,,,,,,,,,,,,,,,,,,,,,,,,,,,,,,,,,,,,,,,,,,,,,,,,,,363.54513119199964,378.10739771399994,,,,,,,111221,0,3,1,3,0,1,2,0,34,2021_Nov_12_1456,listening_fmri,3.2.4,60.253028979956696,
1,parcelated_audio/33/33_8.ogg,,,,,,,,,0,0,0,0,0,1,1,1,0,0,0,0,,,,,,,,,,,,,0,0,0,0,0,7,7,7,,,,,,,,,,,,,,,,,,,,,,,,,,,,,,,,,,,,,,,,,,,,,,,,,,,,,,,,,,,,,,,,,,,,,,,,,,,,,,,,,,,,,,,,,,,,,,,,,,,,,,,,,378.10766647399987,384.2557624020001,,,,,,,111221,0,3,1,3,0,1,2,0,34,2021_Nov_12_1456,listening_fmri,3.2.4,60.253028979956696,
1,parcelated_audio/33/33_9.ogg,,,,,,,,,0,0,0,0,0,1,1,1,0,0,0,0,,,,,,,,,,,,,0,0,0,0,0,8,8,8,,,,,,,,,,,,,,,,,,,,,,,,,,,,,,,,,,,,,,,,,,,,,,,,,,,,,,,,,,,,,,,,,,,,,,,,,,,,,,,,,,,,,,,,,,,,,,,,,,,,,,,,,384.25635242,388.02053074800006,,,,,,,111221,0,3,1,3,0,1,2,0,34,2021_Nov_12_1456,listening_fmri,3.2.4,60.253028979956696,
1,parcelated_audio/33/33_10.ogg,,,,,,,,,0,0,0,0,0,1,1,1,0,0,0,0,,,,,,,,,,,,,0,0,0,0,0,9,9,9,,,,,,,,,,,,,,,,,,,,,,,,,,,,,,,,,,,,,,,,,,,,,,,,,,,,,,,,,,,,,,,,,,,,,,,,,,,,,,,,,,,,,,,,,,,,,,,,,,,,,,,,,388.0207870549998,393.3915372809997,,,,,,,111221,0,3,1,3,0,1,2,0,34,2021_Nov_12_1456,listening_fmri,3.2.4,60.253028979956696,
1,parcelated_audio/33/33_11.ogg,,,,,,,,,0,0,0,0,0,1,1,1,0,0,0,0,,,,,,,,,,,,,0,0,0,0,0,10,10,10,,,,,,,,,,,,,,,,,,,,,,,,,,,,,,,,,,,,,,,,,,,,,,,,,,,,,,,,,,,,,,,,,,,,,,,,,,,,,,,,,,,,,,,,,,,,,,,,,,,,,,,,,393.3918168969999,407.83185714499996,,,,,,,111221,0,3,1,3,0,1,2,0,34,2021_Nov_12_1456,listening_fmri,3.2.4,60.253028979956696,
1,parcelated_audio/33/33_12.ogg,,,,,,,,,0,0,0,0,0,1,1,1,0,0,0,0,,,,,,,,,,,,,0,0,0,0,0,11,11,11,,,,,,,,,,,,,,,,,,,,,,,,,,,,,,,,,,,,,,,,,,,,,,,,,,,,,,,,,,,,,,,,,,,,,,,,,,,,,,,,,,,,,,,,,,,,,,,,,,,,,,,,,407.832105253,413.9433843419997,,,,,,,111221,0,3,1,3,0,1,2,0,34,2021_Nov_12_1456,listening_fmri,3.2.4,60.253028979956696,
1,parcelated_audio/33/33_13.ogg,,,,,,,,,0,0,0,0,0,1,1,1,0,0,0,0,,,,,,,,,,,,,0,0,0,0,0,12,12,12,,,,,,,,,,,,,,,,,,,,,,,,,,,,,,,,,,,,,,,,,,,,,,,,,,,,,,,,,,,,,,,,,,,,,,,,,,,,,,,,,,,,,,,,,,,,,,,,,,,,,,,,,413.94366868399993,421.3461903919997,,,,,,,111221,0,3,1,3,0,1,2,0,34,2021_Nov_12_1456,listening_fmri,3.2.4,60.253028979956696,
1,parcelated_audio/33/33_14.ogg,,,,,,,,,0,0,0,0,0,1,1,1,0,0,0,0,,,,,,,,,,,,,0,0,0,0,0,13,13,13,,,,,,,,,,,,,,,,,,,,,,,,,,,,,,,,,,,,,,,,,,,,,,,,,,,,,,,,,,,,,,,,,,,,,,,,,,,,,,,,,,,,,,,,,,,,,,,,,,,,,,,,,421.34651948400005,433.780406806,,,,,,,111221,0,3,1,3,0,1,2,0,34,2021_Nov_12_1456,listening_fmri,3.2.4,60.253028979956696,
1,parcelated_audio/33/33_15.ogg,,,,,,,,,0,0,0,0,0,1,1,1,0,0,0,0,,,,,,,,,,,,,0,0,0,0,0,14,14,14,,,,,,,,,,,,,,,,,,,,,,,,,,,,,,,,,,,,,,,,,,,,,,,,,,,,,,,,,,,,,,,,,,,,,,,,,,,,,,,,,,,,,,,,,,,,,,,,,,,,,,,,,433.78066089899994,452.31674688099974,,,,,,,111221,0,3,1,3,0,1,2,0,34,2021_Nov_12_1456,listening_fmri,3.2.4,60.253028979956696,
1,parcelated_audio/33/33_16.ogg,,,,,,,,,0,0,0,0,0,1,1,1,0,0,0,0,,,,,,,,,,,,,0,0,0,0,0,15,15,15,,,,,,,,,,,,,,,,,,,,,,,,,,,,,,,,,,,,,,,,,,,,,,,,,,,,,,,,,,,,,,,,,,,,,,,,,,,,,,,,,,,,,,,,,,,,,,,,,,,,,,,,,452.3171068839997,464.5545365799999,,,,,,,111221,0,3,1,3,0,1,2,0,34,2021_Nov_12_1456,listening_fmri,3.2.4,60.253028979956696,
1,parcelated_audio/33/33_17.ogg,,,,,,,,,0,0,0,0,0,1,1,1,0,0,0,0,,,,,,,,,,,,,0,0,0,0,0,16,16,16,,,,,,,,,,,,,,,,,,,,,,,,,,,,,,,,,,,,,,,,,,,,,,,,,,,,,,,,,,,,,,,,,,,,,,,,,,,,,,,,,,,,,,,,,,,,,,,,,,,,,,,,,464.5549576220001,475.78926425500003,,,,,,,111221,0,3,1,3,0,1,2,0,34,2021_Nov_12_1456,listening_fmri,3.2.4,60.253028979956696,
1,parcelated_audio/33/33_18.ogg,,,,,,,,,0,0,0,0,0,1,1,1,0,0,0,0,,,,,,,,,,,,,0,0,0,0,0,17,17,17,,,,,,,,,,,,,,,,,,,,,,,,,,,,,,,,,,,,,,,,,,,,,,,,,,,,,,,,,,,,,,,,,,,,,,,,,,,,,,,,,,,,,,,,,,,,,,,,,,,,,,,,,475.7897351839997,484.2541235419999,,,,,,,111221,0,3,1,3,0,1,2,0,34,2021_Nov_12_1456,listening_fmri,3.2.4,60.253028979956696,
1,parcelated_audio/33/33_19.ogg,,,,,,,,,0,0,0,0,0,1,1,1,0,0,0,0,,,,,,,,,,,,,0,0,0,0,0,18,18,18,,,,,,,,,,,,,,,,,,,,,,,,,,,,,,,,,,,,,,,,,,,,,,,,,,,,,,,,,,,,,,,,,,,,,,,,,,,,,,,,,,,,,,,,,,,,,,,,,,,,,,,,,484.2544988249997,487.7036716140001,,,,,,,111221,0,3,1,3,0,1,2,0,34,2021_Nov_12_1456,listening_fmri,3.2.4,60.253028979956696,
1,parcelated_audio/33/33_20.ogg,,,,,,,,,0,0,0,0,0,1,1,1,0,0,0,0,,,,,,,,,,,,,0,0,0,0,0,19,19,19,,,,,,,,,,,,,,,,,,,,,,,,,,,,,,,,,,,,,,,,,,,,,,,,,,,,,,,,,,,,,,,,,,,,,,,,,,,,,,,,,,,,,,,,,,,,,,,,,,,,,,,,,487.7041315040001,494.58580387899974,,,,,,,111221,0,3,1,3,0,1,2,0,34,2021_Nov_12_1456,listening_fmri,3.2.4,60.253028979956696,
1,parcelated_audio/33/33_21.ogg,,,,,,,,,0,0,0,0,0,1,1,1,0,0,0,0,,,,,,,,,,,,,0,0,0,0,0,20,20,20,,,,,,,,,,,,,,,,,,,,,,,,,,,,,,,,,,,,,,,,,,,,,,,,,,,,,,,,,,,,,,,,,,,,,,,,,,,,,,,,,,,,,,,,,,,,,,,,,,,,,,,,,494.586155644,498.6356080759997,,,,,,,111221,0,3,1,3,0,1,2,0,34,2021_Nov_12_1456,listening_fmri,3.2.4,60.253028979956696,
1,parcelated_audio/33/33_22.ogg,,,,,,,,,0,0,0,0,0,1,1,1,0,0,0,0,,,,,,,,,,,,,0,0,0,0,0,21,21,21,,,,,,,,,,,,,,,,,,,,,,,,,,,,,,,,,,,,,,,,,,,,,,,,,,,,,,,,,,,,,,,,,,,,,,,,,,,,,,,,,,,,,,,,,,,,,,,,,,,,,,,,,498.6359259339997,510.48273076099986,,,,,,,111221,0,3,1,3,0,1,2,0,34,2021_Nov_12_1456,listening_fmri,3.2.4,60.253028979956696,
1,parcelated_audio/33/33_23.ogg,,,,,,,,,0,0,0,0,0,1,1,1,0,0,0,0,,,,,,,,,,,,,0,0,0,0,0,22,22,22,,,,,,,,,,,,,,,,,,,,,,,,,,,,,,,,,,,,,,,,,,,,,,,,,,,,,,,,,,,,,,,,,,,,,,,,,,,,,,,,,,,,,,,,,,,,,,,,,,,,,,,,,510.4830066549998,520.9834907239997,,,,,,,111221,0,3,1,3,0,1,2,0,34,2021_Nov_12_1456,listening_fmri,3.2.4,60.253028979956696,
1,parcelated_audio/33/33_24.ogg,,,,,,,,,0,0,0,0,0,1,1,1,0,0,0,0,,,,,,,,,,,,,0,0,0,0,0,23,23,23,,,,,,,,,,,,,,,,,,,,,,,,,,,,,,,,,,,,,,,,,,,,,,,,,,,,,,,,,,,,,,,,,,,,,,,,,,,,,,,,,,,,,,,,,,,,,,,,,,,,,,,,,520.9839839450001,527.2501949549996,,,,,,,111221,0,3,1,3,0,1,2,0,34,2021_Nov_12_1456,listening_fmri,3.2.4,60.253028979956696,
1,parcelated_audio/33/33_25.ogg,,,,,,,,,0,0,0,0,0,1,1,1,0,0,0,0,,,,,,,,,,,,,0,0,0,0,0,24,24,24,,,,,,,,,,,,,,,,,,,,,,,,,,,,,,,,,,,,,,,,,,,,,,,,,,,,,,,,,,,,,,,,,,,,,,,,,,,,,,,,,,,,,,,,,,,,,,,,,,,,,,,,,527.2504655049997,535.4653056949996,,,,,,,111221,0,3,1,3,0,1,2,0,34,2021_Nov_12_1456,listening_fmri,3.2.4,60.253028979956696,
1,parcelated_audio/33/33_26.ogg,,,,,,,,,0,0,0,0,0,1,1,1,0,0,0,0,,,,,,,,,,,,,0,0,0,0,0,25,25,25,,,,,,,,,,,,,,,,,,,,,,,,,,,,,,,,,,,,,,,,,,,,,,,,,,,,,,,,,,,,,,,,,,,,,,,,,,,,,,,,,,,,,,,,,,,,,,,,,,,,,,,,,535.4656373469998,542.5362679039999,,,,,,,111221,0,3,1,3,0,1,2,0,34,2021_Nov_12_1456,listening_fmri,3.2.4,60.253028979956696,
1,parcelated_audio/33/33_27.ogg,,,,,,,,,0,0,0,0,0,1,1,1,0,0,0,0,,,,,,,,,,,,,0,0,0,0,0,26,26,26,,,,,,,,,,,,,,,,,,,,,,,,,,,,,,,,,,,,,,,,,,,,,,,,,,,,,,,,,,,,,,,,,,,,,,,,,,,,,,,,,,,,,,,,,,,,,,,,,,,,,,,,,542.5365534079997,550.0851396519997,,,,,,,111221,0,3,1,3,0,1,2,0,34,2021_Nov_12_1456,listening_fmri,3.2.4,60.253028979956696,
1,parcelated_audio/33/33_28.ogg,,,,,,,,,0,0,0,0,0,1,1,1,0,0,0,0,,,,,,,,,,,,,0,0,0,0,0,27,27,27,,,,,,,,,,,,,,,,,,,,,,,,,,,,,,,,,,,,,,,,,,,,,,,,,,,,,,,,,,,,,,,,,,,,,,,,,,,,,,,,,,,,,,,,,,,,,,,,,,,,,,,,,550.0854127409998,555.7702105809999,,,,,,,111221,0,3,1,3,0,1,2,0,34,2021_Nov_12_1456,listening_fmri,3.2.4,60.253028979956696,
1,parcelated_audio/33/33_29.ogg,,,,,,,,,0,0,0,0,0,1,1,1,0,0,0,0,,,,,,,,,,,,,0,0,0,0,0,28,28,28,,,,,,,,,,,,,,,,,,,,,,,,,,,,,,,,,,,,,,,,,,,,,,,,,,,,,,,,,,,,,,,,,,,,,,,,,,,,,,,,,,,,,,,,,,,,,,,,,,,,,,,,,555.7704775319999,563.688481871,,,,,,,111221,0,3,1,3,0,1,2,0,34,2021_Nov_12_1456,listening_fmri,3.2.4,60.253028979956696,
1,parcelated_audio/33/33_30.ogg,,,,,,,,,0,0,0,0,0,1,1,1,0,0,0,0,,,,,,,,,,,,,0,0,0,0,0,29,29,29,,,,,,,,,,,,,,,,,,,,,,,,,,,,,,,,,,,,,,,,,,,,,,,,,,,,,,,,,,,,,,,,,,,,,,,,,,,,,,,,,,,,,,,,,,,,,,,,,,,,,,,,,563.6890285559998,578.6668234989997,,,,,,,111221,0,3,1,3,0,1,2,0,34,2021_Nov_12_1456,listening_fmri,3.2.4,60.253028979956696,
1,parcelated_audio/33/33_31.ogg,,,,,,,,,0,0,0,0,0,1,1,1,0,0,0,0,,,,,,,,,,,,,0,0,0,0,0,30,30,30,,,,,,,,,,,,,,,,,,,,,,,,,,,,,,,,,,,,,,,,,,,,,,,,,,,,,,,,,,,,,,,,,,,,,,,,,,,,,,,,,,,,,,,,,,,,,,,,,,,,,,,,,578.6671379499999,588.4141728059999,,,,,,,111221,0,3,1,3,0,1,2,0,34,2021_Nov_12_1456,listening_fmri,3.2.4,60.253028979956696,
1,parcelated_audio/33/33_32.ogg,,,,,,,,,0,0,0,0,0,1,1,1,0,0,0,0,,,,,,,,,,,,,0,0,0,0,0,31,31,31,,,,,,,,,,,,,,,,,,,,,,,,,,,,,,,,,,,,,,,,,,,,,,,,,,,,,,,,,,,,,,,,,,,,,,,,,,,,,,,,,,,,,,,,,,,,,,,,,,,,,,,,,588.4146722299997,594.051148728,,,,,,,111221,0,3,1,3,0,1,2,0,34,2021_Nov_12_1456,listening_fmri,3.2.4,60.253028979956696,
1,,,,,,,,,,0,0,0,0,0,1,1,1,0,0,0,0,,,,,,,,,,,,,0,0,0,0,,,,,,,,,,,,,,,,,,,,,,,,,,,,,,,,,,,,,,,,,,,,,,,,,,,,,,,,,,,,,,,,,,,,,,,,,,,,,,,,,,,,,,,,,,,,,,,,,,,,,,,,,,,,,,,,,,,,,111221,0,3,1,3,0,1,2,0,34,2021_Nov_12_1456,listening_fmri,3.2.4,60.253028979956696,
1,,,,,,,,,,0,0,0,0,0,1,1,1,0,0,0,0,,,,,,,,,,,,,,,,,,,,,,,,,,,,,,,,,,,,,,,,,,594.0515866689998,600.0556939899998,635.2304663569998,None,,,,,,,,,,,,,,,,,,,,,,,,,,,,,,,,,,,,,,,,,,,,,,,,,,,,,,,,,,,,,,,,,,,,,,,,,,,,,,,,,,641.242889441,None,641.242889441,None,,,111221,0,3,1,3,0,1,2,0,34,2021_Nov_12_1456,listening_fmri,3.2.4,60.253028979956696,
1,,,,,,,,,,0,0,0,0,0,1,1,1,,,,,,,,,,,,,,,,,,,,,,,,,,,,,,,,,,,,,,,,,,,,,,,,,,,,,,,,,,,,,,,,,,,,,,,,,,,,,,,,,,,,,,,,,,,,,,,,,,,,,,,,,,,,,,,,,,,,,,,,,,,,,,,,,,,,,,,,,111221,0,3,1,3,0,1,2,0,34,2021_Nov_12_1456,listening_fmri,3.2.4,60.253028979956696,
2,,,,,,,,,,0,0,0,0,0,2,2,2,0,0,0,0,0,0,0,0,0,0,0,0,,,,,,,,,,,,,,,,,,,,,,,,,,,,,,,,,,,,,,642.259768546,None,642.259768546,None,5,0.9058314720000453,642.259768546,None,642.259768546,None,643.193273418,None,5,0.9723378840003534,643.193273418,None,643.193273418,None,644.2096227279999,None,644.2096227279999,None,644.2096227279999,None,5,0.9559788410001602,644.2096227279999,None,645.1936801679999,None,5,0.9719458919998942,645.1936801679999,None,645.1936801679999,None,646.2751978450001,None,646.2751978450001,None,646.2751978450001,None,646.2751978450001,None,646.2751978450001,None,646.2751978450001,None,646.2751978450001,None,None,646.2751978450001,None,,,,,,,,,,,,,,,,,,,,,,,,,,,,,,,,,,,111221,0,3,1,3,0,1,2,0,34,2021_Nov_12_1456,listening_fmri,3.2.4,60.253028979956696,
2,,,,,,,,,,0,0,0,0,0,2,2,2,0,0,0,0,0,0,0,0,,,,,,,,,,,,,,,,,,,,,,,,,,,,,,,,,,,,,,,,,,,,,,,,,,,,,,,,,,,,,,,,,,,,,,,,,,,,,,,,,,,,,,,,,,,,,,,662.4100284279998,None,5,0.755493848000242,662.4100284279998,None,662.4100284279998,None,663.2094605980001,None,663.2094605980001,None,663.2094605980001,None,5,0.9560461420001047,663.2094605980001,None,,,,,,,,,,,,,,,,,111221,0,3,1,3,0,1,2,0,34,2021_Nov_12_1456,listening_fmri,3.2.4,60.253028979956696,
2,parcelated_audio/11/11_1.ogg,,,,,,,,,0,0,0,0,0,2,2,2,0,0,0,0,,,,,,,,,,,,,0,0,0,0,0,0,0,0,,,,,,,,,,,,,,,,,,,,,,,,,,,,,,,,,,,,,,,,,,,,,,,,,,,,,,,,,,,,,,,,,,,,,,,,,,,,,,,,,,,,,,,,,,,,,,,,,664.1922620370001,None,3,0.12026540699980615,664.1922620370001,None,623.1576475930001,626.1673141369997,626.1781403629998,638.2564520749997,,,,,,,111221,0,3,1,3,0,1,2,0,34,2021_Nov_12_1456,listening_fmri,3.2.4,60.253028979956696,
2,parcelated_audio/11/11_2.ogg,,,,,,,,,0,0,0,0,0,2,2,2,0,0,0,0,,,,,,,,,,,,,0,0,0,0,0,1,1,1,,,,,,,,,,,,,,,,,,,,,,,,,,,,,,,,,,,,,,,,,,,,,,,,,,,,,,,,,,,,,,,,,,,,,,,,,,,,,,,,,,,,,,,,,,,,,,,,,,,,,,,,,638.2573964029998,642.7454878109997,,,,,,,111221,0,3,1,3,0,1,2,0,34,2021_Nov_12_1456,listening_fmri,3.2.4,60.253028979956696,
2,parcelated_audio/11/11_3.ogg,,,,,,,,,0,0,0,0,0,2,2,2,0,0,0,0,,,,,,,,,,,,,0,0,0,0,0,2,2,2,,,,,,,,,,,,,,,,,,,,,,,,,,,,,,,,,,,,,,,,,,,,,,,,,,,,,,,,,,,,,,,,,,,,,,,,,,,,,,,,,,,,,,,,,,,,,,,,,,,,,,,,,642.7459355679998,647.75168248,,,,,,,111221,0,3,1,3,0,1,2,0,34,2021_Nov_12_1456,listening_fmri,3.2.4,60.253028979956696,
2,parcelated_audio/11/11_4.ogg,,,,,,,,,0,0,0,0,0,2,2,2,0,0,0,0,,,,,,,,,,,,,0,0,0,0,0,3,3,3,,,,,,,,,,,,,,,,,,,,,,,,,,,,,,,,,,,,,,,,,,,,,,,,,,,,,,,,,,,,,,,,,,,,,,,,,,,,,,,,,,,,,,,,,,,,,,,,,,,,,,,,,647.7520378569998,656.8530378659998,,,,,,,111221,0,3,1,3,0,1,2,0,34,2021_Nov_12_1456,listening_fmri,3.2.4,60.253028979956696,
2,parcelated_audio/11/11_5.ogg,,,,,,,,,0,0,0,0,0,2,2,2,0,0,0,0,,,,,,,,,,,,,0,0,0,0,0,4,4,4,,,,,,,,,,,,,,,,,,,,,,,,,,,,,,,,,,,,,,,,,,,,,,,,,,,,,,,,,,,,,,,,,,,,,,,,,,,,,,,,,,,,,,,,,,,,,,,,,,,,,,,,,656.8534850709998,662.603772728,,,,,,,111221,0,3,1,3,0,1,2,0,34,2021_Nov_12_1456,listening_fmri,3.2.4,60.253028979956696,
2,parcelated_audio/11/11_6.ogg,,,,,,,,,0,0,0,0,0,2,2,2,0,0,0,0,,,,,,,,,,,,,0,0,0,0,0,5,5,5,,,,,,,,,,,,,,,,,,,,,,,,,,,,,,,,,,,,,,,,,,,,,,,,,,,,,,,,,,,,,,,,,,,,,,,,,,,,,,,,,,,,,,,,,,,,,,,,,,,,,,,,,662.6041199249998,667.1966529689998,,,,,,,111221,0,3,1,3,0,1,2,0,34,2021_Nov_12_1456,listening_fmri,3.2.4,60.253028979956696,
2,parcelated_audio/11/11_7.ogg,,,,,,,,,0,0,0,0,0,2,2,2,0,0,0,0,,,,,,,,,,,,,0,0,0,0,0,6,6,6,,,,,,,,,,,,,,,,,,,,,,,,,,,,,,,,,,,,,,,,,,,,,,,,,,,,,,,,,,,,,,,,,,,,,,,,,,,,,,,,,,,,,,,,,,,,,,,,,,,,,,,,,667.1974014839998,673.7425250480001,,,,,,,111221,0,3,1,3,0,1,2,0,34,2021_Nov_12_1456,listening_fmri,3.2.4,60.253028979956696,
2,parcelated_audio/11/11_8.ogg,,,,,,,,,0,0,0,0,0,2,2,2,0,0,0,0,,,,,,,,,,,,,0,0,0,0,0,7,7,7,,,,,,,,,,,,,,,,,,,,,,,,,,,,,,,,,,,,,,,,,,,,,,,,,,,,,,,,,,,,,,,,,,,,,,,,,,,,,,,,,,,,,,,,,,,,,,,,,,,,,,,,,673.7428786679998,679.5216939289999,,,,,,,111221,0,3,1,3,0,1,2,0,34,2021_Nov_12_1456,listening_fmri,3.2.4,60.253028979956696,
2,parcelated_audio/11/11_9.ogg,,,,,,,,,0,0,0,0,0,2,2,2,0,0,0,0,,,,,,,,,,,,,0,0,0,0,0,8,8,8,,,,,,,,,,,,,,,,,,,,,,,,,,,,,,,,,,,,,,,,,,,,,,,,,,,,,,,,,,,,,,,,,,,,,,,,,,,,,,,,,,,,,,,,,,,,,,,,,,,,,,,,,679.5221705669996,683.837354622,,,,,,,111221,0,3,1,3,0,1,2,0,34,2021_Nov_12_1456,listening_fmri,3.2.4,60.253028979956696,
2,parcelated_audio/11/11_10.ogg,,,,,,,,,0,0,0,0,0,2,2,2,0,0,0,0,,,,,,,,,,,,,0,0,0,0,0,9,9,9,,,,,,,,,,,,,,,,,,,,,,,,,,,,,,,,,,,,,,,,,,,,,,,,,,,,,,,,,,,,,,,,,,,,,,,,,,,,,,,,,,,,,,,,,,,,,,,,,,,,,,,,,683.8377700269998,688.4170408479999,,,,,,,111221,0,3,1,3,0,1,2,0,34,2021_Nov_12_1456,listening_fmri,3.2.4,60.253028979956696,
2,parcelated_audio/11/11_11.ogg,,,,,,,,,0,0,0,0,0,2,2,2,0,0,0,0,,,,,,,,,,,,,0,0,0,0,0,10,10,10,,,,,,,,,,,,,,,,,,,,,,,,,,,,,,,,,,,,,,,,,,,,,,,,,,,,,,,,,,,,,,,,,,,,,,,,,,,,,,,,,,,,,,,,,,,,,,,,,,,,,,,,,688.4173477919999,691.5982462689999,,,,,,,111221,0,3,1,3,0,1,2,0,34,2021_Nov_12_1456,listening_fmri,3.2.4,60.253028979956696,
2,parcelated_audio/11/11_12.ogg,,,,,,,,,0,0,0,0,0,2,2,2,0,0,0,0,,,,,,,,,,,,,0,0,0,0,0,11,11,11,,,,,,,,,,,,,,,,,,,,,,,,,,,,,,,,,,,,,,,,,,,,,,,,,,,,,,,,,,,,,,,,,,,,,,,,,,,,,,,,,,,,,,,,,,,,,,,,,,,,,,,,,691.5985574299998,694.4261656889998,,,,,,,111221,0,3,1,3,0,1,2,0,34,2021_Nov_12_1456,listening_fmri,3.2.4,60.253028979956696,
2,parcelated_audio/11/11_13.ogg,,,,,,,,,0,0,0,0,0,2,2,2,0,0,0,0,,,,,,,,,,,,,0,0,0,0,0,12,12,12,,,,,,,,,,,,,,,,,,,,,,,,,,,,,,,,,,,,,,,,,,,,,,,,,,,,,,,,,,,,,,,,,,,,,,,,,,,,,,,,,,,,,,,,,,,,,,,,,,,,,,,,,694.4265370839998,697.7533163620001,,,,,,,111221,0,3,1,3,0,1,2,0,34,2021_Nov_12_1456,listening_fmri,3.2.4,60.253028979956696,
2,parcelated_audio/11/11_14.ogg,,,,,,,,,0,0,0,0,0,2,2,2,0,0,0,0,,,,,,,,,,,,,0,0,0,0,0,13,13,13,,,,,,,,,,,,,,,,,,,,,,,,,,,,,,,,,,,,,,,,,,,,,,,,,,,,,,,,,,,,,,,,,,,,,,,,,,,,,,,,,,,,,,,,,,,,,,,,,,,,,,,,,697.7535964179997,700.4562058399997,,,,,,,111221,0,3,1,3,0,1,2,0,34,2021_Nov_12_1456,listening_fmri,3.2.4,60.253028979956696,
2,parcelated_audio/11/11_15.ogg,,,,,,,,,0,0,0,0,0,2,2,2,0,0,0,0,,,,,,,,,,,,,0,0,0,0,0,14,14,14,,,,,,,,,,,,,,,,,,,,,,,,,,,,,,,,,,,,,,,,,,,,,,,,,,,,,,,,,,,,,,,,,,,,,,,,,,,,,,,,,,,,,,,,,,,,,,,,,,,,,,,,,700.4565230549997,711.6373296839997,,,,,,,111221,0,3,1,3,0,1,2,0,34,2021_Nov_12_1456,listening_fmri,3.2.4,60.253028979956696,
2,parcelated_audio/11/11_16.ogg,,,,,,,,,0,0,0,0,0,2,2,2,0,0,0,0,,,,,,,,,,,,,0,0,0,0,0,15,15,15,,,,,,,,,,,,,,,,,,,,,,,,,,,,,,,,,,,,,,,,,,,,,,,,,,,,,,,,,,,,,,,,,,,,,,,,,,,,,,,,,,,,,,,,,,,,,,,,,,,,,,,,,711.637940824,714.6396841679998,,,,,,,111221,0,3,1,3,0,1,2,0,34,2021_Nov_12_1456,listening_fmri,3.2.4,60.253028979956696,
2,parcelated_audio/11/11_17.ogg,,,,,,,,,0,0,0,0,0,2,2,2,0,0,0,0,,,,,,,,,,,,,0,0,0,0,0,16,16,16,,,,,,,,,,,,,,,,,,,,,,,,,,,,,,,,,,,,,,,,,,,,,,,,,,,,,,,,,,,,,,,,,,,,,,,,,,,,,,,,,,,,,,,,,,,,,,,,,,,,,,,,,714.640067327,721.6374161139997,,,,,,,111221,0,3,1,3,0,1,2,0,34,2021_Nov_12_1456,listening_fmri,3.2.4,60.253028979956696,
2,parcelated_audio/11/11_18.ogg,,,,,,,,,0,0,0,0,0,2,2,2,0,0,0,0,,,,,,,,,,,,,0,0,0,0,0,17,17,17,,,,,,,,,,,,,,,,,,,,,,,,,,,,,,,,,,,,,,,,,,,,,,,,,,,,,,,,,,,,,,,,,,,,,,,,,,,,,,,,,,,,,,,,,,,,,,,,,,,,,,,,,721.6377827849997,729.1164250339998,,,,,,,111221,0,3,1,3,0,1,2,0,34,2021_Nov_12_1456,listening_fmri,3.2.4,60.253028979956696,
2,parcelated_audio/11/11_19.ogg,,,,,,,,,0,0,0,0,0,2,2,2,0,0,0,0,,,,,,,,,,,,,0,0,0,0,0,18,18,18,,,,,,,,,,,,,,,,,,,,,,,,,,,,,,,,,,,,,,,,,,,,,,,,,,,,,,,,,,,,,,,,,,,,,,,,,,,,,,,,,,,,,,,,,,,,,,,,,,,,,,,,,729.1167776279999,733.693744105,,,,,,,111221,0,3,1,3,0,1,2,0,34,2021_Nov_12_1456,listening_fmri,3.2.4,60.253028979956696,
2,parcelated_audio/11/11_20.ogg,,,,,,,,,0,0,0,0,0,2,2,2,0,0,0,0,,,,,,,,,,,,,0,0,0,0,0,19,19,19,,,,,,,,,,,,,,,,,,,,,,,,,,,,,,,,,,,,,,,,,,,,,,,,,,,,,,,,,,,,,,,,,,,,,,,,,,,,,,,,,,,,,,,,,,,,,,,,,,,,,,,,,733.6940249199997,738.621737077,,,,,,,111221,0,3,1,3,0,1,2,0,34,2021_Nov_12_1456,listening_fmri,3.2.4,60.253028979956696,
2,parcelated_audio/11/11_21.ogg,,,,,,,,,0,0,0,0,0,2,2,2,0,0,0,0,,,,,,,,,,,,,0,0,0,0,0,20,20,20,,,,,,,,,,,,,,,,,,,,,,,,,,,,,,,,,,,,,,,,,,,,,,,,,,,,,,,,,,,,,,,,,,,,,,,,,,,,,,,,,,,,,,,,,,,,,,,,,,,,,,,,,738.6220746270001,747.4003199819999,,,,,,,111221,0,3,1,3,0,1,2,0,34,2021_Nov_12_1456,listening_fmri,3.2.4,60.253028979956696,
2,parcelated_audio/11/11_22.ogg,,,,,,,,,0,0,0,0,0,2,2,2,0,0,0,0,,,,,,,,,,,,,0,0,0,0,0,21,21,21,,,,,,,,,,,,,,,,,,,,,,,,,,,,,,,,,,,,,,,,,,,,,,,,,,,,,,,,,,,,,,,,,,,,,,,,,,,,,,,,,,,,,,,,,,,,,,,,,,,,,,,,,747.4006559599998,750.6984146219997,,,,,,,111221,0,3,1,3,0,1,2,0,34,2021_Nov_12_1456,listening_fmri,3.2.4,60.253028979956696,
2,parcelated_audio/11/11_23.ogg,,,,,,,,,0,0,0,0,0,2,2,2,0,0,0,0,,,,,,,,,,,,,0,0,0,0,0,22,22,22,,,,,,,,,,,,,,,,,,,,,,,,,,,,,,,,,,,,,,,,,,,,,,,,,,,,,,,,,,,,,,,,,,,,,,,,,,,,,,,,,,,,,,,,,,,,,,,,,,,,,,,,,750.698837941,755.487910841,,,,,,,111221,0,3,1,3,0,1,2,0,34,2021_Nov_12_1456,listening_fmri,3.2.4,60.253028979956696,
2,parcelated_audio/11/11_24.ogg,,,,,,,,,0,0,0,0,0,2,2,2,0,0,0,0,,,,,,,,,,,,,0,0,0,0,0,23,23,23,,,,,,,,,,,,,,,,,,,,,,,,,,,,,,,,,,,,,,,,,,,,,,,,,,,,,,,,,,,,,,,,,,,,,,,,,,,,,,,,,,,,,,,,,,,,,,,,,,,,,,,,,755.4882620169997,759.1143596530001,,,,,,,111221,0,3,1,3,0,1,2,0,34,2021_Nov_12_1456,listening_fmri,3.2.4,60.253028979956696,
2,parcelated_audio/11/11_25.ogg,,,,,,,,,0,0,0,0,0,2,2,2,0,0,0,0,,,,,,,,,,,,,0,0,0,0,0,24,24,24,,,,,,,,,,,,,,,,,,,,,,,,,,,,,,,,,,,,,,,,,,,,,,,,,,,,,,,,,,,,,,,,,,,,,,,,,,,,,,,,,,,,,,,,,,,,,,,,,,,,,,,,,759.1149260039997,763.859380935,,,,,,,111221,0,3,1,3,0,1,2,0,34,2021_Nov_12_1456,listening_fmri,3.2.4,60.253028979956696,
2,parcelated_audio/11/11_26.ogg,,,,,,,,,0,0,0,0,0,2,2,2,0,0,0,0,,,,,,,,,,,,,0,0,0,0,0,25,25,25,,,,,,,,,,,,,,,,,,,,,,,,,,,,,,,,,,,,,,,,,,,,,,,,,,,,,,,,,,,,,,,,,,,,,,,,,,,,,,,,,,,,,,,,,,,,,,,,,,,,,,,,,763.8598014929998,768.8536654179998,,,,,,,111221,0,3,1,3,0,1,2,0,34,2021_Nov_12_1456,listening_fmri,3.2.4,60.253028979956696,
2,parcelated_audio/11/11_27.ogg,,,,,,,,,0,0,0,0,0,2,2,2,0,0,0,0,,,,,,,,,,,,,0,0,0,0,0,26,26,26,,,,,,,,,,,,,,,,,,,,,,,,,,,,,,,,,,,,,,,,,,,,,,,,,,,,,,,,,,,,,,,,,,,,,,,,,,,,,,,,,,,,,,,,,,,,,,,,,,,,,,,,,768.8559773479997,772.8227069909999,,,,,,,111221,0,3,1,3,0,1,2,0,34,2021_Nov_12_1456,listening_fmri,3.2.4,60.253028979956696,
2,parcelated_audio/11/11_28.ogg,,,,,,,,,0,0,0,0,0,2,2,2,0,0,0,0,,,,,,,,,,,,,0,0,0,0,0,27,27,27,,,,,,,,,,,,,,,,,,,,,,,,,,,,,,,,,,,,,,,,,,,,,,,,,,,,,,,,,,,,,,,,,,,,,,,,,,,,,,,,,,,,,,,,,,,,,,,,,,,,,,,,,772.8230604679998,776.254698452,,,,,,,111221,0,3,1,3,0,1,2,0,34,2021_Nov_12_1456,listening_fmri,3.2.4,60.253028979956696,
2,parcelated_audio/11/11_29.ogg,,,,,,,,,0,0,0,0,0,2,2,2,0,0,0,0,,,,,,,,,,,,,0,0,0,0,0,28,28,28,,,,,,,,,,,,,,,,,,,,,,,,,,,,,,,,,,,,,,,,,,,,,,,,,,,,,,,,,,,,,,,,,,,,,,,,,,,,,,,,,,,,,,,,,,,,,,,,,,,,,,,,,776.2550037829997,780.4351405279999,,,,,,,111221,0,3,1,3,0,1,2,0,34,2021_Nov_12_1456,listening_fmri,3.2.4,60.253028979956696,
2,parcelated_audio/11/11_30.ogg,,,,,,,,,0,0,0,0,0,2,2,2,0,0,0,0,,,,,,,,,,,,,0,0,0,0,0,29,29,29,,,,,,,,,,,,,,,,,,,,,,,,,,,,,,,,,,,,,,,,,,,,,,,,,,,,,,,,,,,,,,,,,,,,,,,,,,,,,,,,,,,,,,,,,,,,,,,,,,,,,,,,,780.4358801919998,784.958321737,,,,,,,111221,0,3,1,3,0,1,2,0,34,2021_Nov_12_1456,listening_fmri,3.2.4,60.253028979956696,
2,parcelated_audio/11/11_31.ogg,,,,,,,,,0,0,0,0,0,2,2,2,0,0,0,0,,,,,,,,,,,,,0,0,0,0,0,30,30,30,,,,,,,,,,,,,,,,,,,,,,,,,,,,,,,,,,,,,,,,,,,,,,,,,,,,,,,,,,,,,,,,,,,,,,,,,,,,,,,,,,,,,,,,,,,,,,,,,,,,,,,,,784.9590633919997,789.8023760769997,,,,,,,111221,0,3,1,3,0,1,2,0,34,2021_Nov_12_1456,listening_fmri,3.2.4,60.253028979956696,
2,parcelated_audio/11/11_32.ogg,,,,,,,,,0,0,0,0,0,2,2,2,0,0,0,0,,,,,,,,,,,,,0,0,0,0,0,31,31,31,,,,,,,,,,,,,,,,,,,,,,,,,,,,,,,,,,,,,,,,,,,,,,,,,,,,,,,,,,,,,,,,,,,,,,,,,,,,,,,,,,,,,,,,,,,,,,,,,,,,,,,,,789.8027391349997,793.967155544,,,,,,,111221,0,3,1,3,0,1,2,0,34,2021_Nov_12_1456,listening_fmri,3.2.4,60.253028979956696,
2,parcelated_audio/11/11_33.ogg,,,,,,,,,0,0,0,0,0,2,2,2,0,0,0,0,,,,,,,,,,,,,0,0,0,0,0,32,32,32,,,,,,,,,,,,,,,,,,,,,,,,,,,,,,,,,,,,,,,,,,,,,,,,,,,,,,,,,,,,,,,,,,,,,,,,,,,,,,,,,,,,,,,,,,,,,,,,,,,,,,,,,793.9674311599997,796.5049755319997,,,,,,,111221,0,3,1,3,0,1,2,0,34,2021_Nov_12_1456,listening_fmri,3.2.4,60.253028979956696,
2,parcelated_audio/11/11_34.ogg,,,,,,,,,0,0,0,0,0,2,2,2,0,0,0,0,,,,,,,,,,,,,0,0,0,0,0,33,33,33,,,,,,,,,,,,,,,,,,,,,,,,,,,,,,,,,,,,,,,,,,,,,,,,,,,,,,,,,,,,,,,,,,,,,,,,,,,,,,,,,,,,,,,,,,,,,,,,,,,,,,,,,796.5052769469999,799.8382689679997,,,,,,,111221,0,3,1,3,0,1,2,0,34,2021_Nov_12_1456,listening_fmri,3.2.4,60.253028979956696,
2,parcelated_audio/11/11_35.ogg,,,,,,,,,0,0,0,0,0,2,2,2,0,0,0,0,,,,,,,,,,,,,0,0,0,0,0,34,34,34,,,,,,,,,,,,,,,,,,,,,,,,,,,,,,,,,,,,,,,,,,,,,,,,,,,,,,,,,,,,,,,,,,,,,,,,,,,,,,,,,,,,,,,,,,,,,,,,,,,,,,,,,799.8386033669999,804.2064303299999,,,,,,,111221,0,3,1,3,0,1,2,0,34,2021_Nov_12_1456,listening_fmri,3.2.4,60.253028979956696,
2,parcelated_audio/11/11_36.ogg,,,,,,,,,0,0,0,0,0,2,2,2,0,0,0,0,,,,,,,,,,,,,0,0,0,0,0,35,35,35,,,,,,,,,,,,,,,,,,,,,,,,,,,,,,,,,,,,,,,,,,,,,,,,,,,,,,,,,,,,,,,,,,,,,,,,,,,,,,,,,,,,,,,,,,,,,,,,,,,,,,,,,804.206719623,813.2154369079999,,,,,,,111221,0,3,1,3,0,1,2,0,34,2021_Nov_12_1456,listening_fmri,3.2.4,60.253028979956696,
2,parcelated_audio/11/11_37.ogg,,,,,,,,,0,0,0,0,0,2,2,2,0,0,0,0,,,,,,,,,,,,,0,0,0,0,0,36,36,36,,,,,,,,,,,,,,,,,,,,,,,,,,,,,,,,,,,,,,,,,,,,,,,,,,,,,,,,,,,,,,,,,,,,,,,,,,,,,,,,,,,,,,,,,,,,,,,,,,,,,,,,,813.215694811,817.3915456119998,,,,,,,111221,0,3,1,3,0,1,2,0,34,2021_Nov_12_1456,listening_fmri,3.2.4,60.253028979956696,
2,parcelated_audio/11/11_38.ogg,,,,,,,,,0,0,0,0,0,2,2,2,0,0,0,0,,,,,,,,,,,,,0,0,0,0,0,37,37,37,,,,,,,,,,,,,,,,,,,,,,,,,,,,,,,,,,,,,,,,,,,,,,,,,,,,,,,,,,,,,,,,,,,,,,,,,,,,,,,,,,,,,,,,,,,,,,,,,,,,,,,,,817.3919072209997,823.562200935,,,,,,,111221,0,3,1,3,0,1,2,0,34,2021_Nov_12_1456,listening_fmri,3.2.4,60.253028979956696,
2,parcelated_audio/11/11_39.ogg,,,,,,,,,0,0,0,0,0,2,2,2,0,0,0,0,,,,,,,,,,,,,0,0,0,0,0,38,38,38,,,,,,,,,,,,,,,,,,,,,,,,,,,,,,,,,,,,,,,,,,,,,,,,,,,,,,,,,,,,,,,,,,,,,,,,,,,,,,,,,,,,,,,,,,,,,,,,,,,,,,,,,823.5624752680001,828.7463315119999,,,,,,,111221,0,3,1,3,0,1,2,0,34,2021_Nov_12_1456,listening_fmri,3.2.4,60.253028979956696,
2,parcelated_audio/11/11_40.ogg,,,,,,,,,0,0,0,0,0,2,2,2,0,0,0,0,,,,,,,,,,,,,0,0,0,0,0,39,39,39,,,,,,,,,,,,,,,,,,,,,,,,,,,,,,,,,,,,,,,,,,,,,,,,,,,,,,,,,,,,,,,,,,,,,,,,,,,,,,,,,,,,,,,,,,,,,,,,,,,,,,,,,828.746696876,834.408345159,,,,,,,111221,0,3,1,3,0,1,2,0,34,2021_Nov_12_1456,listening_fmri,3.2.4,60.253028979956696,
2,parcelated_audio/11/11_41.ogg,,,,,,,,,0,0,0,0,0,2,2,2,0,0,0,0,,,,,,,,,,,,,0,0,0,0,0,40,40,40,,,,,,,,,,,,,,,,,,,,,,,,,,,,,,,,,,,,,,,,,,,,,,,,,,,,,,,,,,,,,,,,,,,,,,,,,,,,,,,,,,,,,,,,,,,,,,,,,,,,,,,,,834.4087167729999,840.5549447879998,,,,,,,111221,0,3,1,3,0,1,2,0,34,2021_Nov_12_1456,listening_fmri,3.2.4,60.253028979956696,
2,,,,,,,,,,0,0,0,0,0,2,2,2,0,0,0,0,,,,,,,,,,,,,0,0,0,0,,,,,,,,,,,,,,,,,,,,,,,,,,,,,,,,,,,,,,,,,,,,,,,,,,,,,,,,,,,,,,,,,,,,,,,,,,,,,,,,,,,,,,,,,,,,,,,,,,,,,,,,,,,,,,,,,,,,,111221,0,3,1,3,0,1,2,0,34,2021_Nov_12_1456,listening_fmri,3.2.4,60.253028979956696,
2,,,,,,,,,,0,0,0,0,0,2,2,2,0,0,0,0,,,,,,,,,,,,,,,,,,,,,,,,,,,,,,,,,,,,,,,,,,840.555324204,846.5508446659996,881.7436659149998,None,,,,,,,,,,,,,,,,,,,,,,,,,,,,,,,,,,,,,,,,,,,,,,,,,,,,,,,,,,,,,,,,,,,,,,,,,,,,,,,,,,887.7428969849998,None,887.7428969849998,None,,,111221,0,3,1,3,0,1,2,0,34,2021_Nov_12_1456,listening_fmri,3.2.4,60.253028979956696,
2,,,,,,,,,,0,0,0,0,0,2,2,2,,,,,,,,,,,,,,,,,,,,,,,,,,,,,,,,,,,,,,,,,,,,,,,,,,,,,,,,,,,,,,,,,,,,,,,,,,,,,,,,,,,,,,,,,,,,,,,,,,,,,,,,,,,,,,,,,,,,,,,,,,,,,,,,,,,,,,,,,111221,0,3,1,3,0,1,2,0,34,2021_Nov_12_1456,listening_fmri,3.2.4,60.253028979956696,
3,,,,,,,,,,0,0,0,0,0,3,3,3,0,0,0,0,0,0,0,0,0,0,0,0,,,,,,,,,,,,,,,,,,,,,,,,,,,,,,,,,,,,,,888.759897984,None,888.759897984,None,5,0.4026314950001506,888.759897984,None,888.759897984,None,889.1927703450001,None,5,0.9698701080001229,889.1927703450001,None,889.1927703450001,None,890.225999966,None,890.225999966,None,890.225999966,None,2,0.7606281869998384,890.225999966,None,891.010008626,None,5,0.15249165299974266,891.010008626,None,891.010008626,None,891.2760862929999,None,891.2760862929999,None,891.2760862929999,None,891.2760862929999,None,891.2760862929999,None,891.2760862929999,None,891.2760862929999,None,None,891.2760862929999,None,,,,,,,,,,,,,,,,,,,,,,,,,,,,,,,,,,,111221,0,3,1,3,0,1,2,0,34,2021_Nov_12_1456,listening_fmri,3.2.4,60.253028979956696,
3,,,,,,,,,,0,0,0,0,0,3,3,3,0,0,0,0,0,0,0,0,,,,,,,,,,,,,,,,,,,,,,,,,,,,,,,,,,,,,,,,,,,,,,,,,,,,,,,,,,,,,,,,,,,,,,,,,,,,,,,,,,,,,,,,,,,,,,,902.8100653029996,None,5,0.3525583670002561,902.8100653029996,None,902.8100653029996,None,903.20943678,None,903.20943678,None,903.20943678,None,1,0.17119558100012,903.20943678,None,,,,,,,,,,,,,,,,,111221,0,3,1,3,0,1,2,0,34,2021_Nov_12_1456,listening_fmri,3.2.4,60.253028979956696,
3,parcelated_audio/24/24_1.ogg,,,,,,,,,0,0,0,0,0,3,3,3,0,0,0,0,,,,,,,,,,,,,0,0,0,0,0,0,0,0,,,,,,,,,,,,,,,,,,,,,,,,,,,,,,,,,,,,,,,,,,,,,,,,,,,,,,,,,,,,,,,,,,,,,,,,,,,,,,,,,,,,,,,,,,,,,,,,,903.4100793789999,None,5,0.7525388779999957,903.4100793789999,None,863.0312301179997,866.0333962189998,866.0391252099998,876.4702554840001,,,,,,,111221,0,3,1,3,0,1,2,0,34,2021_Nov_12_1456,listening_fmri,3.2.4,60.253028979956696,
3,parcelated_audio/24/24_2.ogg,,,,,,,,,0,0,0,0,0,3,3,3,0,0,0,0,,,,,,,,,,,,,0,0,0,0,0,1,1,1,,,,,,,,,,,,,,,,,,,,,,,,,,,,,,,,,,,,,,,,,,,,,,,,,,,,,,,,,,,,,,,,,,,,,,,,,,,,,,,,,,,,,,,,,,,,,,,,,,,,,,,,,876.470553008,882.7875157829999,,,,,,,111221,0,3,1,3,0,1,2,0,34,2021_Nov_12_1456,listening_fmri,3.2.4,60.253028979956696,
3,parcelated_audio/24/24_3.ogg,,,,,,,,,0,0,0,0,0,3,3,3,0,0,0,0,,,,,,,,,,,,,0,0,0,0,0,2,2,2,,,,,,,,,,,,,,,,,,,,,,,,,,,,,,,,,,,,,,,,,,,,,,,,,,,,,,,,,,,,,,,,,,,,,,,,,,,,,,,,,,,,,,,,,,,,,,,,,,,,,,,,,882.7884543739997,894.394265333,,,,,,,111221,0,3,1,3,0,1,2,0,34,2021_Nov_12_1456,listening_fmri,3.2.4,60.253028979956696,
3,parcelated_audio/24/24_4.ogg,,,,,,,,,0,0,0,0,0,3,3,3,0,0,0,0,,,,,,,,,,,,,0,0,0,0,0,3,3,3,,,,,,,,,,,,,,,,,,,,,,,,,,,,,,,,,,,,,,,,,,,,,,,,,,,,,,,,,,,,,,,,,,,,,,,,,,,,,,,,,,,,,,,,,,,,,,,,,,,,,,,,,894.394581822,901.3033098129999,,,,,,,111221,0,3,1,3,0,1,2,0,34,2021_Nov_12_1456,listening_fmri,3.2.4,60.253028979956696,
3,parcelated_audio/24/24_5.ogg,,,,,,,,,0,0,0,0,0,3,3,3,0,0,0,0,,,,,,,,,,,,,0,0,0,0,0,4,4,4,,,,,,,,,,,,,,,,,,,,,,,,,,,,,,,,,,,,,,,,,,,,,,,,,,,,,,,,,,,,,,,,,,,,,,,,,,,,,,,,,,,,,,,,,,,,,,,,,,,,,,,,,901.303632873,906.2883917049999,,,,,,,111221,0,3,1,3,0,1,2,0,34,2021_Nov_12_1456,listening_fmri,3.2.4,60.253028979956696,
3,parcelated_audio/24/24_6.ogg,,,,,,,,,0,0,0,0,0,3,3,3,0,0,0,0,,,,,,,,,,,,,0,0,0,0,0,5,5,5,,,,,,,,,,,,,,,,,,,,,,,,,,,,,,,,,,,,,,,,,,,,,,,,,,,,,,,,,,,,,,,,,,,,,,,,,,,,,,,,,,,,,,,,,,,,,,,,,,,,,,,,,906.2887261719998,913.7531875589998,,,,,,,111221,0,3,1,3,0,1,2,0,34,2021_Nov_12_1456,listening_fmri,3.2.4,60.253028979956696,
3,parcelated_audio/24/24_7.ogg,,,,,,,,,0,0,0,0,0,3,3,3,0,0,0,0,,,,,,,,,,,,,0,0,0,0,0,6,6,6,,,,,,,,,,,,,,,,,,,,,,,,,,,,,,,,,,,,,,,,,,,,,,,,,,,,,,,,,,,,,,,,,,,,,,,,,,,,,,,,,,,,,,,,,,,,,,,,,,,,,,,,,913.7534809399999,918.1462327429999,,,,,,,111221,0,3,1,3,0,1,2,0,34,2021_Nov_12_1456,listening_fmri,3.2.4,60.253028979956696,
3,parcelated_audio/24/24_8.ogg,,,,,,,,,0,0,0,0,0,3,3,3,0,0,0,0,,,,,,,,,,,,,0,0,0,0,0,7,7,7,,,,,,,,,,,,,,,,,,,,,,,,,,,,,,,,,,,,,,,,,,,,,,,,,,,,,,,,,,,,,,,,,,,,,,,,,,,,,,,,,,,,,,,,,,,,,,,,,,,,,,,,,918.1466389530001,924.2052893219998,,,,,,,111221,0,3,1,3,0,1,2,0,34,2021_Nov_12_1456,listening_fmri,3.2.4,60.253028979956696,
3,parcelated_audio/24/24_9.ogg,,,,,,,,,0,0,0,0,0,3,3,3,0,0,0,0,,,,,,,,,,,,,0,0,0,0,0,8,8,8,,,,,,,,,,,,,,,,,,,,,,,,,,,,,,,,,,,,,,,,,,,,,,,,,,,,,,,,,,,,,,,,,,,,,,,,,,,,,,,,,,,,,,,,,,,,,,,,,,,,,,,,,924.2057951039997,928.636903092,,,,,,,111221,0,3,1,3,0,1,2,0,34,2021_Nov_12_1456,listening_fmri,3.2.4,60.253028979956696,
3,parcelated_audio/24/24_10.ogg,,,,,,,,,0,0,0,0,0,3,3,3,0,0,0,0,,,,,,,,,,,,,0,0,0,0,0,9,9,9,,,,,,,,,,,,,,,,,,,,,,,,,,,,,,,,,,,,,,,,,,,,,,,,,,,,,,,,,,,,,,,,,,,,,,,,,,,,,,,,,,,,,,,,,,,,,,,,,,,,,,,,,928.6371736259998,932.3703766399999,,,,,,,111221,0,3,1,3,0,1,2,0,34,2021_Nov_12_1456,listening_fmri,3.2.4,60.253028979956696,
3,parcelated_audio/24/24_11.ogg,,,,,,,,,0,0,0,0,0,3,3,3,0,0,0,0,,,,,,,,,,,,,0,0,0,0,0,10,10,10,,,,,,,,,,,,,,,,,,,,,,,,,,,,,,,,,,,,,,,,,,,,,,,,,,,,,,,,,,,,,,,,,,,,,,,,,,,,,,,,,,,,,,,,,,,,,,,,,,,,,,,,,932.3708056229998,942.4946631149996,,,,,,,111221,0,3,1,3,0,1,2,0,34,2021_Nov_12_1456,listening_fmri,3.2.4,60.253028979956696,
3,parcelated_audio/24/24_12.ogg,,,,,,,,,0,0,0,0,0,3,3,3,0,0,0,0,,,,,,,,,,,,,0,0,0,0,0,11,11,11,,,,,,,,,,,,,,,,,,,,,,,,,,,,,,,,,,,,,,,,,,,,,,,,,,,,,,,,,,,,,,,,,,,,,,,,,,,,,,,,,,,,,,,,,,,,,,,,,,,,,,,,,942.495005105,951.571277393,,,,,,,111221,0,3,1,3,0,1,2,0,34,2021_Nov_12_1456,listening_fmri,3.2.4,60.253028979956696,
3,parcelated_audio/24/24_13.ogg,,,,,,,,,0,0,0,0,0,3,3,3,0,0,0,0,,,,,,,,,,,,,0,0,0,0,0,12,12,12,,,,,,,,,,,,,,,,,,,,,,,,,,,,,,,,,,,,,,,,,,,,,,,,,,,,,,,,,,,,,,,,,,,,,,,,,,,,,,,,,,,,,,,,,,,,,,,,,,,,,,,,,951.571601394,955.565095466,,,,,,,111221,0,3,1,3,0,1,2,0,34,2021_Nov_12_1456,listening_fmri,3.2.4,60.253028979956696,
3,parcelated_audio/24/24_14.ogg,,,,,,,,,0,0,0,0,0,3,3,3,0,0,0,0,,,,,,,,,,,,,0,0,0,0,0,13,13,13,,,,,,,,,,,,,,,,,,,,,,,,,,,,,,,,,,,,,,,,,,,,,,,,,,,,,,,,,,,,,,,,,,,,,,,,,,,,,,,,,,,,,,,,,,,,,,,,,,,,,,,,,955.5657118879999,962.9462581449998,,,,,,,111221,0,3,1,3,0,1,2,0,34,2021_Nov_12_1456,listening_fmri,3.2.4,60.253028979956696,
3,parcelated_audio/24/24_15.ogg,,,,,,,,,0,0,0,0,0,3,3,3,0,0,0,0,,,,,,,,,,,,,0,0,0,0,0,14,14,14,,,,,,,,,,,,,,,,,,,,,,,,,,,,,,,,,,,,,,,,,,,,,,,,,,,,,,,,,,,,,,,,,,,,,,,,,,,,,,,,,,,,,,,,,,,,,,,,,,,,,,,,,962.9465521819998,969.4993771899999,,,,,,,111221,0,3,1,3,0,1,2,0,34,2021_Nov_12_1456,listening_fmri,3.2.4,60.253028979956696,
3,parcelated_audio/24/24_16.ogg,,,,,,,,,0,0,0,0,0,3,3,3,0,0,0,0,,,,,,,,,,,,,0,0,0,0,0,15,15,15,,,,,,,,,,,,,,,,,,,,,,,,,,,,,,,,,,,,,,,,,,,,,,,,,,,,,,,,,,,,,,,,,,,,,,,,,,,,,,,,,,,,,,,,,,,,,,,,,,,,,,,,,969.4997387149997,976.6741756759998,,,,,,,111221,0,3,1,3,0,1,2,0,34,2021_Nov_12_1456,listening_fmri,3.2.4,60.253028979956696,
3,parcelated_audio/24/24_17.ogg,,,,,,,,,0,0,0,0,0,3,3,3,0,0,0,0,,,,,,,,,,,,,0,0,0,0,0,16,16,16,,,,,,,,,,,,,,,,,,,,,,,,,,,,,,,,,,,,,,,,,,,,,,,,,,,,,,,,,,,,,,,,,,,,,,,,,,,,,,,,,,,,,,,,,,,,,,,,,,,,,,,,,976.6744442899999,982.6703416309997,,,,,,,111221,0,3,1,3,0,1,2,0,34,2021_Nov_12_1456,listening_fmri,3.2.4,60.253028979956696,
3,parcelated_audio/24/24_18.ogg,,,,,,,,,0,0,0,0,0,3,3,3,0,0,0,0,,,,,,,,,,,,,0,0,0,0,0,17,17,17,,,,,,,,,,,,,,,,,,,,,,,,,,,,,,,,,,,,,,,,,,,,,,,,,,,,,,,,,,,,,,,,,,,,,,,,,,,,,,,,,,,,,,,,,,,,,,,,,,,,,,,,,982.6706791309998,991.1369522729997,,,,,,,111221,0,3,1,3,0,1,2,0,34,2021_Nov_12_1456,listening_fmri,3.2.4,60.253028979956696,
3,parcelated_audio/24/24_19.ogg,,,,,,,,,0,0,0,0,0,3,3,3,0,0,0,0,,,,,,,,,,,,,0,0,0,0,0,18,18,18,,,,,,,,,,,,,,,,,,,,,,,,,,,,,,,,,,,,,,,,,,,,,,,,,,,,,,,,,,,,,,,,,,,,,,,,,,,,,,,,,,,,,,,,,,,,,,,,,,,,,,,,,991.1372565199999,1000.7856172019997,,,,,,,111221,0,3,1,3,0,1,2,0,34,2021_Nov_12_1456,listening_fmri,3.2.4,60.253028979956696,
3,parcelated_audio/24/24_20.ogg,,,,,,,,,0,0,0,0,0,3,3,3,0,0,0,0,,,,,,,,,,,,,0,0,0,0,0,19,19,19,,,,,,,,,,,,,,,,,,,,,,,,,,,,,,,,,,,,,,,,,,,,,,,,,,,,,,,,,,,,,,,,,,,,,,,,,,,,,,,,,,,,,,,,,,,,,,,,,,,,,,,,,1000.7859004919997,1005.2613100449998,,,,,,,111221,0,3,1,3,0,1,2,0,34,2021_Nov_12_1456,listening_fmri,3.2.4,60.253028979956696,
3,parcelated_audio/24/24_21.ogg,,,,,,,,,0,0,0,0,0,3,3,3,0,0,0,0,,,,,,,,,,,,,0,0,0,0,0,20,20,20,,,,,,,,,,,,,,,,,,,,,,,,,,,,,,,,,,,,,,,,,,,,,,,,,,,,,,,,,,,,,,,,,,,,,,,,,,,,,,,,,,,,,,,,,,,,,,,,,,,,,,,,,1005.261677472,1013.272328387,,,,,,,111221,0,3,1,3,0,1,2,0,34,2021_Nov_12_1456,listening_fmri,3.2.4,60.253028979956696,
3,parcelated_audio/24/24_22.ogg,,,,,,,,,0,0,0,0,0,3,3,3,0,0,0,0,,,,,,,,,,,,,0,0,0,0,0,21,21,21,,,,,,,,,,,,,,,,,,,,,,,,,,,,,,,,,,,,,,,,,,,,,,,,,,,,,,,,,,,,,,,,,,,,,,,,,,,,,,,,,,,,,,,,,,,,,,,,,,,,,,,,,1013.2727220679999,1023.859094469,,,,,,,111221,0,3,1,3,0,1,2,0,34,2021_Nov_12_1456,listening_fmri,3.2.4,60.253028979956696,
3,parcelated_audio/24/24_23.ogg,,,,,,,,,0,0,0,0,0,3,3,3,0,0,0,0,,,,,,,,,,,,,0,0,0,0,0,22,22,22,,,,,,,,,,,,,,,,,,,,,,,,,,,,,,,,,,,,,,,,,,,,,,,,,,,,,,,,,,,,,,,,,,,,,,,,,,,,,,,,,,,,,,,,,,,,,,,,,,,,,,,,,1023.859540422,1034.0736392169997,,,,,,,111221,0,3,1,3,0,1,2,0,34,2021_Nov_12_1456,listening_fmri,3.2.4,60.253028979956696,
3,parcelated_audio/24/24_24.ogg,,,,,,,,,0,0,0,0,0,3,3,3,0,0,0,0,,,,,,,,,,,,,0,0,0,0,0,23,23,23,,,,,,,,,,,,,,,,,,,,,,,,,,,,,,,,,,,,,,,,,,,,,,,,,,,,,,,,,,,,,,,,,,,,,,,,,,,,,,,,,,,,,,,,,,,,,,,,,,,,,,,,,1034.0739880849997,1040.6485592949998,,,,,,,111221,0,3,1,3,0,1,2,0,34,2021_Nov_12_1456,listening_fmri,3.2.4,60.253028979956696,
3,parcelated_audio/24/24_25.ogg,,,,,,,,,0,0,0,0,0,3,3,3,0,0,0,0,,,,,,,,,,,,,0,0,0,0,0,24,24,24,,,,,,,,,,,,,,,,,,,,,,,,,,,,,,,,,,,,,,,,,,,,,,,,,,,,,,,,,,,,,,,,,,,,,,,,,,,,,,,,,,,,,,,,,,,,,,,,,,,,,,,,,1040.649026916,1049.3695715089998,,,,,,,111221,0,3,1,3,0,1,2,0,34,2021_Nov_12_1456,listening_fmri,3.2.4,60.253028979956696,
3,parcelated_audio/24/24_26.ogg,,,,,,,,,0,0,0,0,0,3,3,3,0,0,0,0,,,,,,,,,,,,,0,0,0,0,0,25,25,25,,,,,,,,,,,,,,,,,,,,,,,,,,,,,,,,,,,,,,,,,,,,,,,,,,,,,,,,,,,,,,,,,,,,,,,,,,,,,,,,,,,,,,,,,,,,,,,,,,,,,,,,,1049.36992874,1055.943920487,,,,,,,111221,0,3,1,3,0,1,2,0,34,2021_Nov_12_1456,listening_fmri,3.2.4,60.253028979956696,
3,parcelated_audio/24/24_27.ogg,,,,,,,,,0,0,0,0,0,3,3,3,0,0,0,0,,,,,,,,,,,,,0,0,0,0,0,26,26,26,,,,,,,,,,,,,,,,,,,,,,,,,,,,,,,,,,,,,,,,,,,,,,,,,,,,,,,,,,,,,,,,,,,,,,,,,,,,,,,,,,,,,,,,,,,,,,,,,,,,,,,,,1055.94438725,1062.1137552749997,,,,,,,111221,0,3,1,3,0,1,2,0,34,2021_Nov_12_1456,listening_fmri,3.2.4,60.253028979956696,
3,parcelated_audio/24/24_28.ogg,,,,,,,,,0,0,0,0,0,3,3,3,0,0,0,0,,,,,,,,,,,,,0,0,0,0,0,27,27,27,,,,,,,,,,,,,,,,,,,,,,,,,,,,,,,,,,,,,,,,,,,,,,,,,,,,,,,,,,,,,,,,,,,,,,,,,,,,,,,,,,,,,,,,,,,,,,,,,,,,,,,,,1062.1141783839998,1066.6166201209999,,,,,,,111221,0,3,1,3,0,1,2,0,34,2021_Nov_12_1456,listening_fmri,3.2.4,60.253028979956696,
3,parcelated_audio/24/24_29.ogg,,,,,,,,,0,0,0,0,0,3,3,3,0,0,0,0,,,,,,,,,,,,,0,0,0,0,0,28,28,28,,,,,,,,,,,,,,,,,,,,,,,,,,,,,,,,,,,,,,,,,,,,,,,,,,,,,,,,,,,,,,,,,,,,,,,,,,,,,,,,,,,,,,,,,,,,,,,,,,,,,,,,,1066.6168920999999,1072.9141612919998,,,,,,,111221,0,3,1,3,0,1,2,0,34,2021_Nov_12_1456,listening_fmri,3.2.4,60.253028979956696,
3,parcelated_audio/24/24_30.ogg,,,,,,,,,0,0,0,0,0,3,3,3,0,0,0,0,,,,,,,,,,,,,0,0,0,0,0,29,29,29,,,,,,,,,,,,,,,,,,,,,,,,,,,,,,,,,,,,,,,,,,,,,,,,,,,,,,,,,,,,,,,,,,,,,,,,,,,,,,,,,,,,,,,,,,,,,,,,,,,,,,,,,1072.914513068,1079.171528723,,,,,,,111221,0,3,1,3,0,1,2,0,34,2021_Nov_12_1456,listening_fmri,3.2.4,60.253028979956696,
3,parcelated_audio/24/24_31.ogg,,,,,,,,,0,0,0,0,0,3,3,3,0,0,0,0,,,,,,,,,,,,,0,0,0,0,0,30,30,30,,,,,,,,,,,,,,,,,,,,,,,,,,,,,,,,,,,,,,,,,,,,,,,,,,,,,,,,,,,,,,,,,,,,,,,,,,,,,,,,,,,,,,,,,,,,,,,,,,,,,,,,,1079.1718035079998,1085.845603147,,,,,,,111221,0,3,1,3,0,1,2,0,34,2021_Nov_12_1456,listening_fmri,3.2.4,60.253028979956696,
3,parcelated_audio/24/24_32.ogg,,,,,,,,,0,0,0,0,0,3,3,3,0,0,0,0,,,,,,,,,,,,,0,0,0,0,0,31,31,31,,,,,,,,,,,,,,,,,,,,,,,,,,,,,,,,,,,,,,,,,,,,,,,,,,,,,,,,,,,,,,,,,,,,,,,,,,,,,,,,,,,,,,,,,,,,,,,,,,,,,,,,,1085.8459918509998,1096.6450610809998,,,,,,,111221,0,3,1,3,0,1,2,0,34,2021_Nov_12_1456,listening_fmri,3.2.4,60.253028979956696,
3,,,,,,,,,,0,0,0,0,0,3,3,3,0,0,0,0,,,,,,,,,,,,,0,0,0,0,,,,,,,,,,,,,,,,,,,,,,,,,,,,,,,,,,,,,,,,,,,,,,,,,,,,,,,,,,,,,,,,,,,,,,,,,,,,,,,,,,,,,,,,,,,,,,,,,,,,,,,,,,,,,,,,,,,,,111221,0,3,1,3,0,1,2,0,34,2021_Nov_12_1456,listening_fmri,3.2.4,60.253028979956696,
3,,,,,,,,,,0,0,0,0,0,3,3,3,0,0,0,0,,,,,,,,,,,,,,,,,,,,,,,,,,,,,,,,,,,,,,,,,,1096.645434953,1102.634526676,1137.824183149,None,,,,,,,,,,,,,,,,,,,,,,,,,,,,,,,,,,,,,,,,,,,,,,,,,,,,,,,,,,,,,,,,,,,,,,,,,,,,,,,,,,1143.826343069,None,1143.826343069,None,,,111221,0,3,1,3,0,1,2,0,34,2021_Nov_12_1456,listening_fmri,3.2.4,60.253028979956696,
3,,,,,,,,,,0,0,0,0,0,3,3,3,,,,,,,,,,,,,,,,,,,,,,,,,,,,,,,,,,,,,,,,,,,,,,,,,,,,,,,,,,,,,,,,,,,,,,,,,,,,,,,,,,,,,,,,,,,,,,,,,,,,,,,,,,,,,,,,,,,,,,,,,,,,,,,,,,,,,,,,,111221,0,3,1,3,0,1,2,0,34,2021_Nov_12_1456,listening_fmri,3.2.4,60.253028979956696,
4,,,,,,,,,,0,0,0,0,0,4,4,4,,,,,,,,,,,,,,,,,,,,,,,,,,,,,,,,,,,,,,,,,,,,,,,,,,,,,,,,,,,,,,,,,,,,,,,,,,,,,,,,,,,,,,,,,,,,,,,,,,,,,,,,,,,,,,,,,,,,,,,,,,,,,,,,,,,,,,,,,111221,0,3,1,3,0,1,2,0,34,2021_Nov_12_1456,listening_fmri,3.2.4,60.253028979956696,
5,,,,,,,,,,0,0,0,0,0,5,5,5,,,,,,,,,,,,,,,,,,,,,,,,,,,,,,,,,,,,,,,,,,,,,,,,,,,,,,,,,,,,,,,,,,,,,,,,,,,,,,,,,,,,,,,,,,,,,,,,,,,,,,,,,,,,,,,,,,,,,,,,,,,,,,,,,,,,,,,,,111221,0,3,1,3,0,1,2,0,34,2021_Nov_12_1456,listening_fmri,3.2.4,60.253028979956696,
6,parcelated_audio/31/31_1.ogg,,,,,,,,,0,0,0,0,0,6,6,6,0,0,0,0,,,,,,,,,,,,,0,0,0,0,0,0,0,0,,,,,,,,,,,,,,,,,,,,,,,,,,1144.857625479,None,1144.857625479,None,5,0.3018564650001281,1144.857625479,None,1144.857625479,None,,,,,,,,,,,,,,,,,,,,,,,,,,,,,,,,,,,,,,,,,,,,,,,,,,,,,,,,,,,,,,1145.1773379699998,None,5,0.9821573740000531,1145.1773379699998,None,1104.9943692859997,1108.0014023469998,1108.006421221,1116.7035791879998,,,,,,,111221,0,3,1,3,0,1,2,0,34,2021_Nov_12_1456,listening_fmri,3.2.4,60.253028979956696,
6,parcelated_audio/31/31_2.ogg,,,,,,,,,0,0,0,0,0,6,6,6,0,0,0,0,,,,,,,,,,,,,0,0,0,0,0,1,1,1,,,,,,,,,,,,,,,,,,,,,,,,,,,,,,,,,,,,,,,,,,,,,,,,,,,,,,,,,,,,,,,,,,,,,,,,,,,,,,,,,,,,,,,,,,,,,,,,,,,,,,,,,1116.704273627,1121.1743447189997,,,,,,,111221,0,3,1,3,0,1,2,0,34,2021_Nov_12_1456,listening_fmri,3.2.4,60.253028979956696,
6,parcelated_audio/31/31_3.ogg,,,,,,,,,0,0,0,0,0,6,6,6,0,0,0,0,,,,,,,,,,,,,0,0,0,0,0,2,2,2,,,,,,,,,,,,,,,,,,,,,,,,,,,,,,,,,,,,,,,,,,,,,,,,,,,,,,,,,,,,,,,,,,,,,,,,,,,,,,,,,,,,,,,,,,,,,,,,,,,,,,,,,1121.1747343069997,1129.471422564,,,,,,,111221,0,3,1,3,0,1,2,0,34,2021_Nov_12_1456,listening_fmri,3.2.4,60.253028979956696,
6,parcelated_audio/31/31_4.ogg,,,,,,,,,0,0,0,0,0,6,6,6,0,0,0,0,,,,,,,,,,,,,0,0,0,0,0,3,3,3,,,,,,,,,,,,,,,,,,,,,,,,,,,,,,,,,,,,,,,,,,,,,,,,,,,,,,,,,,,,,,,,,,,,,,,,,,,,,,,,,,,,,,,,,,,,,,,,,,,,,,,,,1129.471730237,1139.5382653269999,,,,,,,111221,0,3,1,3,0,1,2,0,34,2021_Nov_12_1456,listening_fmri,3.2.4,60.253028979956696,
6,parcelated_audio/31/31_5.ogg,,,,,,,,,0,0,0,0,0,6,6,6,0,0,0,0,,,,,,,,,,,,,0,0,0,0,0,4,4,4,,,,,,,,,,,,,,,,,,,,,,,,,,,,,,,,,,,,,,,,,,,,,,,,,,,,,,,,,,,,,,,,,,,,,,,,,,,,,,,,,,,,,,,,,,,,,,,,,,,,,,,,,1139.5388207339997,1150.6535679169997,,,,,,,111221,0,3,1,3,0,1,2,0,34,2021_Nov_12_1456,listening_fmri,3.2.4,60.253028979956696,
6,parcelated_audio/31/31_6.ogg,,,,,,,,,0,0,0,0,0,6,6,6,0,0,0,0,,,,,,,,,,,,,0,0,0,0,0,5,5,5,,,,,,,,,,,,,,,,,,,,,,,,,,,,,,,,,,,,,,,,,,,,,,,,,,,,,,,,,,,,,,,,,,,,,,,,,,,,,,,,,,,,,,,,,,,,,,,,,,,,,,,,,1150.6539043039998,1155.96736694,,,,,,,111221,0,3,1,3,0,1,2,0,34,2021_Nov_12_1456,listening_fmri,3.2.4,60.253028979956696,
6,parcelated_audio/31/31_7.ogg,,,,,,,,,0,0,0,0,0,6,6,6,0,0,0,0,,,,,,,,,,,,,0,0,0,0,0,6,6,6,,,,,,,,,,,,,,,,,,,,,,,,,,,,,,,,,,,,,,,,,,,,,,,,,,,,,,,,,,,,,,,,,,,,,,,,,,,,,,,,,,,,,,,,,,,,,,,,,,,,,,,,,1155.96772337,1160.8475684599998,,,,,,,111221,0,3,1,3,0,1,2,0,34,2021_Nov_12_1456,listening_fmri,3.2.4,60.253028979956696,
6,parcelated_audio/31/31_8.ogg,,,,,,,,,0,0,0,0,0,6,6,6,0,0,0,0,,,,,,,,,,,,,0,0,0,0,0,7,7,7,,,,,,,,,,,,,,,,,,,,,,,,,,,,,,,,,,,,,,,,,,,,,,,,,,,,,,,,,,,,,,,,,,,,,,,,,,,,,,,,,,,,,,,,,,,,,,,,,,,,,,,,,1160.8479283389997,1169.287769955,,,,,,,111221,0,3,1,3,0,1,2,0,34,2021_Nov_12_1456,listening_fmri,3.2.4,60.253028979956696,
6,parcelated_audio/31/31_9.ogg,,,,,,,,,0,0,0,0,0,6,6,6,0,0,0,0,,,,,,,,,,,,,0,0,0,0,0,8,8,8,,,,,,,,,,,,,,,,,,,,,,,,,,,,,,,,,,,,,,,,,,,,,,,,,,,,,,,,,,,,,,,,,,,,,,,,,,,,,,,,,,,,,,,,,,,,,,,,,,,,,,,,,1169.2881260619997,1174.3546261009997,,,,,,,111221,0,3,1,3,0,1,2,0,34,2021_Nov_12_1456,listening_fmri,3.2.4,60.253028979956696,
6,parcelated_audio/31/31_10.ogg,,,,,,,,,0,0,0,0,0,6,6,6,0,0,0,0,,,,,,,,,,,,,0,0,0,0,0,9,9,9,,,,,,,,,,,,,,,,,,,,,,,,,,,,,,,,,,,,,,,,,,,,,,,,,,,,,,,,,,,,,,,,,,,,,,,,,,,,,,,,,,,,,,,,,,,,,,,,,,,,,,,,,1174.3549676409998,1179.8718246399999,,,,,,,111221,0,3,1,3,0,1,2,0,34,2021_Nov_12_1456,listening_fmri,3.2.4,60.253028979956696,
6,parcelated_audio/31/31_11.ogg,,,,,,,,,0,0,0,0,0,6,6,6,0,0,0,0,,,,,,,,,,,,,0,0,0,0,0,10,10,10,,,,,,,,,,,,,,,,,,,,,,,,,,,,,,,,,,,,,,,,,,,,,,,,,,,,,,,,,,,,,,,,,,,,,,,,,,,,,,,,,,,,,,,,,,,,,,,,,,,,,,,,,1179.8721767429997,1190.103786709,,,,,,,111221,0,3,1,3,0,1,2,0,34,2021_Nov_12_1456,listening_fmri,3.2.4,60.253028979956696,
6,parcelated_audio/31/31_12.ogg,,,,,,,,,0,0,0,0,0,6,6,6,0,0,0,0,,,,,,,,,,,,,0,0,0,0,0,11,11,11,,,,,,,,,,,,,,,,,,,,,,,,,,,,,,,,,,,,,,,,,,,,,,,,,,,,,,,,,,,,,,,,,,,,,,,,,,,,,,,,,,,,,,,,,,,,,,,,,,,,,,,,,1190.1042423149997,1194.893263849,,,,,,,111221,0,3,1,3,0,1,2,0,34,2021_Nov_12_1456,listening_fmri,3.2.4,60.253028979956696,
6,parcelated_audio/31/31_13.ogg,,,,,,,,,0,0,0,0,0,6,6,6,0,0,0,0,,,,,,,,,,,,,0,0,0,0,0,12,12,12,,,,,,,,,,,,,,,,,,,,,,,,,,,,,,,,,,,,,,,,,,,,,,,,,,,,,,,,,,,,,,,,,,,,,,,,,,,,,,,,,,,,,,,,,,,,,,,,,,,,,,,,,1194.8936160389999,1202.227405141,,,,,,,111221,0,3,1,3,0,1,2,0,34,2021_Nov_12_1456,listening_fmri,3.2.4,60.253028979956696,
6,parcelated_audio/31/31_14.ogg,,,,,,,,,0,0,0,0,0,6,6,6,0,0,0,0,,,,,,,,,,,,,0,0,0,0,0,13,13,13,,,,,,,,,,,,,,,,,,,,,,,,,,,,,,,,,,,,,,,,,,,,,,,,,,,,,,,,,,,,,,,,,,,,,,,,,,,,,,,,,,,,,,,,,,,,,,,,,,,,,,,,,1202.2277287789998,1208.3606880949997,,,,,,,111221,0,3,1,3,0,1,2,0,34,2021_Nov_12_1456,listening_fmri,3.2.4,60.253028979956696,
6,parcelated_audio/31/31_15.ogg,,,,,,,,,0,0,0,0,0,6,6,6,0,0,0,0,,,,,,,,,,,,,0,0,0,0,0,14,14,14,,,,,,,,,,,,,,,,,,,,,,,,,,,,,,,,,,,,,,,,,,,,,,,,,,,,,,,,,,,,,,,,,,,,,,,,,,,,,,,,,,,,,,,,,,,,,,,,,,,,,,,,,1208.361038944,1215.159699886,,,,,,,111221,0,3,1,3,0,1,2,0,34,2021_Nov_12_1456,listening_fmri,3.2.4,60.253028979956696,
6,parcelated_audio/31/31_16.ogg,,,,,,,,,0,0,0,0,0,6,6,6,0,0,0,0,,,,,,,,,,,,,0,0,0,0,0,15,15,15,,,,,,,,,,,,,,,,,,,,,,,,,,,,,,,,,,,,,,,,,,,,,,,,,,,,,,,,,,,,,,,,,,,,,,,,,,,,,,,,,,,,,,,,,,,,,,,,,,,,,,,,,1215.1601494799997,1221.5822983879998,,,,,,,111221,0,3,1,3,0,1,2,0,34,2021_Nov_12_1456,listening_fmri,3.2.4,60.253028979956696,
6,parcelated_audio/31/31_17.ogg,,,,,,,,,0,0,0,0,0,6,6,6,0,0,0,0,,,,,,,,,,,,,0,0,0,0,0,16,16,16,,,,,,,,,,,,,,,,,,,,,,,,,,,,,,,,,,,,,,,,,,,,,,,,,,,,,,,,,,,,,,,,,,,,,,,,,,,,,,,,,,,,,,,,,,,,,,,,,,,,,,,,,1221.583005306,1225.0328619409997,,,,,,,111221,0,3,1,3,0,1,2,0,34,2021_Nov_12_1456,listening_fmri,3.2.4,60.253028979956696,
6,parcelated_audio/31/31_18.ogg,,,,,,,,,0,0,0,0,0,6,6,6,0,0,0,0,,,,,,,,,,,,,0,0,0,0,0,17,17,17,,,,,,,,,,,,,,,,,,,,,,,,,,,,,,,,,,,,,,,,,,,,,,,,,,,,,,,,,,,,,,,,,,,,,,,,,,,,,,,,,,,,,,,,,,,,,,,,,,,,,,,,,1225.033236232,1229.6608193469997,,,,,,,111221,0,3,1,3,0,1,2,0,34,2021_Nov_12_1456,listening_fmri,3.2.4,60.253028979956696,
6,parcelated_audio/31/31_19.ogg,,,,,,,,,0,0,0,0,0,6,6,6,0,0,0,0,,,,,,,,,,,,,0,0,0,0,0,18,18,18,,,,,,,,,,,,,,,,,,,,,,,,,,,,,,,,,,,,,,,,,,,,,,,,,,,,,,,,,,,,,,,,,,,,,,,,,,,,,,,,,,,,,,,,,,,,,,,,,,,,,,,,,1229.6611466689997,1237.884964683,,,,,,,111221,0,3,1,3,0,1,2,0,34,2021_Nov_12_1456,listening_fmri,3.2.4,60.253028979956696,
6,parcelated_audio/31/31_20.ogg,,,,,,,,,0,0,0,0,0,6,6,6,0,0,0,0,,,,,,,,,,,,,0,0,0,0,0,19,19,19,,,,,,,,,,,,,,,,,,,,,,,,,,,,,,,,,,,,,,,,,,,,,,,,,,,,,,,,,,,,,,,,,,,,,,,,,,,,,,,,,,,,,,,,,,,,,,,,,,,,,,,,,1237.885567156,1255.7303061909997,,,,,,,111221,0,3,1,3,0,1,2,0,34,2021_Nov_12_1456,listening_fmri,3.2.4,60.253028979956696,
6,parcelated_audio/31/31_21.ogg,,,,,,,,,0,0,0,0,0,6,6,6,0,0,0,0,,,,,,,,,,,,,0,0,0,0,0,20,20,20,,,,,,,,,,,,,,,,,,,,,,,,,,,,,,,,,,,,,,,,,,,,,,,,,,,,,,,,,,,,,,,,,,,,,,,,,,,,,,,,,,,,,,,,,,,,,,,,,,,,,,,,,1255.7306335599997,1265.9900772689998,,,,,,,111221,0,3,1,3,0,1,2,0,34,2021_Nov_12_1456,listening_fmri,3.2.4,60.253028979956696,
6,parcelated_audio/31/31_22.ogg,,,,,,,,,0,0,0,0,0,6,6,6,0,0,0,0,,,,,,,,,,,,,0,0,0,0,0,21,21,21,,,,,,,,,,,,,,,,,,,,,,,,,,,,,,,,,,,,,,,,,,,,,,,,,,,,,,,,,,,,,,,,,,,,,,,,,,,,,,,,,,,,,,,,,,,,,,,,,,,,,,,,,1265.99033779,1271.7204350419997,,,,,,,111221,0,3,1,3,0,1,2,0,34,2021_Nov_12_1456,listening_fmri,3.2.4,60.253028979956696,
6,parcelated_audio/31/31_23.ogg,,,,,,,,,0,0,0,0,0,6,6,6,0,0,0,0,,,,,,,,,,,,,0,0,0,0,0,22,22,22,,,,,,,,,,,,,,,,,,,,,,,,,,,,,,,,,,,,,,,,,,,,,,,,,,,,,,,,,,,,,,,,,,,,,,,,,,,,,,,,,,,,,,,,,,,,,,,,,,,,,,,,,1271.720752452,1276.3301229499998,,,,,,,111221,0,3,1,3,0,1,2,0,34,2021_Nov_12_1456,listening_fmri,3.2.4,60.253028979956696,
6,parcelated_audio/31/31_24.ogg,,,,,,,,,0,0,0,0,0,6,6,6,0,0,0,0,,,,,,,,,,,,,0,0,0,0,0,23,23,23,,,,,,,,,,,,,,,,,,,,,,,,,,,,,,,,,,,,,,,,,,,,,,,,,,,,,,,,,,,,,,,,,,,,,,,,,,,,,,,,,,,,,,,,,,,,,,,,,,,,,,,,,1276.3304796059997,1283.220488603,,,,,,,111221,0,3,1,3,0,1,2,0,34,2021_Nov_12_1456,listening_fmri,3.2.4,60.253028979956696,
6,parcelated_audio/31/31_25.ogg,,,,,,,,,0,0,0,0,0,6,6,6,0,0,0,0,,,,,,,,,,,,,0,0,0,0,0,24,24,24,,,,,,,,,,,,,,,,,,,,,,,,,,,,,,,,,,,,,,,,,,,,,,,,,,,,,,,,,,,,,,,,,,,,,,,,,,,,,,,,,,,,,,,,,,,,,,,,,,,,,,,,,1283.2207531529998,1295.2129740139999,,,,,,,111221,0,3,1,3,0,1,2,0,34,2021_Nov_12_1456,listening_fmri,3.2.4,60.253028979956696,
6,parcelated_audio/31/31_26.ogg,,,,,,,,,0,0,0,0,0,6,6,6,0,0,0,0,,,,,,,,,,,,,0,0,0,0,0,25,25,25,,,,,,,,,,,,,,,,,,,,,,,,,,,,,,,,,,,,,,,,,,,,,,,,,,,,,,,,,,,,,,,,,,,,,,,,,,,,,,,,,,,,,,,,,,,,,,,,,,,,,,,,,1295.213357061,1302.7466758259998,,,,,,,111221,0,3,1,3,0,1,2,0,34,2021_Nov_12_1456,listening_fmri,3.2.4,60.253028979956696,
6,parcelated_audio/31/31_27.ogg,,,,,,,,,0,0,0,0,0,6,6,6,0,0,0,0,,,,,,,,,,,,,0,0,0,0,0,26,26,26,,,,,,,,,,,,,,,,,,,,,,,,,,,,,,,,,,,,,,,,,,,,,,,,,,,,,,,,,,,,,,,,,,,,,,,,,,,,,,,,,,,,,,,,,,,,,,,,,,,,,,,,,1302.7470181139997,1307.178364544,,,,,,,111221,0,3,1,3,0,1,2,0,34,2021_Nov_12_1456,listening_fmri,3.2.4,60.253028979956696,
6,parcelated_audio/31/31_28.ogg,,,,,,,,,0,0,0,0,0,6,6,6,0,0,0,0,,,,,,,,,,,,,0,0,0,0,0,27,27,27,,,,,,,,,,,,,,,,,,,,,,,,,,,,,,,,,,,,,,,,,,,,,,,,,,,,,,,,,,,,,,,,,,,,,,,,,,,,,,,,,,,,,,,,,,,,,,,,,,,,,,,,,1307.1789196559998,1312.2129564049997,,,,,,,111221,0,3,1,3,0,1,2,0,34,2021_Nov_12_1456,listening_fmri,3.2.4,60.253028979956696,
6,parcelated_audio/31/31_29.ogg,,,,,,,,,0,0,0,0,0,6,6,6,0,0,0,0,,,,,,,,,,,,,0,0,0,0,0,28,28,28,,,,,,,,,,,,,,,,,,,,,,,,,,,,,,,,,,,,,,,,,,,,,,,,,,,,,,,,,,,,,,,,,,,,,,,,,,,,,,,,,,,,,,,,,,,,,,,,,,,,,,,,,1312.213226974,1316.564929097,,,,,,,111221,0,3,1,3,0,1,2,0,34,2021_Nov_12_1456,listening_fmri,3.2.4,60.253028979956696,
6,parcelated_audio/31/31_30.ogg,,,,,,,,,0,0,0,0,0,6,6,6,0,0,0,0,,,,,,,,,,,,,0,0,0,0,0,29,29,29,,,,,,,,,,,,,,,,,,,,,,,,,,,,,,,,,,,,,,,,,,,,,,,,,,,,,,,,,,,,,,,,,,,,,,,,,,,,,,,,,,,,,,,,,,,,,,,,,,,,,,,,,1316.5653022689999,1320.3526518009999,,,,,,,111221,0,3,1,3,0,1,2,0,34,2021_Nov_12_1456,listening_fmri,3.2.4,60.253028979956696,
6,parcelated_audio/31/31_31.ogg,,,,,,,,,0,0,0,0,0,6,6,6,0,0,0,0,,,,,,,,,,,,,0,0,0,0,0,30,30,30,,,,,,,,,,,,,,,,,,,,,,,,,,,,,,,,,,,,,,,,,,,,,,,,,,,,,,,,,,,,,,,,,,,,,,,,,,,,,,,,,,,,,,,,,,,,,,,,,,,,,,,,,1320.3530086279998,1326.316609849,,,,,,,111221,0,3,1,3,0,1,2,0,34,2021_Nov_12_1456,listening_fmri,3.2.4,60.253028979956696,
6,parcelated_audio/31/31_32.ogg,,,,,,,,,0,0,0,0,0,6,6,6,0,0,0,0,,,,,,,,,,,,,0,0,0,0,0,31,31,31,,,,,,,,,,,,,,,,,,,,,,,,,,,,,,,,,,,,,,,,,,,,,,,,,,,,,,,,,,,,,,,,,,,,,,,,,,,,,,,,,,,,,,,,,,,,,,,,,,,,,,,,,1326.3168677429999,1336.290134458,,,,,,,111221,0,3,1,3,0,1,2,0,34,2021_Nov_12_1456,listening_fmri,3.2.4,60.253028979956696,
6,parcelated_audio/31/31_33.ogg,,,,,,,,,0,0,0,0,0,6,6,6,0,0,0,0,,,,,,,,,,,,,0,0,0,0,0,32,32,32,,,,,,,,,,,,,,,,,,,,,,,,,,,,,,,,,,,,,,,,,,,,,,,,,,,,,,,,,,,,,,,,,,,,,,,,,,,,,,,,,,,,,,,,,,,,,,,,,,,,,,,,,1336.2907417239999,1344.6619226879998,,,,,,,111221,0,3,1,3,0,1,2,0,34,2021_Nov_12_1456,listening_fmri,3.2.4,60.253028979956696,
6,parcelated_audio/31/31_34.ogg,,,,,,,,,0,0,0,0,0,6,6,6,0,0,0,0,,,,,,,,,,,,,0,0,0,0,0,33,33,33,,,,,,,,,,,,,,,,,,,,,,,,,,,,,,,,,,,,,,,,,,,,,,,,,,,,,,,,,,,,,,,,,,,,,,,,,,,,,,,,,,,,,,,,,,,,,,,,,,,,,,,,,1344.662250685,1349.0530575939997,,,,,,,111221,0,3,1,3,0,1,2,0,34,2021_Nov_12_1456,listening_fmri,3.2.4,60.253028979956696,
6,parcelated_audio/31/31_35.ogg,,,,,,,,,0,0,0,0,0,6,6,6,0,0,0,0,,,,,,,,,,,,,0,0,0,0,0,34,34,34,,,,,,,,,,,,,,,,,,,,,,,,,,,,,,,,,,,,,,,,,,,,,,,,,,,,,,,,,,,,,,,,,,,,,,,,,,,,,,,,,,,,,,,,,,,,,,,,,,,,,,,,,1349.0533129329997,1354.8249574699998,,,,,,,111221,0,3,1,3,0,1,2,0,34,2021_Nov_12_1456,listening_fmri,3.2.4,60.253028979956696,
6,parcelated_audio/31/31_36.ogg,,,,,,,,,0,0,0,0,0,6,6,6,0,0,0,0,,,,,,,,,,,,,0,0,0,0,0,35,35,35,,,,,,,,,,,,,,,,,,,,,,,,,,,,,,,,,,,,,,,,,,,,,,,,,,,,,,,,,,,,,,,,,,,,,,,,,,,,,,,,,,,,,,,,,,,,,,,,,,,,,,,,,1354.825479007,1361.1459032799999,,,,,,,111221,0,3,1,3,0,1,2,0,34,2021_Nov_12_1456,listening_fmri,3.2.4,60.253028979956696,
6,,,,,,,,,,0,0,0,0,0,6,6,6,0,0,0,0,,,,,,,,,,,,,0,0,0,0,,,,,,,,,,,,,,,,,,,,,,,,,,,,,,,,,,,,,,,,,,,,,,,,,,,,,,,,,,,,,,,,,,,,,,,,,,,,,,,,,,,,,,,,,,,,,,,,,,,,,,,,,,,,,,,,,,,,,111221,0,3,1,3,0,1,2,0,34,2021_Nov_12_1456,listening_fmri,3.2.4,60.253028979956696,
6,,,,,,,,,,0,0,0,0,0,6,6,6,0,0,0,0,,,,,,,,,,,,,,,,,,,,,,,,,,,,,,,,,,,,,,,,,,1361.1462807039998,1367.1350077769998,1402.3275940089998,None,,,,,,,,,,,,,,,,,,,,,,,,,,,,,,,,,,,,,,,,,,,,,,,,,,,,,,,,,,,,,,,,,,,,,,,,,,,,,,,,,,1408.3271849059997,None,1408.3271849059997,None,,,111221,0,3,1,3,0,1,2,0,34,2021_Nov_12_1456,listening_fmri,3.2.4,60.253028979956696,
6,,,,,,,,,,0,0,0,0,0,6,6,6,,,,,,,,,,,,,,,,,,,,,,,,,,,,,,,,,,,,,,,,,,,,,,,,,,,,,,,,,,,,,,,,,,,,,,,,,,,,,,,,,,,,,,,,,,,,,,,,,,,,,,,,,,,,,,,,,,,,,,,,,,,,,,,,,,,,,,,,,111221,0,3,1,3,0,1,2,0,34,2021_Nov_12_1456,listening_fmri,3.2.4,60.253028979956696,
7,,,,,,,,,,0,0,0,0,0,7,7,7,0,0,0,0,0,0,0,0,0,0,0,0,,,,,,,,,,,,,,,,,,,,,,,,,,,,,,,,,,,,,,1409.360163837,None,1409.360163837,None,5,0.7964644409998982,1409.360163837,None,1409.360163837,None,1410.177090485,None,5,0.9795407240003442,1410.177090485,None,1410.177090485,None,1411.187123396,None,1411.187123396,None,1411.187123396,None,5,0.9693364260001545,1411.187123396,None,1412.188121313,None,5,0.9684928930000751,1412.188121313,None,1412.188121313,None,1413.2604988519997,None,1413.2604988519997,None,1413.2604988519997,None,1413.2604988519997,None,1413.2604988519997,None,1413.2604988519997,None,1413.2604988519997,None,None,1413.2604988519997,None,,,,,,,,,,,,,,,,,,,,,,,,,,,,,,,,,,,111221,0,3,1,3,0,1,2,0,34,2021_Nov_12_1456,listening_fmri,3.2.4,60.253028979956696,
7,,,,,,,,,,0,0,0,0,0,7,7,7,0,0,0,0,0,0,0,0,,,,,,,,,,,,,,,,,,,,,,,,,,,,,,,,,,,,,,,,,,,,,,,,,,,,,,,,,,,,,,,,,,,,,,,,,,,,,,,,,,,,,,,,,,,,,,,1429.7107504729997,None,5,0.4458868290003011,1429.7107504729997,None,1429.7107504729997,None,1430.1940631329999,None,1430.1940631329999,None,1430.1940631329999,None,5,0.9625580580000133,1430.1940631329999,None,,,,,,,,,,,,,,,,,111221,0,3,1,3,0,1,2,0,34,2021_Nov_12_1456,listening_fmri,3.2.4,60.253028979956696,
7,parcelated_audio/13/13_1.ogg,,,,,,,,,0,0,0,0,0,7,7,7,0,0,0,0,,,,,,,,,,,,,0,0,0,0,0,0,0,0,,,,,,,,,,,,,,,,,,,,,,,,,,,,,,,,,,,,,,,,,,,,,,,,,,,,,,,,,,,,,,,,,,,,,,,,,,,,,,,,,,,,,,,,,,,,,,,,,1431.176813952,None,1,0.5627401179999652,1431.176813952,None,1390.5758097849998,1393.5782428489997,1393.58515076,1405.269357021,,,,,,,111221,0,3,1,3,0,1,2,0,34,2021_Nov_12_1456,listening_fmri,3.2.4,60.253028979956696,
7,parcelated_audio/13/13_2.ogg,,,,,,,,,0,0,0,0,0,7,7,7,0,0,0,0,,,,,,,,,,,,,0,0,0,0,0,1,1,1,,,,,,,,,,,,,,,,,,,,,,,,,,,,,,,,,,,,,,,,,,,,,,,,,,,,,,,,,,,,,,,,,,,,,,,,,,,,,,,,,,,,,,,,,,,,,,,,,,,,,,,,,1405.269691643,1411.3840588509997,,,,,,,111221,0,3,1,3,0,1,2,0,34,2021_Nov_12_1456,listening_fmri,3.2.4,60.253028979956696,
7,parcelated_audio/13/13_3.ogg,,,,,,,,,0,0,0,0,0,7,7,7,0,0,0,0,,,,,,,,,,,,,0,0,0,0,0,2,2,2,,,,,,,,,,,,,,,,,,,,,,,,,,,,,,,,,,,,,,,,,,,,,,,,,,,,,,,,,,,,,,,,,,,,,,,,,,,,,,,,,,,,,,,,,,,,,,,,,,,,,,,,,1411.384414487,1419.751961336,,,,,,,111221,0,3,1,3,0,1,2,0,34,2021_Nov_12_1456,listening_fmri,3.2.4,60.253028979956696,
7,parcelated_audio/13/13_4.ogg,,,,,,,,,0,0,0,0,0,7,7,7,0,0,0,0,,,,,,,,,,,,,0,0,0,0,0,3,3,3,,,,,,,,,,,,,,,,,,,,,,,,,,,,,,,,,,,,,,,,,,,,,,,,,,,,,,,,,,,,,,,,,,,,,,,,,,,,,,,,,,,,,,,,,,,,,,,,,,,,,,,,,1419.7525318909998,1430.0037592449999,,,,,,,111221,0,3,1,3,0,1,2,0,34,2021_Nov_12_1456,listening_fmri,3.2.4,60.253028979956696,
7,parcelated_audio/13/13_5.ogg,,,,,,,,,0,0,0,0,0,7,7,7,0,0,0,0,,,,,,,,,,,,,0,0,0,0,0,4,4,4,,,,,,,,,,,,,,,,,,,,,,,,,,,,,,,,,,,,,,,,,,,,,,,,,,,,,,,,,,,,,,,,,,,,,,,,,,,,,,,,,,,,,,,,,,,,,,,,,,,,,,,,,1430.004507278,1436.0716791579998,,,,,,,111221,0,3,1,3,0,1,2,0,34,2021_Nov_12_1456,listening_fmri,3.2.4,60.253028979956696,
7,parcelated_audio/13/13_6.ogg,,,,,,,,,0,0,0,0,0,7,7,7,0,0,0,0,,,,,,,,,,,,,0,0,0,0,0,5,5,5,,,,,,,,,,,,,,,,,,,,,,,,,,,,,,,,,,,,,,,,,,,,,,,,,,,,,,,,,,,,,,,,,,,,,,,,,,,,,,,,,,,,,,,,,,,,,,,,,,,,,,,,,1436.0725831549998,1440.7715833839998,,,,,,,111221,0,3,1,3,0,1,2,0,34,2021_Nov_12_1456,listening_fmri,3.2.4,60.253028979956696,
7,parcelated_audio/13/13_7.ogg,,,,,,,,,0,0,0,0,0,7,7,7,0,0,0,0,,,,,,,,,,,,,0,0,0,0,0,6,6,6,,,,,,,,,,,,,,,,,,,,,,,,,,,,,,,,,,,,,,,,,,,,,,,,,,,,,,,,,,,,,,,,,,,,,,,,,,,,,,,,,,,,,,,,,,,,,,,,,,,,,,,,,1440.772102036,1448.4218162889997,,,,,,,111221,0,3,1,3,0,1,2,0,34,2021_Nov_12_1456,listening_fmri,3.2.4,60.253028979956696,
7,parcelated_audio/13/13_8.ogg,,,,,,,,,0,0,0,0,0,7,7,7,0,0,0,0,,,,,,,,,,,,,0,0,0,0,0,7,7,7,,,,,,,,,,,,,,,,,,,,,,,,,,,,,,,,,,,,,,,,,,,,,,,,,,,,,,,,,,,,,,,,,,,,,,,,,,,,,,,,,,,,,,,,,,,,,,,,,,,,,,,,,1448.4221237279999,1453.7340027309997,,,,,,,111221,0,3,1,3,0,1,2,0,34,2021_Nov_12_1456,listening_fmri,3.2.4,60.253028979956696,
7,parcelated_audio/13/13_9.ogg,,,,,,,,,0,0,0,0,0,7,7,7,0,0,0,0,,,,,,,,,,,,,0,0,0,0,0,8,8,8,,,,,,,,,,,,,,,,,,,,,,,,,,,,,,,,,,,,,,,,,,,,,,,,,,,,,,,,,,,,,,,,,,,,,,,,,,,,,,,,,,,,,,,,,,,,,,,,,,,,,,,,,1453.7342534559998,1458.343314316,,,,,,,111221,0,3,1,3,0,1,2,0,34,2021_Nov_12_1456,listening_fmri,3.2.4,60.253028979956696,
7,parcelated_audio/13/13_10.ogg,,,,,,,,,0,0,0,0,0,7,7,7,0,0,0,0,,,,,,,,,,,,,0,0,0,0,0,9,9,9,,,,,,,,,,,,,,,,,,,,,,,,,,,,,,,,,,,,,,,,,,,,,,,,,,,,,,,,,,,,,,,,,,,,,,,,,,,,,,,,,,,,,,,,,,,,,,,,,,,,,,,,,1458.343782211,1464.154641092,,,,,,,111221,0,3,1,3,0,1,2,0,34,2021_Nov_12_1456,listening_fmri,3.2.4,60.253028979956696,
7,parcelated_audio/13/13_11.ogg,,,,,,,,,0,0,0,0,0,7,7,7,0,0,0,0,,,,,,,,,,,,,0,0,0,0,0,10,10,10,,,,,,,,,,,,,,,,,,,,,,,,,,,,,,,,,,,,,,,,,,,,,,,,,,,,,,,,,,,,,,,,,,,,,,,,,,,,,,,,,,,,,,,,,,,,,,,,,,,,,,,,,1464.154921155,1468.6742080499998,,,,,,,111221,0,3,1,3,0,1,2,0,34,2021_Nov_12_1456,listening_fmri,3.2.4,60.253028979956696,
7,parcelated_audio/13/13_12.ogg,,,,,,,,,0,0,0,0,0,7,7,7,0,0,0,0,,,,,,,,,,,,,0,0,0,0,0,11,11,11,,,,,,,,,,,,,,,,,,,,,,,,,,,,,,,,,,,,,,,,,,,,,,,,,,,,,,,,,,,,,,,,,,,,,,,,,,,,,,,,,,,,,,,,,,,,,,,,,,,,,,,,,1468.67475703,1477.160347125,,,,,,,111221,0,3,1,3,0,1,2,0,34,2021_Nov_12_1456,listening_fmri,3.2.4,60.253028979956696,
7,parcelated_audio/13/13_13.ogg,,,,,,,,,0,0,0,0,0,7,7,7,0,0,0,0,,,,,,,,,,,,,0,0,0,0,0,12,12,12,,,,,,,,,,,,,,,,,,,,,,,,,,,,,,,,,,,,,,,,,,,,,,,,,,,,,,,,,,,,,,,,,,,,,,,,,,,,,,,,,,,,,,,,,,,,,,,,,,,,,,,,,1477.160875265,1487.0739990059997,,,,,,,111221,0,3,1,3,0,1,2,0,34,2021_Nov_12_1456,listening_fmri,3.2.4,60.253028979956696,
7,parcelated_audio/13/13_14.ogg,,,,,,,,,0,0,0,0,0,7,7,7,0,0,0,0,,,,,,,,,,,,,0,0,0,0,0,13,13,13,,,,,,,,,,,,,,,,,,,,,,,,,,,,,,,,,,,,,,,,,,,,,,,,,,,,,,,,,,,,,,,,,,,,,,,,,,,,,,,,,,,,,,,,,,,,,,,,,,,,,,,,,1487.074258692,1495.250276755,,,,,,,111221,0,3,1,3,0,1,2,0,34,2021_Nov_12_1456,listening_fmri,3.2.4,60.253028979956696,
7,parcelated_audio/13/13_15.ogg,,,,,,,,,0,0,0,0,0,7,7,7,0,0,0,0,,,,,,,,,,,,,0,0,0,0,0,14,14,14,,,,,,,,,,,,,,,,,,,,,,,,,,,,,,,,,,,,,,,,,,,,,,,,,,,,,,,,,,,,,,,,,,,,,,,,,,,,,,,,,,,,,,,,,,,,,,,,,,,,,,,,,1495.2505499129998,1503.9271777949998,,,,,,,111221,0,3,1,3,0,1,2,0,34,2021_Nov_12_1456,listening_fmri,3.2.4,60.253028979956696,
7,parcelated_audio/13/13_16.ogg,,,,,,,,,0,0,0,0,0,7,7,7,0,0,0,0,,,,,,,,,,,,,0,0,0,0,0,15,15,15,,,,,,,,,,,,,,,,,,,,,,,,,,,,,,,,,,,,,,,,,,,,,,,,,,,,,,,,,,,,,,,,,,,,,,,,,,,,,,,,,,,,,,,,,,,,,,,,,,,,,,,,,1503.927483389,1506.260411158,,,,,,,111221,0,3,1,3,0,1,2,0,34,2021_Nov_12_1456,listening_fmri,3.2.4,60.253028979956696,
7,parcelated_audio/13/13_17.ogg,,,,,,,,,0,0,0,0,0,7,7,7,0,0,0,0,,,,,,,,,,,,,0,0,0,0,0,16,16,16,,,,,,,,,,,,,,,,,,,,,,,,,,,,,,,,,,,,,,,,,,,,,,,,,,,,,,,,,,,,,,,,,,,,,,,,,,,,,,,,,,,,,,,,,,,,,,,,,,,,,,,,,1506.260667384,1513.8313995519998,,,,,,,111221,0,3,1,3,0,1,2,0,34,2021_Nov_12_1456,listening_fmri,3.2.4,60.253028979956696,
7,parcelated_audio/13/13_18.ogg,,,,,,,,,0,0,0,0,0,7,7,7,0,0,0,0,,,,,,,,,,,,,0,0,0,0,0,17,17,17,,,,,,,,,,,,,,,,,,,,,,,,,,,,,,,,,,,,,,,,,,,,,,,,,,,,,,,,,,,,,,,,,,,,,,,,,,,,,,,,,,,,,,,,,,,,,,,,,,,,,,,,,1513.8316797409998,1524.0423746869997,,,,,,,111221,0,3,1,3,0,1,2,0,34,2021_Nov_12_1456,listening_fmri,3.2.4,60.253028979956696,
7,parcelated_audio/13/13_19.ogg,,,,,,,,,0,0,0,0,0,7,7,7,0,0,0,0,,,,,,,,,,,,,0,0,0,0,0,18,18,18,,,,,,,,,,,,,,,,,,,,,,,,,,,,,,,,,,,,,,,,,,,,,,,,,,,,,,,,,,,,,,,,,,,,,,,,,,,,,,,,,,,,,,,,,,,,,,,,,,,,,,,,,1524.0426489779998,1532.0196401809999,,,,,,,111221,0,3,1,3,0,1,2,0,34,2021_Nov_12_1456,listening_fmri,3.2.4,60.253028979956696,
7,parcelated_audio/13/13_20.ogg,,,,,,,,,0,0,0,0,0,7,7,7,0,0,0,0,,,,,,,,,,,,,0,0,0,0,0,19,19,19,,,,,,,,,,,,,,,,,,,,,,,,,,,,,,,,,,,,,,,,,,,,,,,,,,,,,,,,,,,,,,,,,,,,,,,,,,,,,,,,,,,,,,,,,,,,,,,,,,,,,,,,,1532.020162199,1537.1907068579999,,,,,,,111221,0,3,1,3,0,1,2,0,34,2021_Nov_12_1456,listening_fmri,3.2.4,60.253028979956696,
7,parcelated_audio/13/13_21.ogg,,,,,,,,,0,0,0,0,0,7,7,7,0,0,0,0,,,,,,,,,,,,,0,0,0,0,0,20,20,20,,,,,,,,,,,,,,,,,,,,,,,,,,,,,,,,,,,,,,,,,,,,,,,,,,,,,,,,,,,,,,,,,,,,,,,,,,,,,,,,,,,,,,,,,,,,,,,,,,,,,,,,,1537.1912696539998,1540.5205563,,,,,,,111221,0,3,1,3,0,1,2,0,34,2021_Nov_12_1456,listening_fmri,3.2.4,60.253028979956696,
7,parcelated_audio/13/13_22.ogg,,,,,,,,,0,0,0,0,0,7,7,7,0,0,0,0,,,,,,,,,,,,,0,0,0,0,0,21,21,21,,,,,,,,,,,,,,,,,,,,,,,,,,,,,,,,,,,,,,,,,,,,,,,,,,,,,,,,,,,,,,,,,,,,,,,,,,,,,,,,,,,,,,,,,,,,,,,,,,,,,,,,,1540.520947215,1543.9351066469999,,,,,,,111221,0,3,1,3,0,1,2,0,34,2021_Nov_12_1456,listening_fmri,3.2.4,60.253028979956696,
7,parcelated_audio/13/13_23.ogg,,,,,,,,,0,0,0,0,0,7,7,7,0,0,0,0,,,,,,,,,,,,,0,0,0,0,0,22,22,22,,,,,,,,,,,,,,,,,,,,,,,,,,,,,,,,,,,,,,,,,,,,,,,,,,,,,,,,,,,,,,,,,,,,,,,,,,,,,,,,,,,,,,,,,,,,,,,,,,,,,,,,,1543.935465639,1549.1967496309999,,,,,,,111221,0,3,1,3,0,1,2,0,34,2021_Nov_12_1456,listening_fmri,3.2.4,60.253028979956696,
7,parcelated_audio/13/13_24.ogg,,,,,,,,,0,0,0,0,0,7,7,7,0,0,0,0,,,,,,,,,,,,,0,0,0,0,0,23,23,23,,,,,,,,,,,,,,,,,,,,,,,,,,,,,,,,,,,,,,,,,,,,,,,,,,,,,,,,,,,,,,,,,,,,,,,,,,,,,,,,,,,,,,,,,,,,,,,,,,,,,,,,,1549.197103821,1558.9219204229998,,,,,,,111221,0,3,1,3,0,1,2,0,34,2021_Nov_12_1456,listening_fmri,3.2.4,60.253028979956696,
7,parcelated_audio/13/13_25.ogg,,,,,,,,,0,0,0,0,0,7,7,7,0,0,0,0,,,,,,,,,,,,,0,0,0,0,0,24,24,24,,,,,,,,,,,,,,,,,,,,,,,,,,,,,,,,,,,,,,,,,,,,,,,,,,,,,,,,,,,,,,,,,,,,,,,,,,,,,,,,,,,,,,,,,,,,,,,,,,,,,,,,,1558.922360823,1566.1906446389999,,,,,,,111221,0,3,1,3,0,1,2,0,34,2021_Nov_12_1456,listening_fmri,3.2.4,60.253028979956696,
7,parcelated_audio/13/13_26.ogg,,,,,,,,,0,0,0,0,0,7,7,7,0,0,0,0,,,,,,,,,,,,,0,0,0,0,0,25,25,25,,,,,,,,,,,,,,,,,,,,,,,,,,,,,,,,,,,,,,,,,,,,,,,,,,,,,,,,,,,,,,,,,,,,,,,,,,,,,,,,,,,,,,,,,,,,,,,,,,,,,,,,,1566.190998425,1572.387691289,,,,,,,111221,0,3,1,3,0,1,2,0,34,2021_Nov_12_1456,listening_fmri,3.2.4,60.253028979956696,
7,parcelated_audio/13/13_27.ogg,,,,,,,,,0,0,0,0,0,7,7,7,0,0,0,0,,,,,,,,,,,,,0,0,0,0,0,26,26,26,,,,,,,,,,,,,,,,,,,,,,,,,,,,,,,,,,,,,,,,,,,,,,,,,,,,,,,,,,,,,,,,,,,,,,,,,,,,,,,,,,,,,,,,,,,,,,,,,,,,,,,,,1572.38803989,1577.6464687349999,,,,,,,111221,0,3,1,3,0,1,2,0,34,2021_Nov_12_1456,listening_fmri,3.2.4,60.253028979956696,
7,parcelated_audio/13/13_28.ogg,,,,,,,,,0,0,0,0,0,7,7,7,0,0,0,0,,,,,,,,,,,,,0,0,0,0,0,27,27,27,,,,,,,,,,,,,,,,,,,,,,,,,,,,,,,,,,,,,,,,,,,,,,,,,,,,,,,,,,,,,,,,,,,,,,,,,,,,,,,,,,,,,,,,,,,,,,,,,,,,,,,,,1577.6471338439997,1583.1062898719997,,,,,,,111221,0,3,1,3,0,1,2,0,34,2021_Nov_12_1456,listening_fmri,3.2.4,60.253028979956696,
7,parcelated_audio/13/13_29.ogg,,,,,,,,,0,0,0,0,0,7,7,7,0,0,0,0,,,,,,,,,,,,,0,0,0,0,0,28,28,28,,,,,,,,,,,,,,,,,,,,,,,,,,,,,,,,,,,,,,,,,,,,,,,,,,,,,,,,,,,,,,,,,,,,,,,,,,,,,,,,,,,,,,,,,,,,,,,,,,,,,,,,,1583.106684546,1586.407581687,,,,,,,111221,0,3,1,3,0,1,2,0,34,2021_Nov_12_1456,listening_fmri,3.2.4,60.253028979956696,
7,parcelated_audio/13/13_30.ogg,,,,,,,,,0,0,0,0,0,7,7,7,0,0,0,0,,,,,,,,,,,,,0,0,0,0,0,29,29,29,,,,,,,,,,,,,,,,,,,,,,,,,,,,,,,,,,,,,,,,,,,,,,,,,,,,,,,,,,,,,,,,,,,,,,,,,,,,,,,,,,,,,,,,,,,,,,,,,,,,,,,,,1586.407913395,1589.878293969,,,,,,,111221,0,3,1,3,0,1,2,0,34,2021_Nov_12_1456,listening_fmri,3.2.4,60.253028979956696,
7,parcelated_audio/13/13_31.ogg,,,,,,,,,0,0,0,0,0,7,7,7,0,0,0,0,,,,,,,,,,,,,0,0,0,0,0,30,30,30,,,,,,,,,,,,,,,,,,,,,,,,,,,,,,,,,,,,,,,,,,,,,,,,,,,,,,,,,,,,,,,,,,,,,,,,,,,,,,,,,,,,,,,,,,,,,,,,,,,,,,,,,1589.878930883,1595.8292741169998,,,,,,,111221,0,3,1,3,0,1,2,0,34,2021_Nov_12_1456,listening_fmri,3.2.4,60.253028979956696,
7,,,,,,,,,,0,0,0,0,0,7,7,7,0,0,0,0,,,,,,,,,,,,,0,0,0,0,,,,,,,,,,,,,,,,,,,,,,,,,,,,,,,,,,,,,,,,,,,,,,,,,,,,,,,,,,,,,,,,,,,,,,,,,,,,,,,,,,,,,,,,,,,,,,,,,,,,,,,,,,,,,,,,,,,,,111221,0,3,1,3,0,1,2,0,34,2021_Nov_12_1456,listening_fmri,3.2.4,60.253028979956696,
7,,,,,,,,,,0,0,0,0,0,7,7,7,0,0,0,0,,,,,,,,,,,,,,,,,,,,,,,,,,,,,,,,,,,,,,,,,,1595.8297173819997,1601.818180584,1637.0106506499997,None,,,,,,,,,,,,,,,,,,,,,,,,,,,,,,,,,,,,,,,,,,,,,,,,,,,,,,,,,,,,,,,,,,,,,,,,,,,,,,,,,,1643.011304957,None,1643.011304957,None,,,111221,0,3,1,3,0,1,2,0,34,2021_Nov_12_1456,listening_fmri,3.2.4,60.253028979956696,
7,,,,,,,,,,0,0,0,0,0,7,7,7,,,,,,,,,,,,,,,,,,,,,,,,,,,,,,,,,,,,,,,,,,,,,,,,,,,,,,,,,,,,,,,,,,,,,,,,,,,,,,,,,,,,,,,,,,,,,,,,,,,,,,,,,,,,,,,,,,,,,,,,,,,,,,,,,,,,,,,,,111221,0,3,1,3,0,1,2,0,34,2021_Nov_12_1456,listening_fmri,3.2.4,60.253028979956696,
,,,,,,,,,,0,0,0,0,,,,,,,,,,,,,,,,,,,,,,,,,,,,,,,,,,,,,,,,,,,,,,,,,,,,,,,,,,,,,,,,,,,,,,,,,,,,,,,,,,,,,,,,,,,,,,,,,,,,,,,,,,,,,,,,,,,,,,,,,,,,,,,,,,,,,,,,,,,,,111221,0,3,1,3,0,1,2,0,34,2021_Nov_12_1456,listening_fmri,3.2.4,60.253028979956696,
,,,,,,,,,,,,,,,,,,,,,,,,,,,,,,,,,,,,,,,,,,,,,,0,0,0,0,,,,,,,,,,,,,,,,,,,,,,,,,,,,,,,,,,,,,,,,,,,,,,,,,,,,,,,,,,,,,,,,,,,,,,,,,,,,,,,,,,,,,,,,,,,,,,,,,,,,,,,1644.0511180139997,None,111221,0,3,1,3,0,1,2,0,34,2021_Nov_12_1456,listening_fmri,3.2.4,60.253028979956696,
,,,,,,,,,,,,,,,,,,,,,,,,,,,,,,,,,,,,,,,,,,,,,,1,0,1,0,,,,,,,,,,,,,,,,,,,,,,,,,,,,,,,,,,,,,,,,,,,,,,,,,,,,,,,,,,,,,,,,,,,,,,,,,,,,,,,,,,,,,,,,,,,,,,,,,,,,,,,1644.5280836049997,None,111221,0,3,1,3,0,1,2,0,34,2021_Nov_12_1456,listening_fmri,3.2.4,60.253028979956696,
,,,,,,,,,,,,,,,,,,,,,,,,,,,,,,,,,,,,,,,,,,,,,,2,0,2,0,,,,,,,,,,,,,,,,,,,,,,,,,,,,,,,,,,,,,,,,,,,,,,,,,,,,,,,,,,,,,,,,,,,,,,,,,,,,,,,,,,,,,,,,,,,,,,,,,,,,,,,1645.027993841,None,111221,0,3,1,3,0,1,2,0,34,2021_Nov_12_1456,listening_fmri,3.2.4,60.253028979956696,
,,,,,,,,,,,,,,,,,,,,,,,,,,,,,,,,,,,,,,,,,,,,,,3,0,3,0,,,,,,,,,,,,,,,,,,,,,,,,,,,,,,,,,,,,,,,,,,,,,,,,,,,,,,,,,,,,,,,,,,,,,,,,,,,,,,,,,,,,,,,,,,,,,,,,,,,,,,,1645.535152549,None,111221,0,3,1,3,0,1,2,0,34,2021_Nov_12_1456,listening_fmri,3.2.4,60.253028979956696,
,,,,,,,,,,,,,,,,,,,,,,,,,,,,,,,,,,,,,,,,,,,,,,4,0,4,0,,,,,,,,,,,,,,,,,,,,,,,,,,,,,,,,,,,,,,,,,,,,,,,,,,,,,,,,,,,,,,,,,,,,,,,,,,,,,,,,,,,,,,,,,,,,,,,,,,,,,,,1646.0280479039998,None,111221,0,3,1,3,0,1,2,0,34,2021_Nov_12_1456,listening_fmri,3.2.4,60.253028979956696,
