instruct_text,count,Q1,Q2,Q3,Q4,D1,D2,roleName,rolePic,instruct1.thisRepN,instruct1.thisTrialN,instruct1.thisN,instruct1.thisIndex,instruct3.thisRepN,instruct3.thisTrialN,instruct3.thisN,instruct3.thisIndex,instruct4.thisRepN,instruct4.thisTrialN,instruct4.thisN,instruct4.thisIndex,instruct5.thisRepN,instruct5.thisTrialN,instruct5.thisN,instruct5.thisIndex,count_4.thisRepN,count_4.thisTrialN,count_4.thisN,count_4.thisIndex,trials_5.thisRepN,trials_5.thisTrialN,trials_5.thisN,trials_5.thisIndex,instruct6.thisRepN,instruct6.thisTrialN,instruct6.thisN,instruct6.thisIndex,trials.thisRepN,trials.thisTrialN,trials.thisN,trials.thisIndex,trials_2.thisRepN,trials_2.thisTrialN,trials_2.thisN,trials_2.thisIndex,trials_4.thisRepN,trials_4.thisTrialN,trials_4.thisN,trials_4.thisIndex,trials_3.thisRepN,trials_3.thisTrialN,trials_3.thisN,trials_3.thisIndex,text.started,text.stopped,key_resp.keys,key_resp.rt,key_resp.started,key_resp.stopped,key_resp_6.keys,key_resp_6.rt,key_resp_6.started,key_resp_6.stopped,text_12.started,text_12.stopped,image_11.started,image_11.stopped,image_12.started,image_12.stopped,text_17.started,text_17.stopped,key_resp_7.keys,key_resp_7.rt,key_resp_7.started,key_resp_7.stopped,text_18.started,text_18.stopped,image_9.started,image_9.stopped,key_resp_14.keys,key_resp_14.rt,key_resp_14.started,key_resp_14.stopped,text_8.started,text_8.stopped,text_9.started,text_9.stopped,image_5.started,image_5.stopped,key_resp_10.keys,key_resp_10.rt,key_resp_10.started,key_resp_10.stopped,text_10.started,text_10.stopped,text_11.started,text_11.stopped,image_6.started,image_6.stopped,key_resp_11.keys,key_resp_11.rt,key_resp_11.started,key_resp_11.stopped,text_13.started,text_13.stopped,text_14.started,text_14.stopped,image_7.started,image_7.stopped,key_resp_12.keys,key_resp_12.rt,key_resp_12.started,key_resp_12.stopped,text_15.started,text_15.stopped,text_16.started,text_16.stopped,image_8.started,image_8.stopped,key_resp_13.keys,key_resp_13.rt,key_resp_13.started,key_resp_13.stopped,text_5.started,text_5.stopped,key_resp_4.keys,key_resp_4.rt,key_resp_4.started,key_resp_4.stopped,question1_2.started,question1_2.stopped,question2_2.started,question2_2.stopped,question3_2.started,question3_2.stopped,question4_2.started,question4_2.stopped,question5_2.started,question5_2.stopped,question6_2.started,question6_2.stopped,image_3.started,image_3.stopped,text_3.started,text_3.stopped,image_2.started,image_2.stopped,key_resp_3.keys,key_resp_3.rt,key_resp_3.started,key_resp_3.stopped,text_4.started,text_4.stopped,question1_3.started,question1_3.stopped,question2_3.started,question2_3.stopped,question3_3.started,question3_3.stopped,question4_3.started,question4_3.stopped,question5_3.started,question5_3.stopped,question6_3.started,question6_3.stopped,image_4.started,image_4.stopped,text_2.started,text_2.stopped,participant,sA,sB,lA,lB,date,expName,psychopyVersion,frameRate,
Welcome to the job simulator task! ,,,,,,,,,,0,0,0,0,,,,,,,,,,,,,,,,,,,,,,,,,,,,,,,,,,,,,,,,,9.938471099999987,None,space,14.763731046999993,9.938471099999987,None,,,,,,,,,,,,,,,,,,,,,,,,,,,,,,,,,,,,,,,,,,,,,,,,,,,,,,,,,,,,,,,,,,,,,,,,,,,,,,,,,,,,,,,,,,,,,,,,,,,,,,,,,,,,,,,040122,0,3,2,3,2022_Apr_01_1010,training_fmri,3.2.4,59.95468780578349,
In this experiment you will listen to 12 short stories. ,,,,,,,,,,0,1,1,1,,,,,,,,,,,,,,,,,,,,,,,,,,,,,,,,,,,,,,,,,24.773504468,None,space,2.7663830879999978,24.773504468,None,,,,,,,,,,,,,,,,,,,,,,,,,,,,,,,,,,,,,,,,,,,,,,,,,,,,,,,,,,,,,,,,,,,,,,,,,,,,,,,,,,,,,,,,,,,,,,,,,,,,,,,,,,,,,,,040122,0,3,2,3,2022_Apr_01_1010,training_fmri,3.2.4,59.95468780578349,
"During some of these stories, we will ask you to take on the perspective of a type of job. ",,,,,,,,,,0,2,2,2,,,,,,,,,,,,,,,,,,,,,,,,,,,,,,,,,,,,,,,,,27.572127980999994,None,space,4.483553180000001,27.572127980999994,None,,,,,,,,,,,,,,,,,,,,,,,,,,,,,,,,,,,,,,,,,,,,,,,,,,,,,,,,,,,,,,,,,,,,,,,,,,,,,,,,,,,,,,,,,,,,,,,,,,,,,,,,,,,,,,,040122,0,3,2,3,2022_Apr_01_1010,training_fmri,3.2.4,59.95468780578349,
"In other words, you should try to listen to the story from the perspective of that job. This is called “job simulation.”",,,,,,,,,,0,3,3,3,,,,,,,,,,,,,,,,,,,,,,,,,,,,,,,,,,,,,,,,,32.08976027899999,None,space,5.8294861420000075,32.08976027899999,None,,,,,,,,,,,,,,,,,,,,,,,,,,,,,,,,,,,,,,,,,,,,,,,,,,,,,,,,,,,,,,,,,,,,,,,,,,,,,,,,,,,,,,,,,,,,,,,,,,,,,,,,,,,,,,,040122,0,3,2,3,2022_Apr_01_1010,training_fmri,3.2.4,59.95468780578349,
You will be told the job to simulate before each story. ,,,,,,,,,,0,4,4,4,,,,,,,,,,,,,,,,,,,,,,,,,,,,,,,,,,,,,,,,,37.939507376999984,None,space,3.043491450999994,37.939507376999984,None,,,,,,,,,,,,,,,,,,,,,,,,,,,,,,,,,,,,,,,,,,,,,,,,,,,,,,,,,,,,,,,,,,,,,,,,,,,,,,,,,,,,,,,,,,,,,,,,,,,,,,,,,,,,,,,040122,0,3,2,3,2022_Apr_01_1010,training_fmri,3.2.4,59.95468780578349,
"Some stories, however, will not have any job assigned to them, and you can simply listen to the story.",,,,,,,,,,,,,,0,0,0,0,,,,,,,,,,,,,,,,,,,,,,,,,,,,,,,,,,,,,41.022599291000006,None,space,4.396457279000003,41.022599291000006,None,,,,,,,,,,,,,,,,,,,,,,,,,,,,,,,,,,,,,,,,,,,,,,,,,,,,,,,,,,,,,,,,,,,,,,,,,,,,,,,,,,,,,,,,,,,,,,,,,,,,,,,,,,,,,,,040122,0,3,2,3,2022_Apr_01_1010,training_fmri,3.2.4,59.95468780578349,
"In this part of the experiment outside of the scanner, we will introduce you to four perspectives you will be asked to take on.",,,,,,,,,,,,,,0,1,1,1,,,,,,,,,,,,,,,,,,,,,,,,,,,,,,,,,,,,,45.45611368600001,None,space,7.51676961299998,45.45611368600001,None,,,,,,,,,,,,,,,,,,,,,,,,,,,,,,,,,,,,,,,,,,,,,,,,,,,,,,,,,,,,,,,,,,,,,,,,,,,,,,,,,,,,,,,,,,,,,,,,,,,,,,,,,,,,,,,040122,0,3,2,3,2022_Apr_01_1010,training_fmri,3.2.4,59.95468780578349,
"For each perspective, you'll also learn 4 questions associated with it to use when listening to a story.",,,,,,,,,,,,,,0,2,2,2,,,,,,,,,,,,,,,,,,,,,,,,,,,,,,,,,,,,,53.006302990999984,None,space,5.945253903999998,53.006302990999984,None,,,,,,,,,,,,,,,,,,,,,,,,,,,,,,,,,,,,,,,,,,,,,,,,,,,,,,,,,,,,,,,,,,,,,,,,,,,,,,,,,,,,,,,,,,,,,,,,,,,,,,,,,,,,,,,040122,0,3,2,3,2022_Apr_01_1010,training_fmri,3.2.4,59.95468780578349,
We encourage you to keep these questions in mind while listening to the story and simulating the associated perspective.,,,,,,,,,,,,,,,,,,0,0,0,0,,,,,,,,,,,,,,,,,,,,,,,,,,,,,,,,,58.988991225999996,None,space,6.392408704000019,58.988991225999996,None,,,,,,,,,,,,,,,,,,,,,,,,,,,,,,,,,,,,,,,,,,,,,,,,,,,,,,,,,,,,,,,,,,,,,,,,,,,,,,,,,,,,,,,,,,,,,,,,,,,,,,,,,,,,,,,040122,0,3,2,3,2022_Apr_01_1010,training_fmri,3.2.4,59.95468780578349,
"When you are in the scanner, you will listen to the 12 short stories.",,,,,,,,,,,,,,,,,,0,1,1,1,,,,,,,,,,,,,,,,,,,,,,,,,,,,,,,,,65.42214566300001,None,space,3.54673499200004,65.42214566300001,None,,,,,,,,,,,,,,,,,,,,,,,,,,,,,,,,,,,,,,,,,,,,,,,,,,,,,,,,,,,,,,,,,,,,,,,,,,,,,,,,,,,,,,,,,,,,,,,,,,,,,,,,,,,,,,,040122,0,3,2,3,2022_Apr_01_1010,training_fmri,3.2.4,59.95468780578349,
,,,,,,,,,,,,,,,,,,,,,,,,,,,,,,,,,,,,,,,,,,,,,,,,,,,,,,,,,,,,space,8.497468722000008,68.987942962,None,,,,,,,,,,,,,,,,,,,,,,,,,,,,,,,,,,,,,,,,,,,,,,,,,,,,,,,,,,,,,,,,,,,,,,,,,,,,,,,,,,,,,,,,,,,,,,,,,,,,,,,,,,,040122,0,3,2,3,2022_Apr_01_1010,training_fmri,3.2.4,59.95468780578349,
"Before listening to each story, you may be assigned one of the perspectives to take on while listening to it.",,,,,,,,,,,,,,,,,,,,,,0,0,0,0,,,,,,,,,,,,,,,,,,,,,,,,,,,,,77.52152970199998,None,space,5.732453876999955,77.52152970199998,None,,,,,68.987942962,None,68.987942962,None,,,,,,,,,,,,,,,,,,,,,,,,,,,,,,,,,,,,,,,,,,,,,,,,,,,,,,,,,,,,,,,,,,,,,,,,,,,,,,,,,,,,,,,,,,,,,,,,,,,,,,,040122,0,3,2,3,2022_Apr_01_1010,training_fmri,3.2.4,59.95468780578349,
"If a perspective is assigned, you’ll be quizzed on the 4 questions associated with it before listening.",,,,,,,,,,,,,,,,,,,,,,0,1,1,1,,,,,,,,,,,,,,,,,,,,,,,,,,,,,83.288487898,None,space,5.283092807999992,83.288487898,None,,,,,,,,,,,,,,,,,,,,,,,,,,,,,,,,,,,,,,,,,,,,,,,,,,,,,,,,,,,,,,,,,,,,,,,,,,,,,,,,,,,,,,,,,,,,,,,,,,,,,,,,,,,,,,,040122,0,3,2,3,2022_Apr_01_1010,training_fmri,3.2.4,59.95468780578349,
You must pass this quiz to move on to the story.,,,,,,,,,,,,,,,,,,,,,,0,2,2,2,,,,,,,,,,,,,,,,,,,,,,,,,,,,,88.58820112999999,None,space,2.5884942879999926,88.58820112999999,None,,,,,,,,,,,,,,,,,,,,,,,,,,,,,,,,,,,,,,,,,,,,,,,,,,,,,,,,,,,,,,,,,,,,,,,,,,,,,,,,,,,,,,,,,,,,,,,,,,,,,,,,,,,,,,,040122,0,3,2,3,2022_Apr_01_1010,training_fmri,3.2.4,59.95468780578349,
"There will be additional tasks after the story listening, but we will explain them when we come to them.",,,,,,,,,,,,,,,,,,,,,,0,3,3,3,,,,,,,,,,,,,,,,,,,,,,,,,,,,,91.22227132499998,None,space,5.050421130000018,91.22227132499998,None,,,,,,,,,,,,,,,,,,,,,,,,,,,,,,,,,,,,,,,,,,,,,,,,,,,,,,,,,,,,,,,,,,,,,,,,,,,,,,,,,,,,,,,,,,,,,,,,,,,,,,,,,,,,,,,040122,0,3,2,3,2022_Apr_01_1010,training_fmri,3.2.4,59.95468780578349,
Are you ready to begin the training on the perspectives?,,,,,,,,,,,,,,,,,,,,,,0,4,4,4,,,,,,,,,,,,,,,,,,,,,,,,,,,,,96.32239637400002,None,space,3.2810049800000343,96.32239637400002,None,,,,,,,,,,,,,,,,,,,,,,,,,,,,,,,,,,,,,,,,,,,,,,,,,,,,,,,,,,,,,,,,,,,,,,,,,,,,,,,,,,,,,,,,,,,,,,,,,,,,,,,,,,,,,,,040122,0,3,2,3,2022_Apr_01_1010,training_fmri,3.2.4,59.95468780578349,
The four perspectives are as follows:,,,,,,,,,,,,,,,,,,,,,,0,5,5,5,,,,,,,,,,,,,,,,,,,,,,,,,,,,,99.62205968099997,None,space,2.038446198000031,99.62205968099997,None,,,,,,,,,,,,,,,,,,,,,,,,,,,,,,,,,,,,,,,,,,,,,,,,,,,,,,,,,,,,,,,,,,,,,,,,,,,,,,,,,,,,,,,,,,,,,,,,,,,,,,,,,,,,,,,040122,0,3,2,3,2022_Apr_01_1010,training_fmri,3.2.4,59.95468780578349,
,2,"What is the grocery store like upon entering?
",What items do the clients pick out to buy?,"How many checkout lanes are open, and which one do the clients step into?
","How much are the groceries, and what method of payment do the clients use?
",What is the grocery store like when the clients leave?,"How many checkout lanes are closed, and which one do the clients step into?","Grocery Store Customer Experience Manager
",jobphotos/gscem.jpg,,,,,,,,,,,,,,,,,0,0,0,2,0,0,0,0,,,,,,,,,,,,,,,,,,,,,,,,,,,,,,,,,,,101.73988323699999,None,101.73988323699999,None,space,3.2842953250000164,101.73988323699999,None,,,,,,,,,,,,,,,,,,,,,,,,,,,,,,,,,,,,,,,,,,,,,,,,,,,,,,,,,,,,,,,,,,,,,,,,,,,,,,,,,,,,,,,,,,,,,,,040122,0,3,2,3,2022_Apr_01_1010,training_fmri,3.2.4,59.95468780578349,
,2,,,,,,,,,,,,,,,,,,,,,,,,,0,0,0,2,,,,,,,,,,,,,,,,,,,,,,,,,,,,,,,,,,,,,,,,,,,,,,,,,,,,,,,,,,,,,,,,,,,,,,,,,,,,,,,,,,,,,,,,,,,,,,,,,,,,,,,,,,,,,,,,,,,,,,,,,,,,,,,,,,,,,,,,,,,,,040122,0,3,2,3,2022_Apr_01_1010,training_fmri,3.2.4,59.95468780578349,
,3,"What is the lecture hall like?
","What class are the students in, and what is the day’s lecture about?
","What is something taught in lecture?
","What is the next assessment/assignment for the class, and when is it scheduled/due?","What class are the students in, and what was yesterday’s lecture about?","What is the lecture hall’s max capacity?
",Dean of Academic Studies,jobphotos/dean.jpg,,,,,,,,,,,,,,,,,0,1,1,3,0,0,0,0,,,,,,,,,,,,,,,,,,,,,,,,,,,,,,,,,,,105.13916941300002,None,105.13916941300002,None,space,2.1347729189999995,105.13916941300002,None,,,,,,,,,,,,,,,,,,,,,,,,,,,,,,,,,,,,,,,,,,,,,,,,,,,,,,,,,,,,,,,,,,,,,,,,,,,,,,,,,,,,,,,,,,,,,,,040122,0,3,2,3,2022_Apr_01_1010,training_fmri,3.2.4,59.95468780578349,
,3,,,,,,,,,,,,,,,,,,,,,,,,,0,1,1,3,,,,,,,,,,,,,,,,,,,,,,,,,,,,,,,,,,,,,,,,,,,,,,,,,,,,,,,,,,,,,,,,,,,,,,,,,,,,,,,,,,,,,,,,,,,,,,,,,,,,,,,,,,,,,,,,,,,,,,,,,,,,,,,,,,,,,,,,,,,,,040122,0,3,2,3,2022_Apr_01_1010,training_fmri,3.2.4,59.95468780578349,
,0,For how long has the initiator of the breakup been thinking about breaking up with his/her partner?,"What is the initial reason stated by the initiator for why he/she is breaking up?
","Does the person who is being broken up with want to break up, and what’s the reason stated by them for this?",Who wants what items back as a result of the breakup?,What is the initial reason stated by the initiator for why he/she wanted to meet?,Who wants how many letters burned as a result of the breakup?,"Couples Therapist
",jobphotos/couples.jpg,,,,,,,,,,,,,,,,,0,2,2,0,0,0,0,0,,,,,,,,,,,,,,,,,,,,,,,,,,,,,,,,,,,107.33894975399997,None,107.33894975399997,None,space,1.4509760279999568,107.33894975399997,None,,,,,,,,,,,,,,,,,,,,,,,,,,,,,,,,,,,,,,,,,,,,,,,,,,,,,,,,,,,,,,,,,,,,,,,,,,,,,,,,,,,,,,,,,,,,,,,040122,0,3,2,3,2022_Apr_01_1010,training_fmri,3.2.4,59.95468780578349,
,0,,,,,,,,,,,,,,,,,,,,,,,,,0,2,2,0,,,,,,,,,,,,,,,,,,,,,,,,,,,,,,,,,,,,,,,,,,,,,,,,,,,,,,,,,,,,,,,,,,,,,,,,,,,,,,,,,,,,,,,,,,,,,,,,,,,,,,,,,,,,,,,,,,,,,,,,,,,,,,,,,,,,,,,,,,,,,040122,0,3,2,3,2022_Apr_01_1010,training_fmri,3.2.4,59.95468780578349,
,1,What object is the initiator of the interaction holding when he/she first notices the other person?,What is the initial question that begins the conversation between the couple?,When will be the next time the couple meets and for what occasion?,"What time is it when the couple parts?
",What is the initial question that ends the conversation between the couple?,What object is the initiator of the interaction holding when he/she leaves the other person?,Matchmaker,jobphotos/matchmaker.jpg,,,,,,,,,,,,,,,,,0,3,3,1,0,0,0,0,,,,,,,,,,,,,,,,,,,,,,,,,,,,,,,,,,,108.856066449,None,108.856066449,None,space,1.785947630999999,108.856066449,None,,,,,,,,,,,,,,,,,,,,,,,,,,,,,,,,,,,,,,,,,,,,,,,,,,,,,,,,,,,,,,,,,,,,,,,,,,,,,,,,,,,,,,,,,,,,,,,040122,0,3,2,3,2022_Apr_01_1010,training_fmri,3.2.4,59.95468780578349,
,1,,,,,,,,,,,,,,,,,,,,,,,,,0,3,3,1,,,,,,,,,,,,,,,,,,,,,,,,,,,,,,,,,,,,,,,,,,,,,,,,,,,,,,,,,,,,,,,,,,,,,,,,,,,,,,,,,,,,,,,,,,,,,,,,,,,,,,,,,,,,,,,,,,,,,,,,,,,,,,,,,,,,,,,,,,,,,040122,0,3,2,3,2022_Apr_01_1010,training_fmri,3.2.4,59.95468780578349,
You’ll become acquainted with them more in learning the 4 questions associated with each perspective.,,,,,,,,,,,,,,,,,,,,,,,,,,,,,,,,,,0,0,0,0,,,,,,,,,,,,,,,,,110.68841180199999,None,space,4.722762520999993,110.68841180199999,None,,,,,,,,,,,,,,,,,,,,,,,,,,,,,,,,,,,,,,,,,,,,,,,,,,,,,,,,,,,,,,,,,,,,,,,,,,,,,,,,,,,,,,,,,,,,,,,,,,,,,,,,,,,,,,,040122,0,3,2,3,2022_Apr_01_1010,training_fmri,3.2.4,59.95468780578349,
"For each perspective, you'll go through all four questions in a sequence.",,,,,,,,,,,,,,,,,,,,,,,,,,,,,,,,,,0,1,1,1,,,,,,,,,,,,,,,,,115.45539410299997,None,space,3.763129104999962,115.45539410299997,None,,,,,,,,,,,,,,,,,,,,,,,,,,,,,,,,,,,,,,,,,,,,,,,,,,,,,,,,,,,,,,,,,,,,,,,,,,,,,,,,,,,,,,,,,,,,,,,,,,,,,,,,,,,,,,,040122,0,3,2,3,2022_Apr_01_1010,training_fmri,3.2.4,59.95468780578349,
Then you'll be presented with a quiz and have to indicate which questions you saw in the order in which they appeared in the sequence.,,,,,,,,,,,,,,,,,,,,,,,,,,,,,,,,,,0,2,2,2,,,,,,,,,,,,,,,,,119.25441195300002,None,space,7.162578979999978,119.25441195300002,None,,,,,,,,,,,,,,,,,,,,,,,,,,,,,,,,,,,,,,,,,,,,,,,,,,,,,,,,,,,,,,,,,,,,,,,,,,,,,,,,,,,,,,,,,,,,,,,,,,,,,,,,,,,,,,,040122,0,3,2,3,2022_Apr_01_1010,training_fmri,3.2.4,59.95468780578349,
You'll indicate the question you select by pressing the number key corresponding to the number in front of the question.,,,,,,,,,,,,,,,,,,,,,,,,,,,,,,,,,,0,3,3,3,,,,,,,,,,,,,,,,,126.45538843099999,None,space,5.052969233999988,126.45538843099999,None,,,,,,,,,,,,,,,,,,,,,,,,,,,,,,,,,,,,,,,,,,,,,,,,,,,,,,,,,,,,,,,,,,,,,,,,,,,,,,,,,,,,,,,,,,,,,,,,,,,,,,,,,,,,,,,040122,0,3,2,3,2022_Apr_01_1010,training_fmri,3.2.4,59.95468780578349,
"If you make the wrong selection, you'll get the 4 questions presented in the correct order again and restart the quiz.",,,,,,,,,,,,,,,,,,,,,,,,,,,,,,,,,,0,4,4,4,,,,,,,,,,,,,,,,,131.555257614,None,space,6.968088380999973,131.555257614,None,,,,,,,,,,,,,,,,,,,,,,,,,,,,,,,,,,,,,,,,,,,,,,,,,,,,,,,,,,,,,,,,,,,,,,,,,,,,,,,,,,,,,,,,,,,,,,,,,,,,,,,,,,,,,,,040122,0,3,2,3,2022_Apr_01_1010,training_fmri,3.2.4,59.95468780578349,
"After you've passed the quizzes for each perspective, you'll do all of them a final time, but without seeing the correct order of the questions beforehand.",,,,,,,,,,,,,,,,,,,,,,,,,,,,,,,,,,0,5,5,5,,,,,,,,,,,,,,,,,138.57146095699997,None,space,6.321252591000018,138.57146095699997,None,,,,,,,,,,,,,,,,,,,,,,,,,,,,,,,,,,,,,,,,,,,,,,,,,,,,,,,,,,,,,,,,,,,,,,,,,,,,,,,,,,,,,,,,,,,,,,,,,,,,,,,,,,,,,,,040122,0,3,2,3,2022_Apr_01_1010,training_fmri,3.2.4,59.95468780578349,
Press space to begin!,,,,,,,,,,,,,,,,,,,,,,,,,,,,,,,,,,0,6,6,6,,,,,,,,,,,,,,,,,144.92104422600002,None,space,0.979222381999989,144.92104422600002,None,,,,,,,,,,,,,,,,,,,,,,,,,,,,,,,,,,,,,,,,,,,,,,,,,,,,,,,,,,,,,,,,,,,,,,,,,,,,,,,,,,,,,,,,,,,,,,,,,,,,,,,,,,,,,,,040122,0,3,2,3,2022_Apr_01_1010,training_fmri,3.2.4,59.95468780578349,
,1,What object is the initiator of the interaction holding when he/she first notices the other person?,What is the initial question that begins the conversation between the couple?,When will be the next time the couple meets and for what occasion?,"What time is it when the couple parts?
",What is the initial question that ends the conversation between the couple?,What object is the initiator of the interaction holding when he/she leaves the other person?,Matchmaker,jobphotos/matchmaker.jpg,,,,,,,,,,,,,,,,,,,,,,,,,,,,,0,0,0,1,0,0,0,0,,,,,,,,,,,,,,,,,,,,,,,,,,,,,,,145.955025215,None,145.955025215,None,space,8.687770124999986,145.955025215,None,154.70479620799998,None,154.70479620799998,None,154.70479620799998,None,space,8.699607756000034,154.70479620799998,None,163.472320063,None,163.472320063,None,163.472320063,None,space,6.115818085000001,163.472320063,None,169.65497501500002,None,169.65497501500002,None,169.65497501500002,None,space,4.070172654000032,169.65497501500002,None,173.78923429699998,None,173.78923429699998,None,173.78923429699998,None,space,6.746767879999993,173.78923429699998,None,180.55454719000002,None,space,2.275523195000005,180.55454719000002,None,182.97233400000002,None,182.97233400000002,None,182.97233400000002,None,182.97233400000002,None,182.97233400000002,None,182.97233400000002,None,182.97233400000002,None,,,,,,,,,,,,,,,,,,,,,,,,,,,040122,0,3,2,3,2022_Apr_01_1010,training_fmri,3.2.4,59.95468780578349,
,1,,,,,,,,,,,,,,,,,,,,,,,,,,,,,,,,,,,,,0,0,0,1,,,,,,,,,,,,,,,,,,,,,,,,,,,,,,,,,,,,,,,,,,,,,,,,,,,,,,,,,,,,,,,,,,,,,,,,,,,,,,,,,,,,,,,,,,,,,,,,,,,,,,,,,,,,,,,,,,,,,,,,,,,,,,,,,040122,0,3,2,3,2022_Apr_01_1010,training_fmri,3.2.4,59.95468780578349,
,0,For how long has the initiator of the breakup been thinking about breaking up with his/her partner?,"What is the initial reason stated by the initiator for why he/she is breaking up?
","Does the person who is being broken up with want to break up, and what’s the reason stated by them for this?",Who wants what items back as a result of the breakup?,What is the initial reason stated by the initiator for why he/she wanted to meet?,Who wants how many letters burned as a result of the breakup?,"Couples Therapist
",jobphotos/couples.jpg,,,,,,,,,,,,,,,,,,,,,,,,,,,,,0,1,1,0,0,0,0,0,,,,,,,,,,,,,,,,,,,,,,,,,,,,,,,208.40356258799997,None,208.40356258799997,None,space,2.0220072800000253,208.40356258799997,None,210.48846246600002,None,210.48846246600002,None,210.48846246600002,None,space,6.30938108700002,210.48846246600002,None,216.854855265,None,216.854855265,None,216.854855265,None,space,5.0663222500000415,216.854855265,None,221.987856294,None,221.987856294,None,221.987856294,None,space,8.16311913100003,221.987856294,None,230.203898102,None,230.203898102,None,230.203898102,None,space,4.567576459999998,230.203898102,None,234.80298519099998,None,space,1.162282609999977,234.80298519099998,None,236.08739349099997,None,236.08739349099997,None,236.08739349099997,None,236.08739349099997,None,236.08739349099997,None,236.08739349099997,None,236.08739349099997,None,,,,,,,,,,,,,,,,,,,,,,,,,,,040122,0,3,2,3,2022_Apr_01_1010,training_fmri,3.2.4,59.95468780578349,
,0,,,,,,,,,,,,,,,,,,,,,,,,,,,,,,,,,,,,,0,1,1,0,,,,,,,,,,,,,,,,,,,,,,,,,,,,,,,,,,,,,,,,,,,,,,,,,,,,,,,,,,,,,,,,,,,,,,,,,,,,,,,,,,,,,,,,,,,,,,,,,,,,,,,,,,,,,,,,,,,,,,,,,,,,,,,,,040122,0,3,2,3,2022_Apr_01_1010,training_fmri,3.2.4,59.95468780578349,
,2,"What is the grocery store like upon entering?
",What items do the clients pick out to buy?,"How many checkout lanes are open, and which one do the clients step into?
","How much are the groceries, and what method of payment do the clients use?
",What is the grocery store like when the clients leave?,"How many checkout lanes are closed, and which one do the clients step into?","Grocery Store Customer Experience Manager
",jobphotos/gscem.jpg,,,,,,,,,,,,,,,,,,,,,,,,,,,,,0,2,2,2,0,0,0,0,,,,,,,,,,,,,,,,,,,,,,,,,,,,,,,253.13770256299998,None,253.13770256299998,None,space,1.6338351339999804,253.13770256299998,None,254.837854352,None,254.837854352,None,254.837854352,None,space,6.300138500000003,254.837854352,None,261.20418007599994,None,261.20418007599994,None,261.20418007599994,None,space,3.2968058710000037,261.20418007599994,None,264.55278555999996,None,264.55278555999996,None,264.55278555999996,None,space,4.481085692000022,264.55278555999996,None,269.08736331800003,None,269.08736331800003,None,269.08736331800003,None,space,5.35939096300001,269.08736331800003,None,274.46981129799997,None,space,0.6059119100000316,274.46981129799997,None,275.187394457,None,275.187394457,None,275.187394457,None,275.187394457,None,275.187394457,None,275.187394457,None,275.187394457,None,,,,,,,,,,,,,,,,,,,,,,,,,,,040122,0,3,2,3,2022_Apr_01_1010,training_fmri,3.2.4,59.95468780578349,
,2,,,,,,,,,,,,,,,,,,,,,,,,,,,,,,,,,,,,,0,2,2,2,,,,,,,,,,,,,,,,,,,,,,,,,,,,,,,,,,,,,,,,,,,,,,,,,,,,,,,,,,,,,,,,,,,,,,,,,,,,,,,,,,,,,,,,,,,,,,,,,,,,,,,,,,,,,,,,,,,,,,,,,,,,,,,,,040122,0,3,2,3,2022_Apr_01_1010,training_fmri,3.2.4,59.95468780578349,
,3,"What is the lecture hall like?
","What class are the students in, and what is the day’s lecture about?
","What is something taught in lecture?
","What is the next assessment/assignment for the class, and when is it scheduled/due?","What class are the students in, and what was yesterday’s lecture about?","What is the lecture hall’s max capacity?
",Dean of Academic Studies,jobphotos/dean.jpg,,,,,,,,,,,,,,,,,,,,,,,,,,,,,0,3,3,3,0,0,0,0,,,,,,,,,,,,,,,,,,,,,,,,,,,,,,,286.636637252,None,286.636637252,None,space,1.0355343569999604,286.636637252,None,287.73692526900004,None,287.73692526900004,None,287.73692526900004,None,space,3.2323095969999827,287.73692526900004,None,291.020058941,None,291.020058941,None,291.020058941,None,space,6.013791753000021,291.020058941,None,297.08636667999997,None,297.08636667999997,None,297.08636667999997,None,space,3.760238589000039,297.08636667999997,None,300.903423558,None,300.903423558,None,300.903423558,None,space,7.496860432000005,300.903423558,None,308.41869719299996,None,space,0.6732182559999842,308.41869719299996,None,309.20371532800004,None,309.20371532800004,None,309.20371532800004,None,309.20371532800004,None,309.20371532800004,None,309.20371532800004,None,309.20371532800004,None,,,,,,,,,,,,,,,,,,,,,,,,,,,040122,0,3,2,3,2022_Apr_01_1010,training_fmri,3.2.4,59.95468780578349,
,3,,,,,,,,,,,,,,,,,,,,,,,,,,,,,,,,,,,,,0,3,3,3,,,,,,,,,,,,,,,,,,,,,,,,,,,,,,,,,,,,,,,,,,,,,,,,,,,,,,,,,,,,,,,,,,,,,,,,,,,,,,,,,,,,,,,,,,,,,,,,,,,,,,,,,,,,,,,,,,,,,,,,,,,,,,,,,040122,0,3,2,3,2022_Apr_01_1010,training_fmri,3.2.4,59.95468780578349,
,3,"What is the lecture hall like?
","What class are the students in, and what is the day’s lecture about?
","What is something taught in lecture?
","What is the next assessment/assignment for the class, and when is it scheduled/due?","What class are the students in, and what was yesterday’s lecture about?","What is the lecture hall’s max capacity?
",Dean of Academic Studies,jobphotos/dean.jpg,,,,,,,,,,,,,,,,,,,,,,,,,,,,,,,,,,,,,0,0,0,3,0,0,0,0,,,,,,,,,,,,,,,,,,,,,,,,,,,,,,,,,,,,,,,,,,,,,,,,,,,,,,,,,,,,,,,,,,,,,,,,,,,,,,,,,,,,,,,,,,,320.90169434899997,None,321.936961642,None,space,0.8205806239999447,321.936961642,None,321.936961642,None,322.869684282,None,322.869684282,None,322.869684282,None,322.869684282,None,322.869684282,None,322.869684282,None,322.869684282,None,,,040122,0,3,2,3,2022_Apr_01_1010,training_fmri,3.2.4,59.95468780578349,
,3,,,,,,,,,,,,,,,,,,,,,,,,,,,,,,,,,,,,,,,,,,,,,0,0,0,3,,,,,,,,,,,,,,,,,,,,,,,,,,,,,,,,,,,,,,,,,,,,,,,,,,,,,,,,,,,,,,,,,,,,,,,,,,,,,,,,,,,,,,,,,,,,,,,,,,,,,,,,,,,,,,,,,,,,,,,,,040122,0,3,2,3,2022_Apr_01_1010,training_fmri,3.2.4,59.95468780578349,
,0,For how long has the initiator of the breakup been thinking about breaking up with his/her partner?,"What is the initial reason stated by the initiator for why he/she is breaking up?
","Does the person who is being broken up with want to break up, and what’s the reason stated by them for this?",Who wants what items back as a result of the breakup?,What is the initial reason stated by the initiator for why he/she wanted to meet?,Who wants how many letters burned as a result of the breakup?,"Couples Therapist
",jobphotos/couples.jpg,,,,,,,,,,,,,,,,,,,,,,,,,,,,,,,,,,,,,0,1,1,0,0,0,0,0,,,,,,,,,,,,,,,,,,,,,,,,,,,,,,,,,,,,,,,,,,,,,,,,,,,,,,,,,,,,,,,,,,,,,,,,,,,,,,,,,,,,,,,,,,,,,337.403396125,None,space,1.9186052930000415,337.403396125,None,337.403396125,None,339.45340117700005,None,339.45340117700005,None,339.45340117700005,None,339.45340117700005,None,339.45340117700005,None,339.45340117700005,None,339.45340117700005,None,,,040122,0,3,2,3,2022_Apr_01_1010,training_fmri,3.2.4,59.95468780578349,
,0,,,,,,,,,,,,,,,,,,,,,,,,,,,,,,,,,,,,,,,,,,,,,0,1,1,0,,,,,,,,,,,,,,,,,,,,,,,,,,,,,,,,,,,,,,,,,,,,,,,,,,,,,,,,,,,,,,,,,,,,,,,,,,,,,,,,,,,,,,,,,,,,,,,,,,,,,,,,,,,,,,,,,,,,,,,,,040122,0,3,2,3,2022_Apr_01_1010,training_fmri,3.2.4,59.95468780578349,
,2,"What is the grocery store like upon entering?
",What items do the clients pick out to buy?,"How many checkout lanes are open, and which one do the clients step into?
","How much are the groceries, and what method of payment do the clients use?
",What is the grocery store like when the clients leave?,"How many checkout lanes are closed, and which one do the clients step into?","Grocery Store Customer Experience Manager
",jobphotos/gscem.jpg,,,,,,,,,,,,,,,,,,,,,,,,,,,,,,,,,,,,,0,2,2,2,0,0,0,0,,,,,,,,,,,,,,,,,,,,,,,,,,,,,,,,,,,,,,,,,,,,,,,,,,,,,,,,,,,,,,,,,,,,,,,,,,,,,,,,,,,,,,,,,,,,,352.03607525100006,None,space,0.6895665540000664,352.03607525100006,None,352.03607525100006,None,352.85278979500004,None,352.85278979500004,None,352.85278979500004,None,352.85278979500004,None,352.85278979500004,None,352.85278979500004,None,352.85278979500004,None,,,040122,0,3,2,3,2022_Apr_01_1010,training_fmri,3.2.4,59.95468780578349,
,2,,,,,,,,,,,,,,,,,,,,,,,,,,,,,,,,,,,,,,,,,,,,,0,2,2,2,,,,,,,,,,,,,,,,,,,,,,,,,,,,,,,,,,,,,,,,,,,,,,,,,,,,,,,,,,,,,,,,,,,,,,,,,,,,,,,,,,,,,,,,,,,,,,,,,,,,,,,,,,,,,,,,,,,,,,,,,040122,0,3,2,3,2022_Apr_01_1010,training_fmri,3.2.4,59.95468780578349,
,1,What object is the initiator of the interaction holding when he/she first notices the other person?,What is the initial question that begins the conversation between the couple?,When will be the next time the couple meets and for what occasion?,"What time is it when the couple parts?
",What is the initial question that ends the conversation between the couple?,What object is the initiator of the interaction holding when he/she leaves the other person?,Matchmaker,jobphotos/matchmaker.jpg,,,,,,,,,,,,,,,,,,,,,,,,,,,,,,,,,,,,,0,3,3,1,0,0,0,0,,,,,,,,,,,,,,,,,,,,,,,,,,,,,,,,,,,,,,,,,,,,,,,,,,,,,,,,,,,,,,,,,,,,,,,,,,,,,,,,,,,,,,,,,,,,,366.76946401099997,None,space,0.832618937999996,366.76946401099997,None,366.76946401099997,None,367.73538129200006,None,367.73538129200006,None,367.73538129200006,None,367.73538129200006,None,367.73538129200006,None,367.73538129200006,None,367.73538129200006,None,,,040122,0,3,2,3,2022_Apr_01_1010,training_fmri,3.2.4,59.95468780578349,
,1,,,,,,,,,,,,,,,,,,,,,,,,,,,,,,,,,,,,,,,,,,,,,0,3,3,1,,,,,,,,,,,,,,,,,,,,,,,,,,,,,,,,,,,,,,,,,,,,,,,,,,,,,,,,,,,,,,,,,,,,,,,,,,,,,,,,,,,,,,,,,,,,,,,,,,,,,,,,,,,,,,,,,,,,,,,,,040122,0,3,2,3,2022_Apr_01_1010,training_fmri,3.2.4,59.95468780578349,
,,,,,,,,,,,,,,,,,,,,,,,,,,,,,,,,,,,,,,,,,,,,,,,,,,,,,,,,,,,,,,,,,,,,,,,,,,,,,,,,,,,,,,,,,,,,,,,,,,,,,,,,,,,,,,,,,,,,,,,,,,,,,,,,,,,,,,,,,,,,,,,,,,,,,,,,,,,,,,,,,,,,,,,,381.467649502,None,,,,,,,,,,
