count,audio,trials_14.thisRepN,trials_14.thisTrialN,trials_14.thisN,trials_14.thisIndex,trials_3.thisRepN,trials_3.thisTrialN,trials_3.thisN,trials_3.thisIndex,trials_4.thisRepN,trials_4.thisTrialN,trials_4.thisN,trials_4.thisIndex,trials_6.thisRepN,trials_6.thisTrialN,trials_6.thisN,trials_6.thisIndex,trials_9.thisRepN,trials_9.thisTrialN,trials_9.thisN,trials_9.thisIndex,trials_10.thisRepN,trials_10.thisTrialN,trials_10.thisN,trials_10.thisIndex,trials_12.thisRepN,trials_12.thisTrialN,trials_12.thisN,trials_12.thisIndex,trials_25.thisRepN,trials_25.thisTrialN,trials_25.thisN,trials_25.thisIndex,trials_15.thisRepN,trials_15.thisTrialN,trials_15.thisN,trials_15.thisIndex,trials_26.thisRepN,trials_26.thisTrialN,trials_26.thisN,trials_26.thisIndex,trials_11.thisRepN,trials_11.thisTrialN,trials_11.thisN,trials_11.thisIndex,trials_8.thisRepN,trials_8.thisTrialN,trials_8.thisN,trials_8.thisIndex,story_list_block2,action_list_block2,textTrigger.started,textTrigger.stopped,getTrigger.keys,getTrigger.rt,getTrigger.started,getTrigger.stopped,triggerTime,text_76.started,text_76.stopped,text_77.started,text_77.stopped,startWait,endWait,image_23.started,image_23.stopped,text_55.started,text_55.stopped,text_56.started,text_56.stopped,key_resp_2.keys,key_resp_2.rt,key_resp_2.started,key_resp_2.stopped,text_82.started,text_82.stopped,text_64.started,text_64.stopped,key_resp_20.keys,key_resp_20.rt,key_resp_20.started,key_resp_20.stopped,storyImage_StartTime,storyImage_EndTime,clip_StartTime,clip_EndTime,text_67.started,text_67.stopped,text_68.started,text_68.stopped,text_57.started,text_57.stopped,key_resp_17.keys,key_resp_17.rt,key_resp_17.started,key_resp_17.stopped,text_83.started,text_83.stopped,text_60.started,text_60.stopped,image_2.started,image_2.stopped,text_58.started,text_58.stopped,key_resp_23.keys,key_resp_23.rt,key_resp_23.started,key_resp_23.stopped,text_62.started,text_62.stopped,key_resp_18.keys,key_resp_18.rt,key_resp_18.started,key_resp_18.stopped,text_84.started,text_84.stopped,question1_2.started,question1_2.stopped,question2_2.started,question2_2.stopped,question3_2.started,question3_2.stopped,question4_2.started,question4_2.stopped,question5_2.started,question5_2.stopped,question6_2.started,question6_2.stopped,image_15.started,image_15.stopped,key_resp.keys,key_resp.started,key_resp.stopped,text_59.started,text_59.stopped,key_resp_19.keys,key_resp_19.rt,key_resp_19.started,key_resp_19.stopped,text_85.started,text_85.stopped,text_61.started,text_61.stopped,image_17.started,image_17.stopped,text_63.started,text_63.stopped,key_resp_24.keys,key_resp_24.rt,key_resp_24.started,key_resp_24.stopped,text_36.started,text_36.stopped,participant,sA,sB,lA,lB,block_struct,play_stories,block,behavioral,random_seed,date,expName,psychopyVersion,frameRate,
0,parcelated_audio/22/22_1.ogg,,,,,,,,,0,0,0,0,0,0,0,0,0,0,0,0,,,,,,,,,0,0,0,0,0,0,0,0,,,,,,,,,,,,,[22 33 13 11 42 31 24 44],[4 2 3 1 1 4 2 3],14.470236386000124,None,equal,119.76974609200033,14.470236386000124,None,119.7939844829998,14.470236386000124,None,14.470236386000124,None,0.0003641889998107217,5.999034029000086,134.2669998360002,None,140.269202167,None,140.269202167,None,1,0.9606487869996272,140.269202167,None,140.269202167,None,141.2510632450003,None,1,0.9997829930002808,141.2510632450003,None,8.006504396999844,11.015308588000153,11.021566541000084,24.084677544999977,,,,,,,,,,,,,,,,,,,,,,,,,,,,,,,,,,,,,,,,,,,,,,,,,,,,,,,,,,,,,,,,,,,,040122,0,3,2,3,0,1,2,0,36,2022_Apr_01_1129,listening_fmri,3.2.4,60.158820971776684,
0,parcelated_audio/22/22_2.ogg,,,,,,,,,0,0,0,0,0,0,0,0,0,0,0,0,,,,,,,,,0,0,0,0,0,1,1,1,,,,,,,,,,,,,,,,,,,,,,,,,,,,,,,,,,,,,,,,,,,,,,,,24.08499317499991,30.46511673399982,,,,,,,,,,,,,,,,,,,,,,,,,,,,,,,,,,,,,,,,,,,,,,,,,,,,,,,,,,,,,,,,,,,,040122,0,3,2,3,0,1,2,0,36,2022_Apr_01_1129,listening_fmri,3.2.4,60.158820971776684,
0,parcelated_audio/22/22_3.ogg,,,,,,,,,0,0,0,0,0,0,0,0,0,0,0,0,,,,,,,,,0,0,0,0,0,2,2,2,,,,,,,,,,,,,,,,,,,,,,,,,,,,,,,,,,,,,,,,,,,,,,,,30.466661533000206,43.37975821500004,,,,,,,,,,,,,,,,,,,,,,,,,,,,,,,,,,,,,,,,,,,,,,,,,,,,,,,,,,,,,,,,,,,,040122,0,3,2,3,0,1,2,0,36,2022_Apr_01_1129,listening_fmri,3.2.4,60.158820971776684,
0,parcelated_audio/22/22_4.ogg,,,,,,,,,0,0,0,0,0,0,0,0,0,0,0,0,,,,,,,,,0,0,0,0,0,3,3,3,,,,,,,,,,,,,,,,,,,,,,,,,,,,,,,,,,,,,,,,,,,,,,,,43.3802997759999,55.78409009000006,,,,,,,,,,,,,,,,,,,,,,,,,,,,,,,,,,,,,,,,,,,,,,,,,,,,,,,,,,,,,,,,,,,,040122,0,3,2,3,0,1,2,0,36,2022_Apr_01_1129,listening_fmri,3.2.4,60.158820971776684,
0,parcelated_audio/22/22_5.ogg,,,,,,,,,0,0,0,0,0,0,0,0,0,0,0,0,,,,,,,,,0,0,0,0,0,4,4,4,,,,,,,,,,,,,,,,,,,,,,,,,,,,,,,,,,,,,,,,,,,,,,,,55.78461811099987,61.7120087469998,,,,,,,,,,,,,,,,,,,,,,,,,,,,,,,,,,,,,,,,,,,,,,,,,,,,,,,,,,,,,,,,,,,,040122,0,3,2,3,0,1,2,0,36,2022_Apr_01_1129,listening_fmri,3.2.4,60.158820971776684,
0,parcelated_audio/22/22_6.ogg,,,,,,,,,0,0,0,0,0,0,0,0,0,0,0,0,,,,,,,,,0,0,0,0,0,5,5,5,,,,,,,,,,,,,,,,,,,,,,,,,,,,,,,,,,,,,,,,,,,,,,,,61.71253566199994,70.90993626399995,,,,,,,,,,,,,,,,,,,,,,,,,,,,,,,,,,,,,,,,,,,,,,,,,,,,,,,,,,,,,,,,,,,,040122,0,3,2,3,0,1,2,0,36,2022_Apr_01_1129,listening_fmri,3.2.4,60.158820971776684,
0,parcelated_audio/22/22_7.ogg,,,,,,,,,0,0,0,0,0,0,0,0,0,0,0,0,,,,,,,,,0,0,0,0,0,6,6,6,,,,,,,,,,,,,,,,,,,,,,,,,,,,,,,,,,,,,,,,,,,,,,,,70.91028110900015,75.99050455999986,,,,,,,,,,,,,,,,,,,,,,,,,,,,,,,,,,,,,,,,,,,,,,,,,,,,,,,,,,,,,,,,,,,,040122,0,3,2,3,0,1,2,0,36,2022_Apr_01_1129,listening_fmri,3.2.4,60.158820971776684,
0,parcelated_audio/22/22_8.ogg,,,,,,,,,0,0,0,0,0,0,0,0,0,0,0,0,,,,,,,,,0,0,0,0,0,7,7,7,,,,,,,,,,,,,,,,,,,,,,,,,,,,,,,,,,,,,,,,,,,,,,,,75.99084799999991,79.52056136200008,,,,,,,,,,,,,,,,,,,,,,,,,,,,,,,,,,,,,,,,,,,,,,,,,,,,,,,,,,,,,,,,,,,,040122,0,3,2,3,0,1,2,0,36,2022_Apr_01_1129,listening_fmri,3.2.4,60.158820971776684,
0,parcelated_audio/22/22_9.ogg,,,,,,,,,0,0,0,0,0,0,0,0,0,0,0,0,,,,,,,,,0,0,0,0,0,8,8,8,,,,,,,,,,,,,,,,,,,,,,,,,,,,,,,,,,,,,,,,,,,,,,,,79.52086120100012,83.41304500900014,,,,,,,,,,,,,,,,,,,,,,,,,,,,,,,,,,,,,,,,,,,,,,,,,,,,,,,,,,,,,,,,,,,,040122,0,3,2,3,0,1,2,0,36,2022_Apr_01_1129,listening_fmri,3.2.4,60.158820971776684,
0,parcelated_audio/22/22_10.ogg,,,,,,,,,0,0,0,0,0,0,0,0,0,0,0,0,,,,,,,,,0,0,0,0,0,9,9,9,,,,,,,,,,,,,,,,,,,,,,,,,,,,,,,,,,,,,,,,,,,,,,,,83.41404166499979,88.18617403999997,,,,,,,,,,,,,,,,,,,,,,,,,,,,,,,,,,,,,,,,,,,,,,,,,,,,,,,,,,,,,,,,,,,,040122,0,3,2,3,0,1,2,0,36,2022_Apr_01_1129,listening_fmri,3.2.4,60.158820971776684,
0,parcelated_audio/22/22_11.ogg,,,,,,,,,0,0,0,0,0,0,0,0,0,0,0,0,,,,,,,,,0,0,0,0,0,10,10,10,,,,,,,,,,,,,,,,,,,,,,,,,,,,,,,,,,,,,,,,,,,,,,,,88.18652082300014,95.46414697399996,,,,,,,,,,,,,,,,,,,,,,,,,,,,,,,,,,,,,,,,,,,,,,,,,,,,,,,,,,,,,,,,,,,,040122,0,3,2,3,0,1,2,0,36,2022_Apr_01_1129,listening_fmri,3.2.4,60.158820971776684,
0,parcelated_audio/22/22_12.ogg,,,,,,,,,0,0,0,0,0,0,0,0,0,0,0,0,,,,,,,,,0,0,0,0,0,11,11,11,,,,,,,,,,,,,,,,,,,,,,,,,,,,,,,,,,,,,,,,,,,,,,,,95.46450249400004,103.17608399900018,,,,,,,,,,,,,,,,,,,,,,,,,,,,,,,,,,,,,,,,,,,,,,,,,,,,,,,,,,,,,,,,,,,,040122,0,3,2,3,0,1,2,0,36,2022_Apr_01_1129,listening_fmri,3.2.4,60.158820971776684,
0,parcelated_audio/22/22_13.ogg,,,,,,,,,0,0,0,0,0,0,0,0,0,0,0,0,,,,,,,,,0,0,0,0,0,12,12,12,,,,,,,,,,,,,,,,,,,,,,,,,,,,,,,,,,,,,,,,,,,,,,,,103.17643332899979,110.4610715419999,,,,,,,,,,,,,,,,,,,,,,,,,,,,,,,,,,,,,,,,,,,,,,,,,,,,,,,,,,,,,,,,,,,,040122,0,3,2,3,0,1,2,0,36,2022_Apr_01_1129,listening_fmri,3.2.4,60.158820971776684,
0,parcelated_audio/22/22_14.ogg,,,,,,,,,0,0,0,0,0,0,0,0,0,0,0,0,,,,,,,,,0,0,0,0,0,13,13,13,,,,,,,,,,,,,,,,,,,,,,,,,,,,,,,,,,,,,,,,,,,,,,,,110.46141330299997,116.079067785,,,,,,,,,,,,,,,,,,,,,,,,,,,,,,,,,,,,,,,,,,,,,,,,,,,,,,,,,,,,,,,,,,,,040122,0,3,2,3,0,1,2,0,36,2022_Apr_01_1129,listening_fmri,3.2.4,60.158820971776684,
0,parcelated_audio/22/22_15.ogg,,,,,,,,,0,0,0,0,0,0,0,0,0,0,0,0,,,,,,,,,0,0,0,0,0,14,14,14,,,,,,,,,,,,,,,,,,,,,,,,,,,,,,,,,,,,,,,,,,,,,,,,116.07936932599978,123.84376151300012,,,,,,,,,,,,,,,,,,,,,,,,,,,,,,,,,,,,,,,,,,,,,,,,,,,,,,,,,,,,,,,,,,,,040122,0,3,2,3,0,1,2,0,36,2022_Apr_01_1129,listening_fmri,3.2.4,60.158820971776684,
0,parcelated_audio/22/22_16.ogg,,,,,,,,,0,0,0,0,0,0,0,0,0,0,0,0,,,,,,,,,0,0,0,0,0,15,15,15,,,,,,,,,,,,,,,,,,,,,,,,,,,,,,,,,,,,,,,,,,,,,,,,123.84404620899977,132.51571914899978,,,,,,,,,,,,,,,,,,,,,,,,,,,,,,,,,,,,,,,,,,,,,,,,,,,,,,,,,,,,,,,,,,,,040122,0,3,2,3,0,1,2,0,36,2022_Apr_01_1129,listening_fmri,3.2.4,60.158820971776684,
0,parcelated_audio/22/22_17.ogg,,,,,,,,,0,0,0,0,0,0,0,0,0,0,0,0,,,,,,,,,0,0,0,0,0,16,16,16,,,,,,,,,,,,,,,,,,,,,,,,,,,,,,,,,,,,,,,,,,,,,,,,132.51605714300013,135.67057740100017,,,,,,,,,,,,,,,,,,,,,,,,,,,,,,,,,,,,,,,,,,,,,,,,,,,,,,,,,,,,,,,,,,,,040122,0,3,2,3,0,1,2,0,36,2022_Apr_01_1129,listening_fmri,3.2.4,60.158820971776684,
0,parcelated_audio/22/22_18.ogg,,,,,,,,,0,0,0,0,0,0,0,0,0,0,0,0,,,,,,,,,0,0,0,0,0,17,17,17,,,,,,,,,,,,,,,,,,,,,,,,,,,,,,,,,,,,,,,,,,,,,,,,135.67111966699986,142.40392199100006,,,,,,,,,,,,,,,,,,,,,,,,,,,,,,,,,,,,,,,,,,,,,,,,,,,,,,,,,,,,,,,,,,,,040122,0,3,2,3,0,1,2,0,36,2022_Apr_01_1129,listening_fmri,3.2.4,60.158820971776684,
0,parcelated_audio/22/22_19.ogg,,,,,,,,,0,0,0,0,0,0,0,0,0,0,0,0,,,,,,,,,0,0,0,0,0,18,18,18,,,,,,,,,,,,,,,,,,,,,,,,,,,,,,,,,,,,,,,,,,,,,,,,142.40497798200022,147.36755553800003,,,,,,,,,,,,,,,,,,,,,,,,,,,,,,,,,,,,,,,,,,,,,,,,,,,,,,,,,,,,,,,,,,,,040122,0,3,2,3,0,1,2,0,36,2022_Apr_01_1129,listening_fmri,3.2.4,60.158820971776684,
0,parcelated_audio/22/22_20.ogg,,,,,,,,,0,0,0,0,0,0,0,0,0,0,0,0,,,,,,,,,0,0,0,0,0,19,19,19,,,,,,,,,,,,,,,,,,,,,,,,,,,,,,,,,,,,,,,,,,,,,,,,147.3680115510001,161.47322075700004,,,,,,,,,,,,,,,,,,,,,,,,,,,,,,,,,,,,,,,,,,,,,,,,,,,,,,,,,,,,,,,,,,,,040122,0,3,2,3,0,1,2,0,36,2022_Apr_01_1129,listening_fmri,3.2.4,60.158820971776684,
0,parcelated_audio/22/22_21.ogg,,,,,,,,,0,0,0,0,0,0,0,0,0,0,0,0,,,,,,,,,0,0,0,0,0,20,20,20,,,,,,,,,,,,,,,,,,,,,,,,,,,,,,,,,,,,,,,,,,,,,,,,161.47377322500006,163.48320282299983,,,,,,,,,,,,,,,,,,,,,,,,,,,,,,,,,,,,,,,,,,,,,,,,,,,,,,,,,,,,,,,,,,,,040122,0,3,2,3,0,1,2,0,36,2022_Apr_01_1129,listening_fmri,3.2.4,60.158820971776684,
0,parcelated_audio/22/22_22.ogg,,,,,,,,,0,0,0,0,0,0,0,0,0,0,0,0,,,,,,,,,0,0,0,0,0,21,21,21,,,,,,,,,,,,,,,,,,,,,,,,,,,,,,,,,,,,,,,,,,,,,,,,163.48370878499964,166.63118504400018,,,,,,,,,,,,,,,,,,,,,,,,,,,,,,,,,,,,,,,,,,,,,,,,,,,,,,,,,,,,,,,,,,,,040122,0,3,2,3,0,1,2,0,36,2022_Apr_01_1129,listening_fmri,3.2.4,60.158820971776684,
0,parcelated_audio/22/22_23.ogg,,,,,,,,,0,0,0,0,0,0,0,0,0,0,0,0,,,,,,,,,0,0,0,0,0,22,22,22,,,,,,,,,,,,,,,,,,,,,,,,,,,,,,,,,,,,,,,,,,,,,,,,166.6314570339996,173.15577553699995,,,,,,,,,,,,,,,,,,,,,,,,,,,,,,,,,,,,,,,,,,,,,,,,,,,,,,,,,,,,,,,,,,,,040122,0,3,2,3,0,1,2,0,36,2022_Apr_01_1129,listening_fmri,3.2.4,60.158820971776684,
0,parcelated_audio/22/22_24.ogg,,,,,,,,,0,0,0,0,0,0,0,0,0,0,0,0,,,,,,,,,0,0,0,0,0,23,23,23,,,,,,,,,,,,,,,,,,,,,,,,,,,,,,,,,,,,,,,,,,,,,,,,173.15636403800045,178.88907575500025,,,,,,,,,,,,,,,,,,,,,,,,,,,,,,,,,,,,,,,,,,,,,,,,,,,,,,,,,,,,,,,,,,,,040122,0,3,2,3,0,1,2,0,36,2022_Apr_01_1129,listening_fmri,3.2.4,60.158820971776684,
0,parcelated_audio/22/22_25.ogg,,,,,,,,,0,0,0,0,0,0,0,0,0,0,0,0,,,,,,,,,0,0,0,0,0,24,24,24,,,,,,,,,,,,,,,,,,,,,,,,,,,,,,,,,,,,,,,,,,,,,,,,178.88941057300008,191.5809292609997,,,,,,,,,,,,,,,,,,,,,,,,,,,,,,,,,,,,,,,,,,,,,,,,,,,,,,,,,,,,,,,,,,,,040122,0,3,2,3,0,1,2,0,36,2022_Apr_01_1129,listening_fmri,3.2.4,60.158820971776684,
0,parcelated_audio/22/22_26.ogg,,,,,,,,,0,0,0,0,0,0,0,0,0,0,0,0,,,,,,,,,0,0,0,0,0,25,25,25,,,,,,,,,,,,,,,,,,,,,,,,,,,,,,,,,,,,,,,,,,,,,,,,191.58126330700043,198.31285327599971,,,,,,,,,,,,,,,,,,,,,,,,,,,,,,,,,,,,,,,,,,,,,,,,,,,,,,,,,,,,,,,,,,,,040122,0,3,2,3,0,1,2,0,36,2022_Apr_01_1129,listening_fmri,3.2.4,60.158820971776684,
0,parcelated_audio/22/22_27.ogg,,,,,,,,,0,0,0,0,0,0,0,0,0,0,0,0,,,,,,,,,0,0,0,0,0,26,26,26,,,,,,,,,,,,,,,,,,,,,,,,,,,,,,,,,,,,,,,,,,,,,,,,198.3131991209998,202.71286605199975,,,,,,,,,,,,,,,,,,,,,,,,,,,,,,,,,,,,,,,,,,,,,,,,,,,,,,,,,,,,,,,,,,,,040122,0,3,2,3,0,1,2,0,36,2022_Apr_01_1129,listening_fmri,3.2.4,60.158820971776684,
0,parcelated_audio/22/22_28.ogg,,,,,,,,,0,0,0,0,0,0,0,0,0,0,0,0,,,,,,,,,0,0,0,0,0,27,27,27,,,,,,,,,,,,,,,,,,,,,,,,,,,,,,,,,,,,,,,,,,,,,,,,202.71321327400028,208.46214430099963,,,,,,,,,,,,,,,,,,,,,,,,,,,,,,,,,,,,,,,,,,,,,,,,,,,,,,,,,,,,,,,,,,,,040122,0,3,2,3,0,1,2,0,36,2022_Apr_01_1129,listening_fmri,3.2.4,60.158820971776684,
0,parcelated_audio/22/22_29.ogg,,,,,,,,,0,0,0,0,0,0,0,0,0,0,0,0,,,,,,,,,0,0,0,0,0,28,28,28,,,,,,,,,,,,,,,,,,,,,,,,,,,,,,,,,,,,,,,,,,,,,,,,208.46251153599997,214.1770918950001,,,,,,,,,,,,,,,,,,,,,,,,,,,,,,,,,,,,,,,,,,,,,,,,,,,,,,,,,,,,,,,,,,,,040122,0,3,2,3,0,1,2,0,36,2022_Apr_01_1129,listening_fmri,3.2.4,60.158820971776684,
0,parcelated_audio/22/22_30.ogg,,,,,,,,,0,0,0,0,0,0,0,0,0,0,0,0,,,,,,,,,0,0,0,0,0,29,29,29,,,,,,,,,,,,,,,,,,,,,,,,,,,,,,,,,,,,,,,,,,,,,,,,214.17743892099998,216.8960859370004,,,,,,,,,,,,,,,,,,,,,,,,,,,,,,,,,,,,,,,,,,,,,,,,,,,,,,,,,,,,,,,,,,,,040122,0,3,2,3,0,1,2,0,36,2022_Apr_01_1129,listening_fmri,3.2.4,60.158820971776684,
0,parcelated_audio/22/22_31.ogg,,,,,,,,,0,0,0,0,0,0,0,0,0,0,0,0,,,,,,,,,0,0,0,0,0,30,30,30,,,,,,,,,,,,,,,,,,,,,,,,,,,,,,,,,,,,,,,,,,,,,,,,216.89710969999987,222.0422385830002,,,,,,,,,,,,,,,,,,,,,,,,,,,,,,,,,,,,,,,,,,,,,,,,,,,,,,,,,,,,,,,,,,,,040122,0,3,2,3,0,1,2,0,36,2022_Apr_01_1129,listening_fmri,3.2.4,60.158820971776684,
0,parcelated_audio/22/22_32.ogg,,,,,,,,,0,0,0,0,0,0,0,0,0,0,0,0,,,,,,,,,0,0,0,0,0,31,31,31,,,,,,,,,,,,,,,,,,,,,,,,,,,,,,,,,,,,,,,,,,,,,,,,222.04276115699986,228.35820527900023,,,,,,,,,,,,,,,,,,,,,,,,,,,,,,,,,,,,,,,,,,,,,,,,,,,,,,,,,,,,,,,,,,,,040122,0,3,2,3,0,1,2,0,36,2022_Apr_01_1129,listening_fmri,3.2.4,60.158820971776684,
0,parcelated_audio/22/22_33.ogg,,,,,,,,,0,0,0,0,0,0,0,0,0,0,0,0,,,,,,,,,0,0,0,0,0,32,32,32,,,,,,,,,,,,,,,,,,,,,,,,,,,,,,,,,,,,,,,,,,,,,,,,228.35855172699985,232.78604385100016,,,,,,,,,,,,,,,,,,,,,,,,,,,,,,,,,,,,,,,,,,,,,,,,,,,,,,,,,,,,,,,,,,,,040122,0,3,2,3,0,1,2,0,36,2022_Apr_01_1129,listening_fmri,3.2.4,60.158820971776684,
0,parcelated_audio/22/22_34.ogg,,,,,,,,,0,0,0,0,0,0,0,0,0,0,0,0,,,,,,,,,0,0,0,0,0,33,33,33,,,,,,,,,,,,,,,,,,,,,,,,,,,,,,,,,,,,,,,,,,,,,,,,232.78637282299997,240.8450854509997,,,,,,,,,,,,,,,,,,,,,,,,,,,,,,,,,,,,,,,,,,,,,,,,,,,,,,,,,,,,,,,,,,,,040122,0,3,2,3,0,1,2,0,36,2022_Apr_01_1129,listening_fmri,3.2.4,60.158820971776684,
0,parcelated_audio/22/22_35.ogg,,,,,,,,,0,0,0,0,0,0,0,0,0,0,0,0,,,,,,,,,0,0,0,0,0,34,34,34,,,,,,,,,,,,,,,,,,,,,,,,,,,,,,,,,,,,,,,,,,,,,,,,240.84568531899959,248.35092063000002,,,,,,,,,,,,,,,,,,,,,,,,,,,,,,,,,,,,,,,,,,,,,,,,,,,,,,,,,,,,,,,,,,,,040122,0,3,2,3,0,1,2,0,36,2022_Apr_01_1129,listening_fmri,3.2.4,60.158820971776684,
0,parcelated_audio/22/22_36.ogg,,,,,,,,,0,0,0,0,0,0,0,0,0,0,0,0,,,,,,,,,0,0,0,0,0,35,35,35,,,,,,,,,,,,,,,,,,,,,,,,,,,,,,,,,,,,,,,,,,,,,,,,248.35136351400024,261.1510569730003,,,,,,,,,,,,,,,,,,,,,,,,,,,,,,,,,,,,,,,,,,,,,,,,,,,,,,,,,,,,,,,,,,,,040122,0,3,2,3,0,1,2,0,36,2022_Apr_01_1129,listening_fmri,3.2.4,60.158820971776684,
0,parcelated_audio/22/22_37.ogg,,,,,,,,,0,0,0,0,0,0,0,0,0,0,0,0,,,,,,,,,0,0,0,0,0,36,36,36,,,,,,,,,,,,,,,,,,,,,,,,,,,,,,,,,,,,,,,,,,,,,,,,261.1515079369997,268.3333508190003,,,,,,,,,,,,,,,,,,,,,,,,,,,,,,,,,,,,,,,,,,,,,,,,,,,,,,,,,,,,,,,,,,,,040122,0,3,2,3,0,1,2,0,36,2022_Apr_01_1129,listening_fmri,3.2.4,60.158820971776684,
0,,,,,,,,,,0,0,0,0,0,0,0,0,0,0,0,0,,,,,,,,,0,0,0,0,,,,,,,,,,,,,,,,,,,,,,,,,,,,,,,,,,,,,,,,,,,,,,,,,,,,,,,,,,,,,,,,,,,,,,,,,,,,,,,,,,,,,,,,,,,,,,,,,,,,,,,,,,,,,,,,,,,,,,,,,040122,0,3,2,3,0,1,2,0,36,2022_Apr_01_1129,listening_fmri,3.2.4,60.158820971776684,
0,,,,,,,,,,0,0,0,0,0,0,0,0,0,0,0,0,,,,,,,,,,,,,,,,,,,,,,,,,,,,,,,,,,,,,,,,,,268.33387340000036,274.33244556399995,402.5992222579998,None,,,,,,,,,,,,,,,,,,,,,408.6015716490001,None,408.6015716490001,None,,,,,,,,,,,,,,,,,,,,,,,,,,,,,,,,,,,,,,,,,,,,,,,,,,,,,,,,,,,,,,,,040122,0,3,2,3,0,1,2,0,36,2022_Apr_01_1129,listening_fmri,3.2.4,60.158820971776684,
0,,,,,,,,,,0,0,0,0,0,0,0,0,,,,,,,,,,,,,,,,,,,,,,,,,,,,,,,,,,,,,,,,,,,,,,,,,,,,,,,,,,,,,,,,,,,,,,,,,,,,,,,,,,,,,,,,,,,,,,,,,,,,,,,,,,,,,,,,,,,,,,,,,,,,,,,,,,,,,,,,,040122,0,3,2,3,0,1,2,0,36,2022_Apr_01_1129,listening_fmri,3.2.4,60.158820971776684,
1,,,,,,,,,,0,0,0,0,0,1,1,1,0,0,0,0,0,0,0,0,,,,,,,,,,,,,,,,,0,0,0,0,,,,,,,,,,,,,,,,,,,,,,409.60133455600044,None,409.60133455600044,None,1,0.8386626429992248,409.60133455600044,None,409.60133455600044,None,,,,,,,,,,,,,,,410.46907388399995,None,1,0.7429161699992619,410.46907388399995,None,410.46907388399995,None,411.2661226070004,None,411.2661226070004,None,411.2661226070004,None,7,1.3318037760000152,411.2661226070004,None,412.61848242500037,None,7,1.054492217999723,412.61848242500037,None,412.61848242500037,None,413.78437262199986,None,413.78437262199986,None,413.78437262199986,None,413.78437262199986,None,413.78437262199986,None,413.78437262199986,None,413.78437262199986,None,None,413.78437262199986,None,,,,,,,,,,,,,,,,,,,,,040122,0,3,2,3,0,1,2,0,36,2022_Apr_01_1129,listening_fmri,3.2.4,60.158820971776684,
1,,,,,,,,,,0,0,0,0,0,1,1,1,0,0,0,0,0,0,0,0,,,,,,,,,,,,,,,,,,,,,,,,,,,,,,,,,,,,,,,,,,,,,,,,,,,,,,,,,,,,,,,,,,,,,,,,,,,,,,,,,,,,,,,,,,,,,,,,,,,,,,,,,,,,,428.36597566399996,None,3,0.8638792780002404,428.36597566399996,None,428.36597566399996,None,429.2652779099999,None,429.2652779099999,None,429.2652779099999,None,3,0.9947222950004289,429.2652779099999,None,,,040122,0,3,2,3,0,1,2,0,36,2022_Apr_01_1129,listening_fmri,3.2.4,60.158820971776684,
1,parcelated_audio/33/33_1.ogg,,,,,,,,,0,0,0,0,0,1,1,1,0,0,0,0,,,,,,,,,0,0,0,0,0,0,0,0,,,,,,,,,,,,,,,,,,,,,,,,,,,,,,,,,,,,,,,,430.28510338199976,None,3,1.0548983199996655,430.28510338199976,None,297.10677586300017,300.1163334930002,300.1258868279997,310.09066273599956,,,,,,,,,,,,,,,,,,,,,,,,,,,,,,,,,,,,,,,,,,,,,,,,,,,,,,,,,,,,,,,,,,,,040122,0,3,2,3,0,1,2,0,36,2022_Apr_01_1129,listening_fmri,3.2.4,60.158820971776684,
1,parcelated_audio/33/33_2.ogg,,,,,,,,,0,0,0,0,0,1,1,1,0,0,0,0,,,,,,,,,0,0,0,0,0,1,1,1,,,,,,,,,,,,,,,,,,,,,,,,,,,,,,,,,,,,,,,,,,,,,,,,310.09114189799993,320.53540792800004,,,,,,,,,,,,,,,,,,,,,,,,,,,,,,,,,,,,,,,,,,,,,,,,,,,,,,,,,,,,,,,,,,,,040122,0,3,2,3,0,1,2,0,36,2022_Apr_01_1129,listening_fmri,3.2.4,60.158820971776684,
1,parcelated_audio/33/33_3.ogg,,,,,,,,,0,0,0,0,0,1,1,1,0,0,0,0,,,,,,,,,0,0,0,0,0,2,2,2,,,,,,,,,,,,,,,,,,,,,,,,,,,,,,,,,,,,,,,,,,,,,,,,320.53572813599976,327.07837868199977,,,,,,,,,,,,,,,,,,,,,,,,,,,,,,,,,,,,,,,,,,,,,,,,,,,,,,,,,,,,,,,,,,,,040122,0,3,2,3,0,1,2,0,36,2022_Apr_01_1129,listening_fmri,3.2.4,60.158820971776684,
1,parcelated_audio/33/33_4.ogg,,,,,,,,,0,0,0,0,0,1,1,1,0,0,0,0,,,,,,,,,0,0,0,0,0,3,3,3,,,,,,,,,,,,,,,,,,,,,,,,,,,,,,,,,,,,,,,,,,,,,,,,327.0787630509999,330.659506038,,,,,,,,,,,,,,,,,,,,,,,,,,,,,,,,,,,,,,,,,,,,,,,,,,,,,,,,,,,,,,,,,,,,040122,0,3,2,3,0,1,2,0,36,2022_Apr_01_1129,listening_fmri,3.2.4,60.158820971776684,
1,parcelated_audio/33/33_5.ogg,,,,,,,,,0,0,0,0,0,1,1,1,0,0,0,0,,,,,,,,,0,0,0,0,0,4,4,4,,,,,,,,,,,,,,,,,,,,,,,,,,,,,,,,,,,,,,,,,,,,,,,,330.6598131220003,341.8995874010002,,,,,,,,,,,,,,,,,,,,,,,,,,,,,,,,,,,,,,,,,,,,,,,,,,,,,,,,,,,,,,,,,,,,040122,0,3,2,3,0,1,2,0,36,2022_Apr_01_1129,listening_fmri,3.2.4,60.158820971776684,
1,parcelated_audio/33/33_6.ogg,,,,,,,,,0,0,0,0,0,1,1,1,0,0,0,0,,,,,,,,,0,0,0,0,0,5,5,5,,,,,,,,,,,,,,,,,,,,,,,,,,,,,,,,,,,,,,,,,,,,,,,,341.90010629200015,353.5958943419996,,,,,,,,,,,,,,,,,,,,,,,,,,,,,,,,,,,,,,,,,,,,,,,,,,,,,,,,,,,,,,,,,,,,040122,0,3,2,3,0,1,2,0,36,2022_Apr_01_1129,listening_fmri,3.2.4,60.158820971776684,
1,parcelated_audio/33/33_7.ogg,,,,,,,,,0,0,0,0,0,1,1,1,0,0,0,0,,,,,,,,,0,0,0,0,0,6,6,6,,,,,,,,,,,,,,,,,,,,,,,,,,,,,,,,,,,,,,,,,,,,,,,,353.5962369969998,368.142432266,,,,,,,,,,,,,,,,,,,,,,,,,,,,,,,,,,,,,,,,,,,,,,,,,,,,,,,,,,,,,,,,,,,,040122,0,3,2,3,0,1,2,0,36,2022_Apr_01_1129,listening_fmri,3.2.4,60.158820971776684,
1,parcelated_audio/33/33_8.ogg,,,,,,,,,0,0,0,0,0,1,1,1,0,0,0,0,,,,,,,,,0,0,0,0,0,7,7,7,,,,,,,,,,,,,,,,,,,,,,,,,,,,,,,,,,,,,,,,,,,,,,,,368.1427764109999,374.27602866700045,,,,,,,,,,,,,,,,,,,,,,,,,,,,,,,,,,,,,,,,,,,,,,,,,,,,,,,,,,,,,,,,,,,,040122,0,3,2,3,0,1,2,0,36,2022_Apr_01_1129,listening_fmri,3.2.4,60.158820971776684,
1,parcelated_audio/33/33_9.ogg,,,,,,,,,0,0,0,0,0,1,1,1,0,0,0,0,,,,,,,,,0,0,0,0,0,8,8,8,,,,,,,,,,,,,,,,,,,,,,,,,,,,,,,,,,,,,,,,,,,,,,,,374.276377529,377.9787100689996,,,,,,,,,,,,,,,,,,,,,,,,,,,,,,,,,,,,,,,,,,,,,,,,,,,,,,,,,,,,,,,,,,,,040122,0,3,2,3,0,1,2,0,36,2022_Apr_01_1129,listening_fmri,3.2.4,60.158820971776684,
1,parcelated_audio/33/33_10.ogg,,,,,,,,,0,0,0,0,0,1,1,1,0,0,0,0,,,,,,,,,0,0,0,0,0,9,9,9,,,,,,,,,,,,,,,,,,,,,,,,,,,,,,,,,,,,,,,,,,,,,,,,377.9790612109996,383.34222822699985,,,,,,,,,,,,,,,,,,,,,,,,,,,,,,,,,,,,,,,,,,,,,,,,,,,,,,,,,,,,,,,,,,,,040122,0,3,2,3,0,1,2,0,36,2022_Apr_01_1129,listening_fmri,3.2.4,60.158820971776684,
1,parcelated_audio/33/33_11.ogg,,,,,,,,,0,0,0,0,0,1,1,1,0,0,0,0,,,,,,,,,0,0,0,0,0,10,10,10,,,,,,,,,,,,,,,,,,,,,,,,,,,,,,,,,,,,,,,,,,,,,,,,383.34267709000005,397.7520388750004,,,,,,,,,,,,,,,,,,,,,,,,,,,,,,,,,,,,,,,,,,,,,,,,,,,,,,,,,,,,,,,,,,,,040122,0,3,2,3,0,1,2,0,36,2022_Apr_01_1129,listening_fmri,3.2.4,60.158820971776684,
1,parcelated_audio/33/33_12.ogg,,,,,,,,,0,0,0,0,0,1,1,1,0,0,0,0,,,,,,,,,0,0,0,0,0,11,11,11,,,,,,,,,,,,,,,,,,,,,,,,,,,,,,,,,,,,,,,,,,,,,,,,397.7523833529999,403.8591038469999,,,,,,,,,,,,,,,,,,,,,,,,,,,,,,,,,,,,,,,,,,,,,,,,,,,,,,,,,,,,,,,,,,,,040122,0,3,2,3,0,1,2,0,36,2022_Apr_01_1129,listening_fmri,3.2.4,60.158820971776684,
1,parcelated_audio/33/33_13.ogg,,,,,,,,,0,0,0,0,0,1,1,1,0,0,0,0,,,,,,,,,0,0,0,0,0,12,12,12,,,,,,,,,,,,,,,,,,,,,,,,,,,,,,,,,,,,,,,,,,,,,,,,403.85954772000014,411.25657288400043,,,,,,,,,,,,,,,,,,,,,,,,,,,,,,,,,,,,,,,,,,,,,,,,,,,,,,,,,,,,,,,,,,,,040122,0,3,2,3,0,1,2,0,36,2022_Apr_01_1129,listening_fmri,3.2.4,60.158820971776684,
1,parcelated_audio/33/33_14.ogg,,,,,,,,,0,0,0,0,0,1,1,1,0,0,0,0,,,,,,,,,0,0,0,0,0,13,13,13,,,,,,,,,,,,,,,,,,,,,,,,,,,,,,,,,,,,,,,,,,,,,,,,411.25701825900023,423.685214007,,,,,,,,,,,,,,,,,,,,,,,,,,,,,,,,,,,,,,,,,,,,,,,,,,,,,,,,,,,,,,,,,,,,040122,0,3,2,3,0,1,2,0,36,2022_Apr_01_1129,listening_fmri,3.2.4,60.158820971776684,
1,parcelated_audio/33/33_15.ogg,,,,,,,,,0,0,0,0,0,1,1,1,0,0,0,0,,,,,,,,,0,0,0,0,0,14,14,14,,,,,,,,,,,,,,,,,,,,,,,,,,,,,,,,,,,,,,,,,,,,,,,,423.6855596270002,442.21706372200015,,,,,,,,,,,,,,,,,,,,,,,,,,,,,,,,,,,,,,,,,,,,,,,,,,,,,,,,,,,,,,,,,,,,040122,0,3,2,3,0,1,2,0,36,2022_Apr_01_1129,listening_fmri,3.2.4,60.158820971776684,
1,parcelated_audio/33/33_16.ogg,,,,,,,,,0,0,0,0,0,1,1,1,0,0,0,0,,,,,,,,,0,0,0,0,0,15,15,15,,,,,,,,,,,,,,,,,,,,,,,,,,,,,,,,,,,,,,,,,,,,,,,,442.2174018999999,454.451646815,,,,,,,,,,,,,,,,,,,,,,,,,,,,,,,,,,,,,,,,,,,,,,,,,,,,,,,,,,,,,,,,,,,,040122,0,3,2,3,0,1,2,0,36,2022_Apr_01_1129,listening_fmri,3.2.4,60.158820971776684,
1,parcelated_audio/33/33_17.ogg,,,,,,,,,0,0,0,0,0,1,1,1,0,0,0,0,,,,,,,,,0,0,0,0,0,16,16,16,,,,,,,,,,,,,,,,,,,,,,,,,,,,,,,,,,,,,,,,,,,,,,,,454.45194861200025,465.66706139400003,,,,,,,,,,,,,,,,,,,,,,,,,,,,,,,,,,,,,,,,,,,,,,,,,,,,,,,,,,,,,,,,,,,,040122,0,3,2,3,0,1,2,0,36,2022_Apr_01_1129,listening_fmri,3.2.4,60.158820971776684,
1,parcelated_audio/33/33_18.ogg,,,,,,,,,0,0,0,0,0,1,1,1,0,0,0,0,,,,,,,,,0,0,0,0,0,17,17,17,,,,,,,,,,,,,,,,,,,,,,,,,,,,,,,,,,,,,,,,,,,,,,,,465.667382094,474.13488540699973,,,,,,,,,,,,,,,,,,,,,,,,,,,,,,,,,,,,,,,,,,,,,,,,,,,,,,,,,,,,,,,,,,,,040122,0,3,2,3,0,1,2,0,36,2022_Apr_01_1129,listening_fmri,3.2.4,60.158820971776684,
1,parcelated_audio/33/33_19.ogg,,,,,,,,,0,0,0,0,0,1,1,1,0,0,0,0,,,,,,,,,0,0,0,0,0,18,18,18,,,,,,,,,,,,,,,,,,,,,,,,,,,,,,,,,,,,,,,,,,,,,,,,474.1351743150003,477.5820967069999,,,,,,,,,,,,,,,,,,,,,,,,,,,,,,,,,,,,,,,,,,,,,,,,,,,,,,,,,,,,,,,,,,,,040122,0,3,2,3,0,1,2,0,36,2022_Apr_01_1129,listening_fmri,3.2.4,60.158820971776684,
1,parcelated_audio/33/33_20.ogg,,,,,,,,,0,0,0,0,0,1,1,1,0,0,0,0,,,,,,,,,0,0,0,0,0,19,19,19,,,,,,,,,,,,,,,,,,,,,,,,,,,,,,,,,,,,,,,,,,,,,,,,477.5824452559996,484.4511596739999,,,,,,,,,,,,,,,,,,,,,,,,,,,,,,,,,,,,,,,,,,,,,,,,,,,,,,,,,,,,,,,,,,,,040122,0,3,2,3,0,1,2,0,36,2022_Apr_01_1129,listening_fmri,3.2.4,60.158820971776684,
1,parcelated_audio/33/33_21.ogg,,,,,,,,,0,0,0,0,0,1,1,1,0,0,0,0,,,,,,,,,0,0,0,0,0,20,20,20,,,,,,,,,,,,,,,,,,,,,,,,,,,,,,,,,,,,,,,,,,,,,,,,484.4515996940004,488.5902441229996,,,,,,,,,,,,,,,,,,,,,,,,,,,,,,,,,,,,,,,,,,,,,,,,,,,,,,,,,,,,,,,,,,,,040122,0,3,2,3,0,1,2,0,36,2022_Apr_01_1129,listening_fmri,3.2.4,60.158820971776684,
1,parcelated_audio/33/33_22.ogg,,,,,,,,,0,0,0,0,0,1,1,1,0,0,0,0,,,,,,,,,0,0,0,0,0,21,21,21,,,,,,,,,,,,,,,,,,,,,,,,,,,,,,,,,,,,,,,,,,,,,,,,488.590593808,500.42004883100026,,,,,,,,,,,,,,,,,,,,,,,,,,,,,,,,,,,,,,,,,,,,,,,,,,,,,,,,,,,,,,,,,,,,040122,0,3,2,3,0,1,2,0,36,2022_Apr_01_1129,listening_fmri,3.2.4,60.158820971776684,
1,parcelated_audio/33/33_23.ogg,,,,,,,,,0,0,0,0,0,1,1,1,0,0,0,0,,,,,,,,,0,0,0,0,0,22,22,22,,,,,,,,,,,,,,,,,,,,,,,,,,,,,,,,,,,,,,,,,,,,,,,,500.42060803100003,510.89991006599985,,,,,,,,,,,,,,,,,,,,,,,,,,,,,,,,,,,,,,,,,,,,,,,,,,,,,,,,,,,,,,,,,,,,040122,0,3,2,3,0,1,2,0,36,2022_Apr_01_1129,listening_fmri,3.2.4,60.158820971776684,
1,parcelated_audio/33/33_24.ogg,,,,,,,,,0,0,0,0,0,1,1,1,0,0,0,0,,,,,,,,,0,0,0,0,0,23,23,23,,,,,,,,,,,,,,,,,,,,,,,,,,,,,,,,,,,,,,,,,,,,,,,,510.9002755659999,517.1500327299996,,,,,,,,,,,,,,,,,,,,,,,,,,,,,,,,,,,,,,,,,,,,,,,,,,,,,,,,,,,,,,,,,,,,040122,0,3,2,3,0,1,2,0,36,2022_Apr_01_1129,listening_fmri,3.2.4,60.158820971776684,
1,parcelated_audio/33/33_25.ogg,,,,,,,,,0,0,0,0,0,1,1,1,0,0,0,0,,,,,,,,,0,0,0,0,0,24,24,24,,,,,,,,,,,,,,,,,,,,,,,,,,,,,,,,,,,,,,,,,,,,,,,,517.1503833649999,525.3526117380002,,,,,,,,,,,,,,,,,,,,,,,,,,,,,,,,,,,,,,,,,,,,,,,,,,,,,,,,,,,,,,,,,,,,040122,0,3,2,3,0,1,2,0,36,2022_Apr_01_1129,listening_fmri,3.2.4,60.158820971776684,
1,parcelated_audio/33/33_26.ogg,,,,,,,,,0,0,0,0,0,1,1,1,0,0,0,0,,,,,,,,,0,0,0,0,0,25,25,25,,,,,,,,,,,,,,,,,,,,,,,,,,,,,,,,,,,,,,,,,,,,,,,,525.3529255130002,532.4139030040001,,,,,,,,,,,,,,,,,,,,,,,,,,,,,,,,,,,,,,,,,,,,,,,,,,,,,,,,,,,,,,,,,,,,040122,0,3,2,3,0,1,2,0,36,2022_Apr_01_1129,listening_fmri,3.2.4,60.158820971776684,
1,parcelated_audio/33/33_27.ogg,,,,,,,,,0,0,0,0,0,1,1,1,0,0,0,0,,,,,,,,,0,0,0,0,0,26,26,26,,,,,,,,,,,,,,,,,,,,,,,,,,,,,,,,,,,,,,,,,,,,,,,,532.4142097790004,539.9637480209999,,,,,,,,,,,,,,,,,,,,,,,,,,,,,,,,,,,,,,,,,,,,,,,,,,,,,,,,,,,,,,,,,,,,040122,0,3,2,3,0,1,2,0,36,2022_Apr_01_1129,listening_fmri,3.2.4,60.158820971776684,
1,parcelated_audio/33/33_28.ogg,,,,,,,,,0,0,0,0,0,1,1,1,0,0,0,0,,,,,,,,,0,0,0,0,0,27,27,27,,,,,,,,,,,,,,,,,,,,,,,,,,,,,,,,,,,,,,,,,,,,,,,,539.9641766560003,545.6327140910003,,,,,,,,,,,,,,,,,,,,,,,,,,,,,,,,,,,,,,,,,,,,,,,,,,,,,,,,,,,,,,,,,,,,040122,0,3,2,3,0,1,2,0,36,2022_Apr_01_1129,listening_fmri,3.2.4,60.158820971776684,
1,parcelated_audio/33/33_29.ogg,,,,,,,,,0,0,0,0,0,1,1,1,0,0,0,0,,,,,,,,,0,0,0,0,0,28,28,28,,,,,,,,,,,,,,,,,,,,,,,,,,,,,,,,,,,,,,,,,,,,,,,,545.6334706069997,553.5502442960001,,,,,,,,,,,,,,,,,,,,,,,,,,,,,,,,,,,,,,,,,,,,,,,,,,,,,,,,,,,,,,,,,,,,040122,0,3,2,3,0,1,2,0,36,2022_Apr_01_1129,listening_fmri,3.2.4,60.158820971776684,
1,parcelated_audio/33/33_30.ogg,,,,,,,,,0,0,0,0,0,1,1,1,0,0,0,0,,,,,,,,,0,0,0,0,0,29,29,29,,,,,,,,,,,,,,,,,,,,,,,,,,,,,,,,,,,,,,,,,,,,,,,,553.5505885179996,568.5115061669999,,,,,,,,,,,,,,,,,,,,,,,,,,,,,,,,,,,,,,,,,,,,,,,,,,,,,,,,,,,,,,,,,,,,040122,0,3,2,3,0,1,2,0,36,2022_Apr_01_1129,listening_fmri,3.2.4,60.158820971776684,
1,parcelated_audio/33/33_31.ogg,,,,,,,,,0,0,0,0,0,1,1,1,0,0,0,0,,,,,,,,,0,0,0,0,0,30,30,30,,,,,,,,,,,,,,,,,,,,,,,,,,,,,,,,,,,,,,,,,,,,,,,,568.5118516719999,578.2488683489996,,,,,,,,,,,,,,,,,,,,,,,,,,,,,,,,,,,,,,,,,,,,,,,,,,,,,,,,,,,,,,,,,,,,040122,0,3,2,3,0,1,2,0,36,2022_Apr_01_1129,listening_fmri,3.2.4,60.158820971776684,
1,parcelated_audio/33/33_32.ogg,,,,,,,,,0,0,0,0,0,1,1,1,0,0,0,0,,,,,,,,,0,0,0,0,0,31,31,31,,,,,,,,,,,,,,,,,,,,,,,,,,,,,,,,,,,,,,,,,,,,,,,,578.2498934760001,583.8660276289997,,,,,,,,,,,,,,,,,,,,,,,,,,,,,,,,,,,,,,,,,,,,,,,,,,,,,,,,,,,,,,,,,,,,040122,0,3,2,3,0,1,2,0,36,2022_Apr_01_1129,listening_fmri,3.2.4,60.158820971776684,
1,,,,,,,,,,0,0,0,0,0,1,1,1,0,0,0,0,,,,,,,,,0,0,0,0,,,,,,,,,,,,,,,,,,,,,,,,,,,,,,,,,,,,,,,,,,,,,,,,,,,,,,,,,,,,,,,,,,,,,,,,,,,,,,,,,,,,,,,,,,,,,,,,,,,,,,,,,,,,,,,,,,,,,,,,,040122,0,3,2,3,0,1,2,0,36,2022_Apr_01_1129,listening_fmri,3.2.4,60.158820971776684,
1,,,,,,,,,,0,0,0,0,0,1,1,1,0,0,0,0,,,,,,,,,,,,,,,,,,,,,,,,,,,,,,,,,,,,,,,,,,583.866515227,589.8678910249996,718.1293183409998,None,,,,,,,,,,,,,,,,,,,,,724.1458722630005,None,724.1458722630005,None,,,,,,,,,,,,,,,,,,,,,,,,,,,,,,,,,,,,,,,,,,,,,,,,,,,,,,,,,,,,,,,,040122,0,3,2,3,0,1,2,0,36,2022_Apr_01_1129,listening_fmri,3.2.4,60.158820971776684,
1,,,,,,,,,,0,0,0,0,0,1,1,1,,,,,,,,,,,,,,,,,,,,,,,,,,,,,,,,,,,,,,,,,,,,,,,,,,,,,,,,,,,,,,,,,,,,,,,,,,,,,,,,,,,,,,,,,,,,,,,,,,,,,,,,,,,,,,,,,,,,,,,,,,,,,,,,,,,,,,,,,040122,0,3,2,3,0,1,2,0,36,2022_Apr_01_1129,listening_fmri,3.2.4,60.158820971776684,
2,,,,,,,,,,0,0,0,0,0,2,2,2,,,,,,,,,,,,,,,,,,,,,,,,,,,,,,,,,,,,,,,,,,,,,,,,,,,,,,,,,,,,,,,,,,,,,,,,,,,,,,,,,,,,,,,,,,,,,,,,,,,,,,,,,,,,,,,,,,,,,,,,,,,,,,,,,,,,,,,,,040122,0,3,2,3,0,1,2,0,36,2022_Apr_01_1129,listening_fmri,3.2.4,60.158820971776684,
3,,,,,,,,,,0,0,0,0,0,3,3,3,0,0,0,0,0,0,0,0,,,,,,,,,,,,,,,,,0,0,0,0,,,,,,,,,,,,,,,,,,,,,,725.1457029490002,None,725.1457029490002,None,1,13.169272008000007,725.1457029490002,None,725.1457029490002,None,,,,,,,,,,,,,,,738.3354173150001,None,1,1.8145158240004093,738.3354173150001,None,738.3354173150001,None,740.1855233599999,None,740.1855233599999,None,740.1855233599999,None,1,1.2724621079996723,740.1855233599999,None,741.4784212650002,None,1,2.2215560719996574,741.4784212650002,None,741.4784212650002,None,743.8024804980005,None,743.8024804980005,None,743.8024804980005,None,743.8024804980005,None,743.8024804980005,None,743.8024804980005,None,743.8024804980005,None,None,743.8024804980005,None,,,,,,,,,,,,,,,,,,,,,040122,0,3,2,3,0,1,2,0,36,2022_Apr_01_1129,listening_fmri,3.2.4,60.158820971776684,
3,,,,,,,,,,0,0,0,0,0,3,3,3,0,0,0,0,0,0,0,0,,,,,,,,,,,,,,,,,,,,,,,,,,,,,,,,,,,,,,,,,,,,,,,,,,,,,,,,,,,,,,,,,,,,,,,,,,,,,,,,,,,,,,,,,,,,,,,,,,,,,,,,,,,,,760.1528674179999,None,2,1.021006228999795,760.1528674179999,None,760.1528674179999,None,761.2188101660004,None,761.2188101660004,None,761.2188101660004,None,2,0.7611637999998493,761.2188101660004,None,,,040122,0,3,2,3,0,1,2,0,36,2022_Apr_01_1129,listening_fmri,3.2.4,60.158820971776684,
3,parcelated_audio/11/11_1.ogg,,,,,,,,,0,0,0,0,0,3,3,3,0,0,0,0,,,,,,,,,0,0,0,0,0,0,0,0,,,,,,,,,,,,,,,,,,,,,,,,,,,,,,,,,,,,,,,,762.0031552729997,None,2,0.8907911590004005,762.0031552729997,None,628.6690638940004,631.6833000769998,631.6891279959996,643.7714801059997,,,,,,,,,,,,,,,,,,,,,,,,,,,,,,,,,,,,,,,,,,,,,,,,,,,,,,,,,,,,,,,,,,,,040122,0,3,2,3,0,1,2,0,36,2022_Apr_01_1129,listening_fmri,3.2.4,60.158820971776684,
3,parcelated_audio/11/11_2.ogg,,,,,,,,,0,0,0,0,0,3,3,3,0,0,0,0,,,,,,,,,0,0,0,0,0,1,1,1,,,,,,,,,,,,,,,,,,,,,,,,,,,,,,,,,,,,,,,,,,,,,,,,643.771785722,648.269584184,,,,,,,,,,,,,,,,,,,,,,,,,,,,,,,,,,,,,,,,,,,,,,,,,,,,,,,,,,,,,,,,,,,,040122,0,3,2,3,0,1,2,0,36,2022_Apr_01_1129,listening_fmri,3.2.4,60.158820971776684,
3,parcelated_audio/11/11_3.ogg,,,,,,,,,0,0,0,0,0,3,3,3,0,0,0,0,,,,,,,,,0,0,0,0,0,2,2,2,,,,,,,,,,,,,,,,,,,,,,,,,,,,,,,,,,,,,,,,,,,,,,,,648.2700270999999,653.2579556289998,,,,,,,,,,,,,,,,,,,,,,,,,,,,,,,,,,,,,,,,,,,,,,,,,,,,,,,,,,,,,,,,,,,,040122,0,3,2,3,0,1,2,0,36,2022_Apr_01_1129,listening_fmri,3.2.4,60.158820971776684,
3,parcelated_audio/11/11_4.ogg,,,,,,,,,0,0,0,0,0,3,3,3,0,0,0,0,,,,,,,,,0,0,0,0,0,3,3,3,,,,,,,,,,,,,,,,,,,,,,,,,,,,,,,,,,,,,,,,,,,,,,,,653.2582789160001,662.3718095010004,,,,,,,,,,,,,,,,,,,,,,,,,,,,,,,,,,,,,,,,,,,,,,,,,,,,,,,,,,,,,,,,,,,,040122,0,3,2,3,0,1,2,0,36,2022_Apr_01_1129,listening_fmri,3.2.4,60.158820971776684,
3,parcelated_audio/11/11_5.ogg,,,,,,,,,0,0,0,0,0,3,3,3,0,0,0,0,,,,,,,,,0,0,0,0,0,4,4,4,,,,,,,,,,,,,,,,,,,,,,,,,,,,,,,,,,,,,,,,,,,,,,,,662.3723160889999,668.1332168869999,,,,,,,,,,,,,,,,,,,,,,,,,,,,,,,,,,,,,,,,,,,,,,,,,,,,,,,,,,,,,,,,,,,,040122,0,3,2,3,0,1,2,0,36,2022_Apr_01_1129,listening_fmri,3.2.4,60.158820971776684,
3,parcelated_audio/11/11_6.ogg,,,,,,,,,0,0,0,0,0,3,3,3,0,0,0,0,,,,,,,,,0,0,0,0,0,5,5,5,,,,,,,,,,,,,,,,,,,,,,,,,,,,,,,,,,,,,,,,,,,,,,,,668.1335722420004,672.7235639400001,,,,,,,,,,,,,,,,,,,,,,,,,,,,,,,,,,,,,,,,,,,,,,,,,,,,,,,,,,,,,,,,,,,,040122,0,3,2,3,0,1,2,0,36,2022_Apr_01_1129,listening_fmri,3.2.4,60.158820971776684,
3,parcelated_audio/11/11_7.ogg,,,,,,,,,0,0,0,0,0,3,3,3,0,0,0,0,,,,,,,,,0,0,0,0,0,6,6,6,,,,,,,,,,,,,,,,,,,,,,,,,,,,,,,,,,,,,,,,,,,,,,,,672.7243228339998,679.2675781740004,,,,,,,,,,,,,,,,,,,,,,,,,,,,,,,,,,,,,,,,,,,,,,,,,,,,,,,,,,,,,,,,,,,,040122,0,3,2,3,0,1,2,0,36,2022_Apr_01_1129,listening_fmri,3.2.4,60.158820971776684,
3,parcelated_audio/11/11_8.ogg,,,,,,,,,0,0,0,0,0,3,3,3,0,0,0,0,,,,,,,,,0,0,0,0,0,7,7,7,,,,,,,,,,,,,,,,,,,,,,,,,,,,,,,,,,,,,,,,,,,,,,,,679.2679443880002,685.0501443239996,,,,,,,,,,,,,,,,,,,,,,,,,,,,,,,,,,,,,,,,,,,,,,,,,,,,,,,,,,,,,,,,,,,,040122,0,3,2,3,0,1,2,0,36,2022_Apr_01_1129,listening_fmri,3.2.4,60.158820971776684,
3,parcelated_audio/11/11_9.ogg,,,,,,,,,0,0,0,0,0,3,3,3,0,0,0,0,,,,,,,,,0,0,0,0,0,8,8,8,,,,,,,,,,,,,,,,,,,,,,,,,,,,,,,,,,,,,,,,,,,,,,,,685.0504662609997,689.3529251960003,,,,,,,,,,,,,,,,,,,,,,,,,,,,,,,,,,,,,,,,,,,,,,,,,,,,,,,,,,,,,,,,,,,,040122,0,3,2,3,0,1,2,0,36,2022_Apr_01_1129,listening_fmri,3.2.4,60.158820971776684,
3,parcelated_audio/11/11_10.ogg,,,,,,,,,0,0,0,0,0,3,3,3,0,0,0,0,,,,,,,,,0,0,0,0,0,9,9,9,,,,,,,,,,,,,,,,,,,,,,,,,,,,,,,,,,,,,,,,,,,,,,,,689.3532760929997,693.9235807399996,,,,,,,,,,,,,,,,,,,,,,,,,,,,,,,,,,,,,,,,,,,,,,,,,,,,,,,,,,,,,,,,,,,,040122,0,3,2,3,0,1,2,0,36,2022_Apr_01_1129,listening_fmri,3.2.4,60.158820971776684,
3,parcelated_audio/11/11_11.ogg,,,,,,,,,0,0,0,0,0,3,3,3,0,0,0,0,,,,,,,,,0,0,0,0,0,10,10,10,,,,,,,,,,,,,,,,,,,,,,,,,,,,,,,,,,,,,,,,,,,,,,,,693.9238966150001,697.0970702620002,,,,,,,,,,,,,,,,,,,,,,,,,,,,,,,,,,,,,,,,,,,,,,,,,,,,,,,,,,,,,,,,,,,,040122,0,3,2,3,0,1,2,0,36,2022_Apr_01_1129,listening_fmri,3.2.4,60.158820971776684,
3,parcelated_audio/11/11_12.ogg,,,,,,,,,0,0,0,0,0,3,3,3,0,0,0,0,,,,,,,,,0,0,0,0,0,11,11,11,,,,,,,,,,,,,,,,,,,,,,,,,,,,,,,,,,,,,,,,,,,,,,,,697.0974155939998,699.9239346899999,,,,,,,,,,,,,,,,,,,,,,,,,,,,,,,,,,,,,,,,,,,,,,,,,,,,,,,,,,,,,,,,,,,,040122,0,3,2,3,0,1,2,0,36,2022_Apr_01_1129,listening_fmri,3.2.4,60.158820971776684,
3,parcelated_audio/11/11_13.ogg,,,,,,,,,0,0,0,0,0,3,3,3,0,0,0,0,,,,,,,,,0,0,0,0,0,12,12,12,,,,,,,,,,,,,,,,,,,,,,,,,,,,,,,,,,,,,,,,,,,,,,,,699.9243139710002,703.2464960290004,,,,,,,,,,,,,,,,,,,,,,,,,,,,,,,,,,,,,,,,,,,,,,,,,,,,,,,,,,,,,,,,,,,,040122,0,3,2,3,0,1,2,0,36,2022_Apr_01_1129,listening_fmri,3.2.4,60.158820971776684,
3,parcelated_audio/11/11_14.ogg,,,,,,,,,0,0,0,0,0,3,3,3,0,0,0,0,,,,,,,,,0,0,0,0,0,13,13,13,,,,,,,,,,,,,,,,,,,,,,,,,,,,,,,,,,,,,,,,,,,,,,,,703.2469183959997,705.9557033790002,,,,,,,,,,,,,,,,,,,,,,,,,,,,,,,,,,,,,,,,,,,,,,,,,,,,,,,,,,,,,,,,,,,,040122,0,3,2,3,0,1,2,0,36,2022_Apr_01_1129,listening_fmri,3.2.4,60.158820971776684,
3,parcelated_audio/11/11_15.ogg,,,,,,,,,0,0,0,0,0,3,3,3,0,0,0,0,,,,,,,,,0,0,0,0,0,14,14,14,,,,,,,,,,,,,,,,,,,,,,,,,,,,,,,,,,,,,,,,,,,,,,,,705.95605828,717.1425132629997,,,,,,,,,,,,,,,,,,,,,,,,,,,,,,,,,,,,,,,,,,,,,,,,,,,,,,,,,,,,,,,,,,,,040122,0,3,2,3,0,1,2,0,36,2022_Apr_01_1129,listening_fmri,3.2.4,60.158820971776684,
3,parcelated_audio/11/11_16.ogg,,,,,,,,,0,0,0,0,0,3,3,3,0,0,0,0,,,,,,,,,0,0,0,0,0,15,15,15,,,,,,,,,,,,,,,,,,,,,,,,,,,,,,,,,,,,,,,,,,,,,,,,717.1428596270002,720.1425188919998,,,,,,,,,,,,,,,,,,,,,,,,,,,,,,,,,,,,,,,,,,,,,,,,,,,,,,,,,,,,,,,,,,,,040122,0,3,2,3,0,1,2,0,36,2022_Apr_01_1129,listening_fmri,3.2.4,60.158820971776684,
3,parcelated_audio/11/11_17.ogg,,,,,,,,,0,0,0,0,0,3,3,3,0,0,0,0,,,,,,,,,0,0,0,0,0,16,16,16,,,,,,,,,,,,,,,,,,,,,,,,,,,,,,,,,,,,,,,,,,,,,,,,720.1428712479997,727.113117458,,,,,,,,,,,,,,,,,,,,,,,,,,,,,,,,,,,,,,,,,,,,,,,,,,,,,,,,,,,,,,,,,,,,040122,0,3,2,3,0,1,2,0,36,2022_Apr_01_1129,listening_fmri,3.2.4,60.158820971776684,
3,parcelated_audio/11/11_18.ogg,,,,,,,,,0,0,0,0,0,3,3,3,0,0,0,0,,,,,,,,,0,0,0,0,0,17,17,17,,,,,,,,,,,,,,,,,,,,,,,,,,,,,,,,,,,,,,,,,,,,,,,,727.1136429780004,734.5772866570001,,,,,,,,,,,,,,,,,,,,,,,,,,,,,,,,,,,,,,,,,,,,,,,,,,,,,,,,,,,,,,,,,,,,040122,0,3,2,3,0,1,2,0,36,2022_Apr_01_1129,listening_fmri,3.2.4,60.158820971776684,
3,parcelated_audio/11/11_19.ogg,,,,,,,,,0,0,0,0,0,3,3,3,0,0,0,0,,,,,,,,,0,0,0,0,0,18,18,18,,,,,,,,,,,,,,,,,,,,,,,,,,,,,,,,,,,,,,,,,,,,,,,,734.5776294849998,739.2536630179998,,,,,,,,,,,,,,,,,,,,,,,,,,,,,,,,,,,,,,,,,,,,,,,,,,,,,,,,,,,,,,,,,,,,040122,0,3,2,3,0,1,2,0,36,2022_Apr_01_1129,listening_fmri,3.2.4,60.158820971776684,
3,parcelated_audio/11/11_20.ogg,,,,,,,,,0,0,0,0,0,3,3,3,0,0,0,0,,,,,,,,,0,0,0,0,0,19,19,19,,,,,,,,,,,,,,,,,,,,,,,,,,,,,,,,,,,,,,,,,,,,,,,,739.2540085269998,744.1700908079997,,,,,,,,,,,,,,,,,,,,,,,,,,,,,,,,,,,,,,,,,,,,,,,,,,,,,,,,,,,,,,,,,,,,040122,0,3,2,3,0,1,2,0,36,2022_Apr_01_1129,listening_fmri,3.2.4,60.158820971776684,
3,parcelated_audio/11/11_21.ogg,,,,,,,,,0,0,0,0,0,3,3,3,0,0,0,0,,,,,,,,,0,0,0,0,0,20,20,20,,,,,,,,,,,,,,,,,,,,,,,,,,,,,,,,,,,,,,,,,,,,,,,,744.1708883300003,752.9396026279996,,,,,,,,,,,,,,,,,,,,,,,,,,,,,,,,,,,,,,,,,,,,,,,,,,,,,,,,,,,,,,,,,,,,040122,0,3,2,3,0,1,2,0,36,2022_Apr_01_1129,listening_fmri,3.2.4,60.158820971776684,
3,parcelated_audio/11/11_22.ogg,,,,,,,,,0,0,0,0,0,3,3,3,0,0,0,0,,,,,,,,,0,0,0,0,0,21,21,21,,,,,,,,,,,,,,,,,,,,,,,,,,,,,,,,,,,,,,,,,,,,,,,,752.9399666730001,756.232639374,,,,,,,,,,,,,,,,,,,,,,,,,,,,,,,,,,,,,,,,,,,,,,,,,,,,,,,,,,,,,,,,,,,,040122,0,3,2,3,0,1,2,0,36,2022_Apr_01_1129,listening_fmri,3.2.4,60.158820971776684,
3,parcelated_audio/11/11_23.ogg,,,,,,,,,0,0,0,0,0,3,3,3,0,0,0,0,,,,,,,,,0,0,0,0,0,22,22,22,,,,,,,,,,,,,,,,,,,,,,,,,,,,,,,,,,,,,,,,,,,,,,,,756.2329881150004,761.0127284859996,,,,,,,,,,,,,,,,,,,,,,,,,,,,,,,,,,,,,,,,,,,,,,,,,,,,,,,,,,,,,,,,,,,,040122,0,3,2,3,0,1,2,0,36,2022_Apr_01_1129,listening_fmri,3.2.4,60.158820971776684,
3,parcelated_audio/11/11_24.ogg,,,,,,,,,0,0,0,0,0,3,3,3,0,0,0,0,,,,,,,,,0,0,0,0,0,23,23,23,,,,,,,,,,,,,,,,,,,,,,,,,,,,,,,,,,,,,,,,,,,,,,,,761.0131762349997,764.7371159580002,,,,,,,,,,,,,,,,,,,,,,,,,,,,,,,,,,,,,,,,,,,,,,,,,,,,,,,,,,,,,,,,,,,,040122,0,3,2,3,0,1,2,0,36,2022_Apr_01_1129,listening_fmri,3.2.4,60.158820971776684,
3,parcelated_audio/11/11_25.ogg,,,,,,,,,0,0,0,0,0,3,3,3,0,0,0,0,,,,,,,,,0,0,0,0,0,24,24,24,,,,,,,,,,,,,,,,,,,,,,,,,,,,,,,,,,,,,,,,,,,,,,,,764.7374444840002,769.4800208190004,,,,,,,,,,,,,,,,,,,,,,,,,,,,,,,,,,,,,,,,,,,,,,,,,,,,,,,,,,,,,,,,,,,,040122,0,3,2,3,0,1,2,0,36,2022_Apr_01_1129,listening_fmri,3.2.4,60.158820971776684,
3,parcelated_audio/11/11_26.ogg,,,,,,,,,0,0,0,0,0,3,3,3,0,0,0,0,,,,,,,,,0,0,0,0,0,25,25,25,,,,,,,,,,,,,,,,,,,,,,,,,,,,,,,,,,,,,,,,,,,,,,,,769.4803666419998,774.4876945609999,,,,,,,,,,,,,,,,,,,,,,,,,,,,,,,,,,,,,,,,,,,,,,,,,,,,,,,,,,,,,,,,,,,,040122,0,3,2,3,0,1,2,0,36,2022_Apr_01_1129,listening_fmri,3.2.4,60.158820971776684,
3,parcelated_audio/11/11_27.ogg,,,,,,,,,0,0,0,0,0,3,3,3,0,0,0,0,,,,,,,,,0,0,0,0,0,26,26,26,,,,,,,,,,,,,,,,,,,,,,,,,,,,,,,,,,,,,,,,,,,,,,,,774.487963989,778.4515714419999,,,,,,,,,,,,,,,,,,,,,,,,,,,,,,,,,,,,,,,,,,,,,,,,,,,,,,,,,,,,,,,,,,,,040122,0,3,2,3,0,1,2,0,36,2022_Apr_01_1129,listening_fmri,3.2.4,60.158820971776684,
3,parcelated_audio/11/11_28.ogg,,,,,,,,,0,0,0,0,0,3,3,3,0,0,0,0,,,,,,,,,0,0,0,0,0,27,27,27,,,,,,,,,,,,,,,,,,,,,,,,,,,,,,,,,,,,,,,,,,,,,,,,778.4520061859998,781.8886260949998,,,,,,,,,,,,,,,,,,,,,,,,,,,,,,,,,,,,,,,,,,,,,,,,,,,,,,,,,,,,,,,,,,,,040122,0,3,2,3,0,1,2,0,36,2022_Apr_01_1129,listening_fmri,3.2.4,60.158820971776684,
3,parcelated_audio/11/11_29.ogg,,,,,,,,,0,0,0,0,0,3,3,3,0,0,0,0,,,,,,,,,0,0,0,0,0,28,28,28,,,,,,,,,,,,,,,,,,,,,,,,,,,,,,,,,,,,,,,,,,,,,,,,781.8889686859998,786.0597481939999,,,,,,,,,,,,,,,,,,,,,,,,,,,,,,,,,,,,,,,,,,,,,,,,,,,,,,,,,,,,,,,,,,,,040122,0,3,2,3,0,1,2,0,36,2022_Apr_01_1129,listening_fmri,3.2.4,60.158820971776684,
3,parcelated_audio/11/11_30.ogg,,,,,,,,,0,0,0,0,0,3,3,3,0,0,0,0,,,,,,,,,0,0,0,0,0,29,29,29,,,,,,,,,,,,,,,,,,,,,,,,,,,,,,,,,,,,,,,,,,,,,,,,786.0600735379999,790.5821325000002,,,,,,,,,,,,,,,,,,,,,,,,,,,,,,,,,,,,,,,,,,,,,,,,,,,,,,,,,,,,,,,,,,,,040122,0,3,2,3,0,1,2,0,36,2022_Apr_01_1129,listening_fmri,3.2.4,60.158820971776684,
3,parcelated_audio/11/11_31.ogg,,,,,,,,,0,0,0,0,0,3,3,3,0,0,0,0,,,,,,,,,0,0,0,0,0,30,30,30,,,,,,,,,,,,,,,,,,,,,,,,,,,,,,,,,,,,,,,,,,,,,,,,790.5826137899999,795.4261900719998,,,,,,,,,,,,,,,,,,,,,,,,,,,,,,,,,,,,,,,,,,,,,,,,,,,,,,,,,,,,,,,,,,,,040122,0,3,2,3,0,1,2,0,36,2022_Apr_01_1129,listening_fmri,3.2.4,60.158820971776684,
3,parcelated_audio/11/11_32.ogg,,,,,,,,,0,0,0,0,0,3,3,3,0,0,0,0,,,,,,,,,0,0,0,0,0,31,31,31,,,,,,,,,,,,,,,,,,,,,,,,,,,,,,,,,,,,,,,,,,,,,,,,795.4264608609997,799.4968898760003,,,,,,,,,,,,,,,,,,,,,,,,,,,,,,,,,,,,,,,,,,,,,,,,,,,,,,,,,,,,,,,,,,,,040122,0,3,2,3,0,1,2,0,36,2022_Apr_01_1129,listening_fmri,3.2.4,60.158820971776684,
3,parcelated_audio/11/11_33.ogg,,,,,,,,,0,0,0,0,0,3,3,3,0,0,0,0,,,,,,,,,0,0,0,0,0,32,32,32,,,,,,,,,,,,,,,,,,,,,,,,,,,,,,,,,,,,,,,,,,,,,,,,799.4972216199999,802.0198455539999,,,,,,,,,,,,,,,,,,,,,,,,,,,,,,,,,,,,,,,,,,,,,,,,,,,,,,,,,,,,,,,,,,,,040122,0,3,2,3,0,1,2,0,36,2022_Apr_01_1129,listening_fmri,3.2.4,60.158820971776684,
3,parcelated_audio/11/11_34.ogg,,,,,,,,,0,0,0,0,0,3,3,3,0,0,0,0,,,,,,,,,0,0,0,0,0,33,33,33,,,,,,,,,,,,,,,,,,,,,,,,,,,,,,,,,,,,,,,,,,,,,,,,802.0203476820002,805.3288168120002,,,,,,,,,,,,,,,,,,,,,,,,,,,,,,,,,,,,,,,,,,,,,,,,,,,,,,,,,,,,,,,,,,,,040122,0,3,2,3,0,1,2,0,36,2022_Apr_01_1129,listening_fmri,3.2.4,60.158820971776684,
3,parcelated_audio/11/11_35.ogg,,,,,,,,,0,0,0,0,0,3,3,3,0,0,0,0,,,,,,,,,0,0,0,0,0,34,34,34,,,,,,,,,,,,,,,,,,,,,,,,,,,,,,,,,,,,,,,,,,,,,,,,805.3290930059998,809.6941233450002,,,,,,,,,,,,,,,,,,,,,,,,,,,,,,,,,,,,,,,,,,,,,,,,,,,,,,,,,,,,,,,,,,,,040122,0,3,2,3,0,1,2,0,36,2022_Apr_01_1129,listening_fmri,3.2.4,60.158820971776684,
3,parcelated_audio/11/11_36.ogg,,,,,,,,,0,0,0,0,0,3,3,3,0,0,0,0,,,,,,,,,0,0,0,0,0,35,35,35,,,,,,,,,,,,,,,,,,,,,,,,,,,,,,,,,,,,,,,,,,,,,,,,809.6945825429998,818.709754819,,,,,,,,,,,,,,,,,,,,,,,,,,,,,,,,,,,,,,,,,,,,,,,,,,,,,,,,,,,,,,,,,,,,040122,0,3,2,3,0,1,2,0,36,2022_Apr_01_1129,listening_fmri,3.2.4,60.158820971776684,
3,parcelated_audio/11/11_37.ogg,,,,,,,,,0,0,0,0,0,3,3,3,0,0,0,0,,,,,,,,,0,0,0,0,0,36,36,36,,,,,,,,,,,,,,,,,,,,,,,,,,,,,,,,,,,,,,,,,,,,,,,,818.710033506,822.8889154840003,,,,,,,,,,,,,,,,,,,,,,,,,,,,,,,,,,,,,,,,,,,,,,,,,,,,,,,,,,,,,,,,,,,,040122,0,3,2,3,0,1,2,0,36,2022_Apr_01_1129,listening_fmri,3.2.4,60.158820971776684,
3,parcelated_audio/11/11_38.ogg,,,,,,,,,0,0,0,0,0,3,3,3,0,0,0,0,,,,,,,,,0,0,0,0,0,37,37,37,,,,,,,,,,,,,,,,,,,,,,,,,,,,,,,,,,,,,,,,,,,,,,,,822.8892374339998,829.0540283220002,,,,,,,,,,,,,,,,,,,,,,,,,,,,,,,,,,,,,,,,,,,,,,,,,,,,,,,,,,,,,,,,,,,,040122,0,3,2,3,0,1,2,0,36,2022_Apr_01_1129,listening_fmri,3.2.4,60.158820971776684,
3,parcelated_audio/11/11_39.ogg,,,,,,,,,0,0,0,0,0,3,3,3,0,0,0,0,,,,,,,,,0,0,0,0,0,38,38,38,,,,,,,,,,,,,,,,,,,,,,,,,,,,,,,,,,,,,,,,,,,,,,,,829.0542970179999,834.2362193940003,,,,,,,,,,,,,,,,,,,,,,,,,,,,,,,,,,,,,,,,,,,,,,,,,,,,,,,,,,,,,,,,,,,,040122,0,3,2,3,0,1,2,0,36,2022_Apr_01_1129,listening_fmri,3.2.4,60.158820971776684,
3,parcelated_audio/11/11_40.ogg,,,,,,,,,0,0,0,0,0,3,3,3,0,0,0,0,,,,,,,,,0,0,0,0,0,39,39,39,,,,,,,,,,,,,,,,,,,,,,,,,,,,,,,,,,,,,,,,,,,,,,,,834.2367872159998,839.8960825890003,,,,,,,,,,,,,,,,,,,,,,,,,,,,,,,,,,,,,,,,,,,,,,,,,,,,,,,,,,,,,,,,,,,,040122,0,3,2,3,0,1,2,0,36,2022_Apr_01_1129,listening_fmri,3.2.4,60.158820971776684,
3,parcelated_audio/11/11_41.ogg,,,,,,,,,0,0,0,0,0,3,3,3,0,0,0,0,,,,,,,,,0,0,0,0,0,40,40,40,,,,,,,,,,,,,,,,,,,,,,,,,,,,,,,,,,,,,,,,,,,,,,,,839.8964141459996,846.0401438009999,,,,,,,,,,,,,,,,,,,,,,,,,,,,,,,,,,,,,,,,,,,,,,,,,,,,,,,,,,,,,,,,,,,,040122,0,3,2,3,0,1,2,0,36,2022_Apr_01_1129,listening_fmri,3.2.4,60.158820971776684,
3,,,,,,,,,,0,0,0,0,0,3,3,3,0,0,0,0,,,,,,,,,0,0,0,0,,,,,,,,,,,,,,,,,,,,,,,,,,,,,,,,,,,,,,,,,,,,,,,,,,,,,,,,,,,,,,,,,,,,,,,,,,,,,,,,,,,,,,,,,,,,,,,,,,,,,,,,,,,,,,,,,,,,,,,,,040122,0,3,2,3,0,1,2,0,36,2022_Apr_01_1129,listening_fmri,3.2.4,60.158820971776684,
3,,,,,,,,,,0,0,0,0,0,3,3,3,0,0,0,0,,,,,,,,,,,,,,,,,,,,,,,,,,,,,,,,,,,,,,,,,,846.0406382249998,852.0341164610004,980.3033082820002,None,,,,,,,,,,,,,,,,,,,,,986.3097661130005,None,986.3097661130005,None,,,,,,,,,,,,,,,,,,,,,,,,,,,,,,,,,,,,,,,,,,,,,,,,,,,,,,,,,,,,,,,,040122,0,3,2,3,0,1,2,0,36,2022_Apr_01_1129,listening_fmri,3.2.4,60.158820971776684,
3,,,,,,,,,,0,0,0,0,0,3,3,3,,,,,,,,,,,,,,,,,,,,,,,,,,,,,,,,,,,,,,,,,,,,,,,,,,,,,,,,,,,,,,,,,,,,,,,,,,,,,,,,,,,,,,,,,,,,,,,,,,,,,,,,,,,,,,,,,,,,,,,,,,,,,,,,,,,,,,,,,040122,0,3,2,3,0,1,2,0,36,2022_Apr_01_1129,listening_fmri,3.2.4,60.158820971776684,
4,,,,,,,,,,0,0,0,0,0,4,4,4,0,0,0,0,0,0,0,0,,,,,,,,,,,,,,,,,0,0,0,0,,,,,,,,,,,,,,,,,,,,,,987.3424570759998,None,987.3424570759998,None,2,0.5895373509993078,987.3424570759998,None,987.3424570759998,None,,,,,,,,,,,,,,,987.9520635260005,None,2,0.5199384510005984,987.9520635260005,None,987.9520635260005,None,988.5196769740005,None,988.5196769740005,None,988.5196769740005,None,2,0.6052879689996189,988.5196769740005,None,989.1530958809999,None,2,1.2478665739999997,989.1530958809999,None,989.1530958809999,None,990.5025687970001,None,990.5025687970001,None,990.5025687970001,None,990.5025687970001,None,990.5025687970001,None,990.5025687970001,None,990.5025687970001,None,None,990.5025687970001,None,,,,,,,,,,,,,,,,,,,,,040122,0,3,2,3,0,1,2,0,36,2022_Apr_01_1129,listening_fmri,3.2.4,60.158820971776684,
4,,,,,,,,,,0,0,0,0,0,4,4,4,0,0,0,0,0,0,0,0,,,,,,,,,,,,,,,,,,,,,,,,,,,,,,,,,,,,,,,,,,,,,,,,,,,,,,,,,,,,,,,,,,,,,,,,,,,,,,,,,,,,,,,,,,,,,,,,,,,,,,,,,,,,,1004.319212591,None,1,1.1996177520004494,1004.319212591,None,1004.319212591,None,1005.5535293929997,None,1005.5535293929997,None,1005.5535293929997,None,1,1.3693420050003624,1005.5535293929997,None,,,040122,0,3,2,3,0,1,2,0,36,2022_Apr_01_1129,listening_fmri,3.2.4,60.158820971776684,
4,parcelated_audio/42/42_1.ogg,,,,,,,,,0,0,0,0,0,4,4,4,0,0,0,0,,,,,,,,,0,0,0,0,0,0,0,0,,,,,,,,,,,,,,,,,,,,,,,,,,,,,,,,,,,,,,,,1006.9525001150005,None,1,1.3063522299999022,1006.9525001150005,None,874.0527662540003,877.0735400279996,877.0792697410002,885.4501542129997,,,,,,,,,,,,,,,,,,,,,,,,,,,,,,,,,,,,,,,,,,,,,,,,,,,,,,,,,,,,,,,,,,,,040122,0,3,2,3,0,1,2,0,36,2022_Apr_01_1129,listening_fmri,3.2.4,60.158820971776684,
4,parcelated_audio/42/42_2.ogg,,,,,,,,,0,0,0,0,0,4,4,4,0,0,0,0,,,,,,,,,0,0,0,0,0,1,1,1,,,,,,,,,,,,,,,,,,,,,,,,,,,,,,,,,,,,,,,,,,,,,,,,885.4505078939997,898.1830145130002,,,,,,,,,,,,,,,,,,,,,,,,,,,,,,,,,,,,,,,,,,,,,,,,,,,,,,,,,,,,,,,,,,,,040122,0,3,2,3,0,1,2,0,36,2022_Apr_01_1129,listening_fmri,3.2.4,60.158820971776684,
4,parcelated_audio/42/42_3.ogg,,,,,,,,,0,0,0,0,0,4,4,4,0,0,0,0,,,,,,,,,0,0,0,0,0,2,2,2,,,,,,,,,,,,,,,,,,,,,,,,,,,,,,,,,,,,,,,,,,,,,,,,898.1837634299995,908.5721300399996,,,,,,,,,,,,,,,,,,,,,,,,,,,,,,,,,,,,,,,,,,,,,,,,,,,,,,,,,,,,,,,,,,,,040122,0,3,2,3,0,1,2,0,36,2022_Apr_01_1129,listening_fmri,3.2.4,60.158820971776684,
4,parcelated_audio/42/42_4.ogg,,,,,,,,,0,0,0,0,0,4,4,4,0,0,0,0,,,,,,,,,0,0,0,0,0,3,3,3,,,,,,,,,,,,,,,,,,,,,,,,,,,,,,,,,,,,,,,,,,,,,,,,908.5730446869998,922.2648468829998,,,,,,,,,,,,,,,,,,,,,,,,,,,,,,,,,,,,,,,,,,,,,,,,,,,,,,,,,,,,,,,,,,,,040122,0,3,2,3,0,1,2,0,36,2022_Apr_01_1129,listening_fmri,3.2.4,60.158820971776684,
4,parcelated_audio/42/42_5.ogg,,,,,,,,,0,0,0,0,0,4,4,4,0,0,0,0,,,,,,,,,0,0,0,0,0,4,4,4,,,,,,,,,,,,,,,,,,,,,,,,,,,,,,,,,,,,,,,,,,,,,,,,922.2652021649997,933.7050056060002,,,,,,,,,,,,,,,,,,,,,,,,,,,,,,,,,,,,,,,,,,,,,,,,,,,,,,,,,,,,,,,,,,,,040122,0,3,2,3,0,1,2,0,36,2022_Apr_01_1129,listening_fmri,3.2.4,60.158820971776684,
4,parcelated_audio/42/42_6.ogg,,,,,,,,,0,0,0,0,0,4,4,4,0,0,0,0,,,,,,,,,0,0,0,0,0,5,5,5,,,,,,,,,,,,,,,,,,,,,,,,,,,,,,,,,,,,,,,,,,,,,,,,933.7053526650002,940.1956183589996,,,,,,,,,,,,,,,,,,,,,,,,,,,,,,,,,,,,,,,,,,,,,,,,,,,,,,,,,,,,,,,,,,,,040122,0,3,2,3,0,1,2,0,36,2022_Apr_01_1129,listening_fmri,3.2.4,60.158820971776684,
4,parcelated_audio/42/42_7.ogg,,,,,,,,,0,0,0,0,0,4,4,4,0,0,0,0,,,,,,,,,0,0,0,0,0,6,6,6,,,,,,,,,,,,,,,,,,,,,,,,,,,,,,,,,,,,,,,,,,,,,,,,940.1959611380003,945.3741495789995,,,,,,,,,,,,,,,,,,,,,,,,,,,,,,,,,,,,,,,,,,,,,,,,,,,,,,,,,,,,,,,,,,,,040122,0,3,2,3,0,1,2,0,36,2022_Apr_01_1129,listening_fmri,3.2.4,60.158820971776684,
4,parcelated_audio/42/42_8.ogg,,,,,,,,,0,0,0,0,0,4,4,4,0,0,0,0,,,,,,,,,0,0,0,0,0,7,7,7,,,,,,,,,,,,,,,,,,,,,,,,,,,,,,,,,,,,,,,,,,,,,,,,945.3745002350001,948.53014201,,,,,,,,,,,,,,,,,,,,,,,,,,,,,,,,,,,,,,,,,,,,,,,,,,,,,,,,,,,,,,,,,,,,040122,0,3,2,3,0,1,2,0,36,2022_Apr_01_1129,listening_fmri,3.2.4,60.158820971776684,
4,parcelated_audio/42/42_9.ogg,,,,,,,,,0,0,0,0,0,4,4,4,0,0,0,0,,,,,,,,,0,0,0,0,0,8,8,8,,,,,,,,,,,,,,,,,,,,,,,,,,,,,,,,,,,,,,,,,,,,,,,,948.5304915459997,957.0759591909996,,,,,,,,,,,,,,,,,,,,,,,,,,,,,,,,,,,,,,,,,,,,,,,,,,,,,,,,,,,,,,,,,,,,040122,0,3,2,3,0,1,2,0,36,2022_Apr_01_1129,listening_fmri,3.2.4,60.158820971776684,
4,parcelated_audio/42/42_10.ogg,,,,,,,,,0,0,0,0,0,4,4,4,0,0,0,0,,,,,,,,,0,0,0,0,0,9,9,9,,,,,,,,,,,,,,,,,,,,,,,,,,,,,,,,,,,,,,,,,,,,,,,,957.0762337720003,961.4038542100002,,,,,,,,,,,,,,,,,,,,,,,,,,,,,,,,,,,,,,,,,,,,,,,,,,,,,,,,,,,,,,,,,,,,040122,0,3,2,3,0,1,2,0,36,2022_Apr_01_1129,listening_fmri,3.2.4,60.158820971776684,
4,parcelated_audio/42/42_11.ogg,,,,,,,,,0,0,0,0,0,4,4,4,0,0,0,0,,,,,,,,,0,0,0,0,0,10,10,10,,,,,,,,,,,,,,,,,,,,,,,,,,,,,,,,,,,,,,,,,,,,,,,,961.4068109880004,966.3868126680004,,,,,,,,,,,,,,,,,,,,,,,,,,,,,,,,,,,,,,,,,,,,,,,,,,,,,,,,,,,,,,,,,,,,040122,0,3,2,3,0,1,2,0,36,2022_Apr_01_1129,listening_fmri,3.2.4,60.158820971776684,
4,parcelated_audio/42/42_12.ogg,,,,,,,,,0,0,0,0,0,4,4,4,0,0,0,0,,,,,,,,,0,0,0,0,0,11,11,11,,,,,,,,,,,,,,,,,,,,,,,,,,,,,,,,,,,,,,,,,,,,,,,,966.3877739260001,972.3451899500001,,,,,,,,,,,,,,,,,,,,,,,,,,,,,,,,,,,,,,,,,,,,,,,,,,,,,,,,,,,,,,,,,,,,040122,0,3,2,3,0,1,2,0,36,2022_Apr_01_1129,listening_fmri,3.2.4,60.158820971776684,
4,parcelated_audio/42/42_13.ogg,,,,,,,,,0,0,0,0,0,4,4,4,0,0,0,0,,,,,,,,,0,0,0,0,0,12,12,12,,,,,,,,,,,,,,,,,,,,,,,,,,,,,,,,,,,,,,,,,,,,,,,,972.3455393569998,979.5017339869996,,,,,,,,,,,,,,,,,,,,,,,,,,,,,,,,,,,,,,,,,,,,,,,,,,,,,,,,,,,,,,,,,,,,040122,0,3,2,3,0,1,2,0,36,2022_Apr_01_1129,listening_fmri,3.2.4,60.158820971776684,
4,parcelated_audio/42/42_14.ogg,,,,,,,,,0,0,0,0,0,4,4,4,0,0,0,0,,,,,,,,,0,0,0,0,0,13,13,13,,,,,,,,,,,,,,,,,,,,,,,,,,,,,,,,,,,,,,,,,,,,,,,,979.5020805990002,984.227532507,,,,,,,,,,,,,,,,,,,,,,,,,,,,,,,,,,,,,,,,,,,,,,,,,,,,,,,,,,,,,,,,,,,,040122,0,3,2,3,0,1,2,0,36,2022_Apr_01_1129,listening_fmri,3.2.4,60.158820971776684,
4,parcelated_audio/42/42_15.ogg,,,,,,,,,0,0,0,0,0,4,4,4,0,0,0,0,,,,,,,,,0,0,0,0,0,14,14,14,,,,,,,,,,,,,,,,,,,,,,,,,,,,,,,,,,,,,,,,,,,,,,,,984.227883135,990.0862063569998,,,,,,,,,,,,,,,,,,,,,,,,,,,,,,,,,,,,,,,,,,,,,,,,,,,,,,,,,,,,,,,,,,,,040122,0,3,2,3,0,1,2,0,36,2022_Apr_01_1129,listening_fmri,3.2.4,60.158820971776684,
4,parcelated_audio/42/42_16.ogg,,,,,,,,,0,0,0,0,0,4,4,4,0,0,0,0,,,,,,,,,0,0,0,0,0,15,15,15,,,,,,,,,,,,,,,,,,,,,,,,,,,,,,,,,,,,,,,,,,,,,,,,990.0871159679996,995.6672817619997,,,,,,,,,,,,,,,,,,,,,,,,,,,,,,,,,,,,,,,,,,,,,,,,,,,,,,,,,,,,,,,,,,,,040122,0,3,2,3,0,1,2,0,36,2022_Apr_01_1129,listening_fmri,3.2.4,60.158820971776684,
4,parcelated_audio/42/42_17.ogg,,,,,,,,,0,0,0,0,0,4,4,4,0,0,0,0,,,,,,,,,0,0,0,0,0,16,16,16,,,,,,,,,,,,,,,,,,,,,,,,,,,,,,,,,,,,,,,,,,,,,,,,995.6676286240004,1005.3485324449998,,,,,,,,,,,,,,,,,,,,,,,,,,,,,,,,,,,,,,,,,,,,,,,,,,,,,,,,,,,,,,,,,,,,040122,0,3,2,3,0,1,2,0,36,2022_Apr_01_1129,listening_fmri,3.2.4,60.158820971776684,
4,parcelated_audio/42/42_18.ogg,,,,,,,,,0,0,0,0,0,4,4,4,0,0,0,0,,,,,,,,,0,0,0,0,0,17,17,17,,,,,,,,,,,,,,,,,,,,,,,,,,,,,,,,,,,,,,,,,,,,,,,,1005.348908685,1010.7840738210002,,,,,,,,,,,,,,,,,,,,,,,,,,,,,,,,,,,,,,,,,,,,,,,,,,,,,,,,,,,,,,,,,,,,040122,0,3,2,3,0,1,2,0,36,2022_Apr_01_1129,listening_fmri,3.2.4,60.158820971776684,
4,parcelated_audio/42/42_19.ogg,,,,,,,,,0,0,0,0,0,4,4,4,0,0,0,0,,,,,,,,,0,0,0,0,0,18,18,18,,,,,,,,,,,,,,,,,,,,,,,,,,,,,,,,,,,,,,,,,,,,,,,,1010.7849586730003,1019.9416286210003,,,,,,,,,,,,,,,,,,,,,,,,,,,,,,,,,,,,,,,,,,,,,,,,,,,,,,,,,,,,,,,,,,,,040122,0,3,2,3,0,1,2,0,36,2022_Apr_01_1129,listening_fmri,3.2.4,60.158820971776684,
4,parcelated_audio/42/42_20.ogg,,,,,,,,,0,0,0,0,0,4,4,4,0,0,0,0,,,,,,,,,0,0,0,0,0,19,19,19,,,,,,,,,,,,,,,,,,,,,,,,,,,,,,,,,,,,,,,,,,,,,,,,1019.9421018219996,1024.5890572909998,,,,,,,,,,,,,,,,,,,,,,,,,,,,,,,,,,,,,,,,,,,,,,,,,,,,,,,,,,,,,,,,,,,,040122,0,3,2,3,0,1,2,0,36,2022_Apr_01_1129,listening_fmri,3.2.4,60.158820971776684,
4,parcelated_audio/42/42_21.ogg,,,,,,,,,0,0,0,0,0,4,4,4,0,0,0,0,,,,,,,,,0,0,0,0,0,20,20,20,,,,,,,,,,,,,,,,,,,,,,,,,,,,,,,,,,,,,,,,,,,,,,,,1024.5895594790004,1034.5050601400003,,,,,,,,,,,,,,,,,,,,,,,,,,,,,,,,,,,,,,,,,,,,,,,,,,,,,,,,,,,,,,,,,,,,040122,0,3,2,3,0,1,2,0,36,2022_Apr_01_1129,listening_fmri,3.2.4,60.158820971776684,
4,parcelated_audio/42/42_22.ogg,,,,,,,,,0,0,0,0,0,4,4,4,0,0,0,0,,,,,,,,,0,0,0,0,0,21,21,21,,,,,,,,,,,,,,,,,,,,,,,,,,,,,,,,,,,,,,,,,,,,,,,,1034.5053842920001,1039.273117825,,,,,,,,,,,,,,,,,,,,,,,,,,,,,,,,,,,,,,,,,,,,,,,,,,,,,,,,,,,,,,,,,,,,040122,0,3,2,3,0,1,2,0,36,2022_Apr_01_1129,listening_fmri,3.2.4,60.158820971776684,
4,parcelated_audio/42/42_23.ogg,,,,,,,,,0,0,0,0,0,4,4,4,0,0,0,0,,,,,,,,,0,0,0,0,0,22,22,22,,,,,,,,,,,,,,,,,,,,,,,,,,,,,,,,,,,,,,,,,,,,,,,,1039.2736380299998,1045.5020775090002,,,,,,,,,,,,,,,,,,,,,,,,,,,,,,,,,,,,,,,,,,,,,,,,,,,,,,,,,,,,,,,,,,,,040122,0,3,2,3,0,1,2,0,36,2022_Apr_01_1129,listening_fmri,3.2.4,60.158820971776684,
4,parcelated_audio/42/42_24.ogg,,,,,,,,,0,0,0,0,0,4,4,4,0,0,0,0,,,,,,,,,0,0,0,0,0,23,23,23,,,,,,,,,,,,,,,,,,,,,,,,,,,,,,,,,,,,,,,,,,,,,,,,1045.5025179919999,1053.9530953870003,,,,,,,,,,,,,,,,,,,,,,,,,,,,,,,,,,,,,,,,,,,,,,,,,,,,,,,,,,,,,,,,,,,,040122,0,3,2,3,0,1,2,0,36,2022_Apr_01_1129,listening_fmri,3.2.4,60.158820971776684,
4,parcelated_audio/42/42_25.ogg,,,,,,,,,0,0,0,0,0,4,4,4,0,0,0,0,,,,,,,,,0,0,0,0,0,24,24,24,,,,,,,,,,,,,,,,,,,,,,,,,,,,,,,,,,,,,,,,,,,,,,,,1053.9535241320004,1060.1824711639997,,,,,,,,,,,,,,,,,,,,,,,,,,,,,,,,,,,,,,,,,,,,,,,,,,,,,,,,,,,,,,,,,,,,040122,0,3,2,3,0,1,2,0,36,2022_Apr_01_1129,listening_fmri,3.2.4,60.158820971776684,
4,parcelated_audio/42/42_26.ogg,,,,,,,,,0,0,0,0,0,4,4,4,0,0,0,0,,,,,,,,,0,0,0,0,0,25,25,25,,,,,,,,,,,,,,,,,,,,,,,,,,,,,,,,,,,,,,,,,,,,,,,,1060.1829154989996,1066.078170356,,,,,,,,,,,,,,,,,,,,,,,,,,,,,,,,,,,,,,,,,,,,,,,,,,,,,,,,,,,,,,,,,,,,040122,0,3,2,3,0,1,2,0,36,2022_Apr_01_1129,listening_fmri,3.2.4,60.158820971776684,
4,parcelated_audio/42/42_27.ogg,,,,,,,,,0,0,0,0,0,4,4,4,0,0,0,0,,,,,,,,,0,0,0,0,0,26,26,26,,,,,,,,,,,,,,,,,,,,,,,,,,,,,,,,,,,,,,,,,,,,,,,,1066.0784717299998,1073.739074359,,,,,,,,,,,,,,,,,,,,,,,,,,,,,,,,,,,,,,,,,,,,,,,,,,,,,,,,,,,,,,,,,,,,040122,0,3,2,3,0,1,2,0,36,2022_Apr_01_1129,listening_fmri,3.2.4,60.158820971776684,
4,parcelated_audio/42/42_28.ogg,,,,,,,,,0,0,0,0,0,4,4,4,0,0,0,0,,,,,,,,,0,0,0,0,0,27,27,27,,,,,,,,,,,,,,,,,,,,,,,,,,,,,,,,,,,,,,,,,,,,,,,,1073.739420335,1079.3901488859997,,,,,,,,,,,,,,,,,,,,,,,,,,,,,,,,,,,,,,,,,,,,,,,,,,,,,,,,,,,,,,,,,,,,040122,0,3,2,3,0,1,2,0,36,2022_Apr_01_1129,listening_fmri,3.2.4,60.158820971776684,
4,parcelated_audio/42/42_29.ogg,,,,,,,,,0,0,0,0,0,4,4,4,0,0,0,0,,,,,,,,,0,0,0,0,0,28,28,28,,,,,,,,,,,,,,,,,,,,,,,,,,,,,,,,,,,,,,,,,,,,,,,,1079.3906656670001,1086.2781289680001,,,,,,,,,,,,,,,,,,,,,,,,,,,,,,,,,,,,,,,,,,,,,,,,,,,,,,,,,,,,,,,,,,,,040122,0,3,2,3,0,1,2,0,36,2022_Apr_01_1129,listening_fmri,3.2.4,60.158820971776684,
4,parcelated_audio/42/42_30.ogg,,,,,,,,,0,0,0,0,0,4,4,4,0,0,0,0,,,,,,,,,0,0,0,0,0,29,29,29,,,,,,,,,,,,,,,,,,,,,,,,,,,,,,,,,,,,,,,,,,,,,,,,1086.2786782810003,1097.2517879579996,,,,,,,,,,,,,,,,,,,,,,,,,,,,,,,,,,,,,,,,,,,,,,,,,,,,,,,,,,,,,,,,,,,,040122,0,3,2,3,0,1,2,0,36,2022_Apr_01_1129,listening_fmri,3.2.4,60.158820971776684,
4,parcelated_audio/42/42_31.ogg,,,,,,,,,0,0,0,0,0,4,4,4,0,0,0,0,,,,,,,,,0,0,0,0,0,30,30,30,,,,,,,,,,,,,,,,,,,,,,,,,,,,,,,,,,,,,,,,,,,,,,,,1097.2521468970003,1103.4320455089996,,,,,,,,,,,,,,,,,,,,,,,,,,,,,,,,,,,,,,,,,,,,,,,,,,,,,,,,,,,,,,,,,,,,040122,0,3,2,3,0,1,2,0,36,2022_Apr_01_1129,listening_fmri,3.2.4,60.158820971776684,
4,parcelated_audio/42/42_32.ogg,,,,,,,,,0,0,0,0,0,4,4,4,0,0,0,0,,,,,,,,,0,0,0,0,0,31,31,31,,,,,,,,,,,,,,,,,,,,,,,,,,,,,,,,,,,,,,,,,,,,,,,,1103.4323957499996,1111.587153563,,,,,,,,,,,,,,,,,,,,,,,,,,,,,,,,,,,,,,,,,,,,,,,,,,,,,,,,,,,,,,,,,,,,040122,0,3,2,3,0,1,2,0,36,2022_Apr_01_1129,listening_fmri,3.2.4,60.158820971776684,
4,parcelated_audio/42/42_33.ogg,,,,,,,,,0,0,0,0,0,4,4,4,0,0,0,0,,,,,,,,,0,0,0,0,0,32,32,32,,,,,,,,,,,,,,,,,,,,,,,,,,,,,,,,,,,,,,,,,,,,,,,,1111.5875034630003,1118.6491008260004,,,,,,,,,,,,,,,,,,,,,,,,,,,,,,,,,,,,,,,,,,,,,,,,,,,,,,,,,,,,,,,,,,,,040122,0,3,2,3,0,1,2,0,36,2022_Apr_01_1129,listening_fmri,3.2.4,60.158820971776684,
4,parcelated_audio/42/42_34.ogg,,,,,,,,,0,0,0,0,0,4,4,4,0,0,0,0,,,,,,,,,0,0,0,0,0,33,33,33,,,,,,,,,,,,,,,,,,,,,,,,,,,,,,,,,,,,,,,,,,,,,,,,1118.6494501800003,1129.3629647740004,,,,,,,,,,,,,,,,,,,,,,,,,,,,,,,,,,,,,,,,,,,,,,,,,,,,,,,,,,,,,,,,,,,,040122,0,3,2,3,0,1,2,0,36,2022_Apr_01_1129,listening_fmri,3.2.4,60.158820971776684,
4,parcelated_audio/42/42_35.ogg,,,,,,,,,0,0,0,0,0,4,4,4,0,0,0,0,,,,,,,,,0,0,0,0,0,34,34,34,,,,,,,,,,,,,,,,,,,,,,,,,,,,,,,,,,,,,,,,,,,,,,,,1129.3633116530004,1139.1221631040003,,,,,,,,,,,,,,,,,,,,,,,,,,,,,,,,,,,,,,,,,,,,,,,,,,,,,,,,,,,,,,,,,,,,040122,0,3,2,3,0,1,2,0,36,2022_Apr_01_1129,listening_fmri,3.2.4,60.158820971776684,
4,,,,,,,,,,0,0,0,0,0,4,4,4,0,0,0,0,,,,,,,,,0,0,0,0,,,,,,,,,,,,,,,,,,,,,,,,,,,,,,,,,,,,,,,,,,,,,,,,,,,,,,,,,,,,,,,,,,,,,,,,,,,,,,,,,,,,,,,,,,,,,,,,,,,,,,,,,,,,,,,,,,,,,,,,,040122,0,3,2,3,0,1,2,0,36,2022_Apr_01_1129,listening_fmri,3.2.4,60.158820971776684,
4,,,,,,,,,,0,0,0,0,0,4,4,4,0,0,0,0,,,,,,,,,,,,,,,,,,,,,,,,,,,,,,,,,,,,,,,,,,1139.1226476799998,1145.1184148520001,1273.3871530830002,None,,,,,,,,,,,,,,,,,,,,,1279.3866693460004,None,1279.3866693460004,None,,,,,,,,,,,,,,,,,,,,,,,,,,,,,,,,,,,,,,,,,,,,,,,,,,,,,,,,,,,,,,,,040122,0,3,2,3,0,1,2,0,36,2022_Apr_01_1129,listening_fmri,3.2.4,60.158820971776684,
4,,,,,,,,,,0,0,0,0,0,4,4,4,,,,,,,,,,,,,,,,,,,,,,,,,,,,,,,,,,,,,,,,,,,,,,,,,,,,,,,,,,,,,,,,,,,,,,,,,,,,,,,,,,,,,,,,,,,,,,,,,,,,,,,,,,,,,,,,,,,,,,,,,,,,,,,,,,,,,,,,,040122,0,3,2,3,0,1,2,0,36,2022_Apr_01_1129,listening_fmri,3.2.4,60.158820971776684,
5,parcelated_audio/31/31_1.ogg,,,,,,,,,0,0,0,0,0,5,5,5,0,0,0,0,,,,,,,,,0,0,0,0,0,0,0,0,,,,,,,,,,,,,,,,,,,,,,,,,,,,,,1280.4205516150005,None,1280.4205516150005,None,1,0.45840810099980445,1280.4205516150005,None,1280.4205516150005,None,1280.9034671440004,None,1,0.5633990220003398,1280.9034671440004,None,1147.2265094950003,1150.2350607619996,1150.241257827,1158.9207883920003,,,,,,,,,,,,,,,,,,,,,,,,,,,,,,,,,,,,,,,,,,,,,,,,,,,,,,,,,,,,,,,,,,,,040122,0,3,2,3,0,1,2,0,36,2022_Apr_01_1129,listening_fmri,3.2.4,60.158820971776684,
5,parcelated_audio/31/31_2.ogg,,,,,,,,,0,0,0,0,0,5,5,5,0,0,0,0,,,,,,,,,0,0,0,0,0,1,1,1,,,,,,,,,,,,,,,,,,,,,,,,,,,,,,,,,,,,,,,,,,,,,,,,1158.92169874,1163.3751930860003,,,,,,,,,,,,,,,,,,,,,,,,,,,,,,,,,,,,,,,,,,,,,,,,,,,,,,,,,,,,,,,,,,,,040122,0,3,2,3,0,1,2,0,36,2022_Apr_01_1129,listening_fmri,3.2.4,60.158820971776684,
5,parcelated_audio/31/31_3.ogg,,,,,,,,,0,0,0,0,0,5,5,5,0,0,0,0,,,,,,,,,0,0,0,0,0,2,2,2,,,,,,,,,,,,,,,,,,,,,,,,,,,,,,,,,,,,,,,,,,,,,,,,1163.375778133,1171.6621075799999,,,,,,,,,,,,,,,,,,,,,,,,,,,,,,,,,,,,,,,,,,,,,,,,,,,,,,,,,,,,,,,,,,,,040122,0,3,2,3,0,1,2,0,36,2022_Apr_01_1129,listening_fmri,3.2.4,60.158820971776684,
5,parcelated_audio/31/31_4.ogg,,,,,,,,,0,0,0,0,0,5,5,5,0,0,0,0,,,,,,,,,0,0,0,0,0,3,3,3,,,,,,,,,,,,,,,,,,,,,,,,,,,,,,,,,,,,,,,,,,,,,,,,1171.663004126,1181.7316057929997,,,,,,,,,,,,,,,,,,,,,,,,,,,,,,,,,,,,,,,,,,,,,,,,,,,,,,,,,,,,,,,,,,,,040122,0,3,2,3,0,1,2,0,36,2022_Apr_01_1129,listening_fmri,3.2.4,60.158820971776684,
5,parcelated_audio/31/31_5.ogg,,,,,,,,,0,0,0,0,0,5,5,5,0,0,0,0,,,,,,,,,0,0,0,0,0,4,4,4,,,,,,,,,,,,,,,,,,,,,,,,,,,,,,,,,,,,,,,,,,,,,,,,1181.7319687539998,1192.8381582119996,,,,,,,,,,,,,,,,,,,,,,,,,,,,,,,,,,,,,,,,,,,,,,,,,,,,,,,,,,,,,,,,,,,,040122,0,3,2,3,0,1,2,0,36,2022_Apr_01_1129,listening_fmri,3.2.4,60.158820971776684,
5,parcelated_audio/31/31_6.ogg,,,,,,,,,0,0,0,0,0,5,5,5,0,0,0,0,,,,,,,,,0,0,0,0,0,5,5,5,,,,,,,,,,,,,,,,,,,,,,,,,,,,,,,,,,,,,,,,,,,,,,,,1192.838507817,1198.162950808,,,,,,,,,,,,,,,,,,,,,,,,,,,,,,,,,,,,,,,,,,,,,,,,,,,,,,,,,,,,,,,,,,,,040122,0,3,2,3,0,1,2,0,36,2022_Apr_01_1129,listening_fmri,3.2.4,60.158820971776684,
5,parcelated_audio/31/31_7.ogg,,,,,,,,,0,0,0,0,0,5,5,5,0,0,0,0,,,,,,,,,0,0,0,0,0,6,6,6,,,,,,,,,,,,,,,,,,,,,,,,,,,,,,,,,,,,,,,,,,,,,,,,1198.1640915889998,1203.0062226220002,,,,,,,,,,,,,,,,,,,,,,,,,,,,,,,,,,,,,,,,,,,,,,,,,,,,,,,,,,,,,,,,,,,,040122,0,3,2,3,0,1,2,0,36,2022_Apr_01_1129,listening_fmri,3.2.4,60.158820971776684,
5,parcelated_audio/31/31_8.ogg,,,,,,,,,0,0,0,0,0,5,5,5,0,0,0,0,,,,,,,,,0,0,0,0,0,7,7,7,,,,,,,,,,,,,,,,,,,,,,,,,,,,,,,,,,,,,,,,,,,,,,,,1203.007264493,1211.4462482960002,,,,,,,,,,,,,,,,,,,,,,,,,,,,,,,,,,,,,,,,,,,,,,,,,,,,,,,,,,,,,,,,,,,,040122,0,3,2,3,0,1,2,0,36,2022_Apr_01_1129,listening_fmri,3.2.4,60.158820971776684,
5,parcelated_audio/31/31_9.ogg,,,,,,,,,0,0,0,0,0,5,5,5,0,0,0,0,,,,,,,,,0,0,0,0,0,8,8,8,,,,,,,,,,,,,,,,,,,,,,,,,,,,,,,,,,,,,,,,,,,,,,,,1211.4466006420002,1216.507774397,,,,,,,,,,,,,,,,,,,,,,,,,,,,,,,,,,,,,,,,,,,,,,,,,,,,,,,,,,,,,,,,,,,,040122,0,3,2,3,0,1,2,0,36,2022_Apr_01_1129,listening_fmri,3.2.4,60.158820971776684,
5,parcelated_audio/31/31_10.ogg,,,,,,,,,0,0,0,0,0,5,5,5,0,0,0,0,,,,,,,,,0,0,0,0,0,9,9,9,,,,,,,,,,,,,,,,,,,,,,,,,,,,,,,,,,,,,,,,,,,,,,,,1216.5081238609996,1222.0302776590001,,,,,,,,,,,,,,,,,,,,,,,,,,,,,,,,,,,,,,,,,,,,,,,,,,,,,,,,,,,,,,,,,,,,040122,0,3,2,3,0,1,2,0,36,2022_Apr_01_1129,listening_fmri,3.2.4,60.158820971776684,
5,parcelated_audio/31/31_11.ogg,,,,,,,,,0,0,0,0,0,5,5,5,0,0,0,0,,,,,,,,,0,0,0,0,0,10,10,10,,,,,,,,,,,,,,,,,,,,,,,,,,,,,,,,,,,,,,,,,,,,,,,,1222.0306330839999,1232.2461359200001,,,,,,,,,,,,,,,,,,,,,,,,,,,,,,,,,,,,,,,,,,,,,,,,,,,,,,,,,,,,,,,,,,,,040122,0,3,2,3,0,1,2,0,36,2022_Apr_01_1129,listening_fmri,3.2.4,60.158820971776684,
5,parcelated_audio/31/31_12.ogg,,,,,,,,,0,0,0,0,0,5,5,5,0,0,0,0,,,,,,,,,0,0,0,0,0,11,11,11,,,,,,,,,,,,,,,,,,,,,,,,,,,,,,,,,,,,,,,,,,,,,,,,1232.2466394340004,1237.0249662339997,,,,,,,,,,,,,,,,,,,,,,,,,,,,,,,,,,,,,,,,,,,,,,,,,,,,,,,,,,,,,,,,,,,,040122,0,3,2,3,0,1,2,0,36,2022_Apr_01_1129,listening_fmri,3.2.4,60.158820971776684,
5,parcelated_audio/31/31_13.ogg,,,,,,,,,0,0,0,0,0,5,5,5,0,0,0,0,,,,,,,,,0,0,0,0,0,12,12,12,,,,,,,,,,,,,,,,,,,,,,,,,,,,,,,,,,,,,,,,,,,,,,,,1237.0254063460002,1244.3418885309998,,,,,,,,,,,,,,,,,,,,,,,,,,,,,,,,,,,,,,,,,,,,,,,,,,,,,,,,,,,,,,,,,,,,040122,0,3,2,3,0,1,2,0,36,2022_Apr_01_1129,listening_fmri,3.2.4,60.158820971776684,
5,parcelated_audio/31/31_14.ogg,,,,,,,,,0,0,0,0,0,5,5,5,0,0,0,0,,,,,,,,,0,0,0,0,0,13,13,13,,,,,,,,,,,,,,,,,,,,,,,,,,,,,,,,,,,,,,,,,,,,,,,,1244.342243267,1250.4729551900004,,,,,,,,,,,,,,,,,,,,,,,,,,,,,,,,,,,,,,,,,,,,,,,,,,,,,,,,,,,,,,,,,,,,040122,0,3,2,3,0,1,2,0,36,2022_Apr_01_1129,listening_fmri,3.2.4,60.158820971776684,
5,parcelated_audio/31/31_15.ogg,,,,,,,,,0,0,0,0,0,5,5,5,0,0,0,0,,,,,,,,,0,0,0,0,0,14,14,14,,,,,,,,,,,,,,,,,,,,,,,,,,,,,,,,,,,,,,,,,,,,,,,,1250.47328401,1257.2590246349996,,,,,,,,,,,,,,,,,,,,,,,,,,,,,,,,,,,,,,,,,,,,,,,,,,,,,,,,,,,,,,,,,,,,040122,0,3,2,3,0,1,2,0,36,2022_Apr_01_1129,listening_fmri,3.2.4,60.158820971776684,
5,parcelated_audio/31/31_16.ogg,,,,,,,,,0,0,0,0,0,5,5,5,0,0,0,0,,,,,,,,,0,0,0,0,0,15,15,15,,,,,,,,,,,,,,,,,,,,,,,,,,,,,,,,,,,,,,,,,,,,,,,,1257.2598115590004,1263.6799178300002,,,,,,,,,,,,,,,,,,,,,,,,,,,,,,,,,,,,,,,,,,,,,,,,,,,,,,,,,,,,,,,,,,,,040122,0,3,2,3,0,1,2,0,36,2022_Apr_01_1129,listening_fmri,3.2.4,60.158820971776684,
5,parcelated_audio/31/31_17.ogg,,,,,,,,,0,0,0,0,0,5,5,5,0,0,0,0,,,,,,,,,0,0,0,0,0,16,16,16,,,,,,,,,,,,,,,,,,,,,,,,,,,,,,,,,,,,,,,,,,,,,,,,1263.6802668900004,1267.1319863659996,,,,,,,,,,,,,,,,,,,,,,,,,,,,,,,,,,,,,,,,,,,,,,,,,,,,,,,,,,,,,,,,,,,,040122,0,3,2,3,0,1,2,0,36,2022_Apr_01_1129,listening_fmri,3.2.4,60.158820971776684,
5,parcelated_audio/31/31_18.ogg,,,,,,,,,0,0,0,0,0,5,5,5,0,0,0,0,,,,,,,,,0,0,0,0,0,17,17,17,,,,,,,,,,,,,,,,,,,,,,,,,,,,,,,,,,,,,,,,,,,,,,,,1267.1323492240003,1271.7537845769998,,,,,,,,,,,,,,,,,,,,,,,,,,,,,,,,,,,,,,,,,,,,,,,,,,,,,,,,,,,,,,,,,,,,040122,0,3,2,3,0,1,2,0,36,2022_Apr_01_1129,listening_fmri,3.2.4,60.158820971776684,
5,parcelated_audio/31/31_19.ogg,,,,,,,,,0,0,0,0,0,5,5,5,0,0,0,0,,,,,,,,,0,0,0,0,0,18,18,18,,,,,,,,,,,,,,,,,,,,,,,,,,,,,,,,,,,,,,,,,,,,,,,,1271.7542867799998,1279.9512690939996,,,,,,,,,,,,,,,,,,,,,,,,,,,,,,,,,,,,,,,,,,,,,,,,,,,,,,,,,,,,,,,,,,,,040122,0,3,2,3,0,1,2,0,36,2022_Apr_01_1129,listening_fmri,3.2.4,60.158820971776684,
5,parcelated_audio/31/31_20.ogg,,,,,,,,,0,0,0,0,0,5,5,5,0,0,0,0,,,,,,,,,0,0,0,0,0,19,19,19,,,,,,,,,,,,,,,,,,,,,,,,,,,,,,,,,,,,,,,,,,,,,,,,1279.9516170170004,1297.7847162290004,,,,,,,,,,,,,,,,,,,,,,,,,,,,,,,,,,,,,,,,,,,,,,,,,,,,,,,,,,,,,,,,,,,,040122,0,3,2,3,0,1,2,0,36,2022_Apr_01_1129,listening_fmri,3.2.4,60.158820971776684,
5,parcelated_audio/31/31_21.ogg,,,,,,,,,0,0,0,0,0,5,5,5,0,0,0,0,,,,,,,,,0,0,0,0,0,20,20,20,,,,,,,,,,,,,,,,,,,,,,,,,,,,,,,,,,,,,,,,,,,,,,,,1297.7850284210003,1308.030510139,,,,,,,,,,,,,,,,,,,,,,,,,,,,,,,,,,,,,,,,,,,,,,,,,,,,,,,,,,,,,,,,,,,,040122,0,3,2,3,0,1,2,0,36,2022_Apr_01_1129,listening_fmri,3.2.4,60.158820971776684,
5,parcelated_audio/31/31_22.ogg,,,,,,,,,0,0,0,0,0,5,5,5,0,0,0,0,,,,,,,,,0,0,0,0,0,21,21,21,,,,,,,,,,,,,,,,,,,,,,,,,,,,,,,,,,,,,,,,,,,,,,,,1308.0308665079997,1313.7580505520004,,,,,,,,,,,,,,,,,,,,,,,,,,,,,,,,,,,,,,,,,,,,,,,,,,,,,,,,,,,,,,,,,,,,040122,0,3,2,3,0,1,2,0,36,2022_Apr_01_1129,listening_fmri,3.2.4,60.158820971776684,
5,parcelated_audio/31/31_23.ogg,,,,,,,,,0,0,0,0,0,5,5,5,0,0,0,0,,,,,,,,,0,0,0,0,0,22,22,22,,,,,,,,,,,,,,,,,,,,,,,,,,,,,,,,,,,,,,,,,,,,,,,,1313.758403886,1318.3659097839995,,,,,,,,,,,,,,,,,,,,,,,,,,,,,,,,,,,,,,,,,,,,,,,,,,,,,,,,,,,,,,,,,,,,040122,0,3,2,3,0,1,2,0,36,2022_Apr_01_1129,listening_fmri,3.2.4,60.158820971776684,
5,parcelated_audio/31/31_24.ogg,,,,,,,,,0,0,0,0,0,5,5,5,0,0,0,0,,,,,,,,,0,0,0,0,0,23,23,23,,,,,,,,,,,,,,,,,,,,,,,,,,,,,,,,,,,,,,,,,,,,,,,,1318.3662581679996,1325.2411320899996,,,,,,,,,,,,,,,,,,,,,,,,,,,,,,,,,,,,,,,,,,,,,,,,,,,,,,,,,,,,,,,,,,,,040122,0,3,2,3,0,1,2,0,36,2022_Apr_01_1129,listening_fmri,3.2.4,60.158820971776684,
5,parcelated_audio/31/31_25.ogg,,,,,,,,,0,0,0,0,0,5,5,5,0,0,0,0,,,,,,,,,0,0,0,0,0,24,24,24,,,,,,,,,,,,,,,,,,,,,,,,,,,,,,,,,,,,,,,,,,,,,,,,1325.2414822039996,1337.2325782379999,,,,,,,,,,,,,,,,,,,,,,,,,,,,,,,,,,,,,,,,,,,,,,,,,,,,,,,,,,,,,,,,,,,,040122,0,3,2,3,0,1,2,0,36,2022_Apr_01_1129,listening_fmri,3.2.4,60.158820971776684,
5,parcelated_audio/31/31_26.ogg,,,,,,,,,0,0,0,0,0,5,5,5,0,0,0,0,,,,,,,,,0,0,0,0,0,25,25,25,,,,,,,,,,,,,,,,,,,,,,,,,,,,,,,,,,,,,,,,,,,,,,,,1337.2329217049996,1344.7550610459998,,,,,,,,,,,,,,,,,,,,,,,,,,,,,,,,,,,,,,,,,,,,,,,,,,,,,,,,,,,,,,,,,,,,040122,0,3,2,3,0,1,2,0,36,2022_Apr_01_1129,listening_fmri,3.2.4,60.158820971776684,
5,parcelated_audio/31/31_27.ogg,,,,,,,,,0,0,0,0,0,5,5,5,0,0,0,0,,,,,,,,,0,0,0,0,0,26,26,26,,,,,,,,,,,,,,,,,,,,,,,,,,,,,,,,,,,,,,,,,,,,,,,,1344.7555651280004,1349.1502465030003,,,,,,,,,,,,,,,,,,,,,,,,,,,,,,,,,,,,,,,,,,,,,,,,,,,,,,,,,,,,,,,,,,,,040122,0,3,2,3,0,1,2,0,36,2022_Apr_01_1129,listening_fmri,3.2.4,60.158820971776684,
5,parcelated_audio/31/31_28.ogg,,,,,,,,,0,0,0,0,0,5,5,5,0,0,0,0,,,,,,,,,0,0,0,0,0,27,27,27,,,,,,,,,,,,,,,,,,,,,,,,,,,,,,,,,,,,,,,,,,,,,,,,1349.1505004610003,1354.1670685490003,,,,,,,,,,,,,,,,,,,,,,,,,,,,,,,,,,,,,,,,,,,,,,,,,,,,,,,,,,,,,,,,,,,,040122,0,3,2,3,0,1,2,0,36,2022_Apr_01_1129,listening_fmri,3.2.4,60.158820971776684,
5,parcelated_audio/31/31_29.ogg,,,,,,,,,0,0,0,0,0,5,5,5,0,0,0,0,,,,,,,,,0,0,0,0,0,28,28,28,,,,,,,,,,,,,,,,,,,,,,,,,,,,,,,,,,,,,,,,,,,,,,,,1354.167319449,1358.5250424330002,,,,,,,,,,,,,,,,,,,,,,,,,,,,,,,,,,,,,,,,,,,,,,,,,,,,,,,,,,,,,,,,,,,,040122,0,3,2,3,0,1,2,0,36,2022_Apr_01_1129,listening_fmri,3.2.4,60.158820971776684,
5,parcelated_audio/31/31_30.ogg,,,,,,,,,0,0,0,0,0,5,5,5,0,0,0,0,,,,,,,,,0,0,0,0,0,29,29,29,,,,,,,,,,,,,,,,,,,,,,,,,,,,,,,,,,,,,,,,,,,,,,,,1358.5253937639995,1362.2949805160001,,,,,,,,,,,,,,,,,,,,,,,,,,,,,,,,,,,,,,,,,,,,,,,,,,,,,,,,,,,,,,,,,,,,040122,0,3,2,3,0,1,2,0,36,2022_Apr_01_1129,listening_fmri,3.2.4,60.158820971776684,
5,parcelated_audio/31/31_31.ogg,,,,,,,,,0,0,0,0,0,5,5,5,0,0,0,0,,,,,,,,,0,0,0,0,0,30,30,30,,,,,,,,,,,,,,,,,,,,,,,,,,,,,,,,,,,,,,,,,,,,,,,,1362.2952741020003,1368.2628742029997,,,,,,,,,,,,,,,,,,,,,,,,,,,,,,,,,,,,,,,,,,,,,,,,,,,,,,,,,,,,,,,,,,,,040122,0,3,2,3,0,1,2,0,36,2022_Apr_01_1129,listening_fmri,3.2.4,60.158820971776684,
5,parcelated_audio/31/31_32.ogg,,,,,,,,,0,0,0,0,0,5,5,5,0,0,0,0,,,,,,,,,0,0,0,0,0,31,31,31,,,,,,,,,,,,,,,,,,,,,,,,,,,,,,,,,,,,,,,,,,,,,,,,1368.2631663549996,1378.2278799009996,,,,,,,,,,,,,,,,,,,,,,,,,,,,,,,,,,,,,,,,,,,,,,,,,,,,,,,,,,,,,,,,,,,,040122,0,3,2,3,0,1,2,0,36,2022_Apr_01_1129,listening_fmri,3.2.4,60.158820971776684,
5,parcelated_audio/31/31_33.ogg,,,,,,,,,0,0,0,0,0,5,5,5,0,0,0,0,,,,,,,,,0,0,0,0,0,32,32,32,,,,,,,,,,,,,,,,,,,,,,,,,,,,,,,,,,,,,,,,,,,,,,,,1378.2283614929997,1386.6223672729998,,,,,,,,,,,,,,,,,,,,,,,,,,,,,,,,,,,,,,,,,,,,,,,,,,,,,,,,,,,,,,,,,,,,040122,0,3,2,3,0,1,2,0,36,2022_Apr_01_1129,listening_fmri,3.2.4,60.158820971776684,
5,parcelated_audio/31/31_34.ogg,,,,,,,,,0,0,0,0,0,5,5,5,0,0,0,0,,,,,,,,,0,0,0,0,0,33,33,33,,,,,,,,,,,,,,,,,,,,,,,,,,,,,,,,,,,,,,,,,,,,,,,,1386.6226925209999,1391.0032798079997,,,,,,,,,,,,,,,,,,,,,,,,,,,,,,,,,,,,,,,,,,,,,,,,,,,,,,,,,,,,,,,,,,,,040122,0,3,2,3,0,1,2,0,36,2022_Apr_01_1129,listening_fmri,3.2.4,60.158820971776684,
5,parcelated_audio/31/31_35.ogg,,,,,,,,,0,0,0,0,0,5,5,5,0,0,0,0,,,,,,,,,0,0,0,0,0,34,34,34,,,,,,,,,,,,,,,,,,,,,,,,,,,,,,,,,,,,,,,,,,,,,,,,1391.00359238,1396.8017630279996,,,,,,,,,,,,,,,,,,,,,,,,,,,,,,,,,,,,,,,,,,,,,,,,,,,,,,,,,,,,,,,,,,,,040122,0,3,2,3,0,1,2,0,36,2022_Apr_01_1129,listening_fmri,3.2.4,60.158820971776684,
5,parcelated_audio/31/31_36.ogg,,,,,,,,,0,0,0,0,0,5,5,5,0,0,0,0,,,,,,,,,0,0,0,0,0,35,35,35,,,,,,,,,,,,,,,,,,,,,,,,,,,,,,,,,,,,,,,,,,,,,,,,1396.8020112259996,1403.1021401639996,,,,,,,,,,,,,,,,,,,,,,,,,,,,,,,,,,,,,,,,,,,,,,,,,,,,,,,,,,,,,,,,,,,,040122,0,3,2,3,0,1,2,0,36,2022_Apr_01_1129,listening_fmri,3.2.4,60.158820971776684,
5,,,,,,,,,,0,0,0,0,0,5,5,5,0,0,0,0,,,,,,,,,0,0,0,0,,,,,,,,,,,,,,,,,,,,,,,,,,,,,,,,,,,,,,,,,,,,,,,,,,,,,,,,,,,,,,,,,,,,,,,,,,,,,,,,,,,,,,,,,,,,,,,,,,,,,,,,,,,,,,,,,,,,,,,,,040122,0,3,2,3,0,1,2,0,36,2022_Apr_01_1129,listening_fmri,3.2.4,60.158820971776684,
5,,,,,,,,,,0,0,0,0,0,5,5,5,0,0,0,0,,,,,,,,,,,,,,,,,,,,,,,,,,,,,,,,,,,,,,,,,,1403.1026252409997,1409.1017356329999,1537.3694283960003,None,,,,,,,,,,,,,,,,,,,,,1543.3705956599997,None,1543.3705956599997,None,,,,,,,,,,,,,,,,,,,,,,,,,,,,,,,,,,,,,,,,,,,,,,,,,,,,,,,,,,,,,,,,040122,0,3,2,3,0,1,2,0,36,2022_Apr_01_1129,listening_fmri,3.2.4,60.158820971776684,
5,,,,,,,,,,0,0,0,0,0,5,5,5,,,,,,,,,,,,,,,,,,,,,,,,,,,,,,,,,,,,,,,,,,,,,,,,,,,,,,,,,,,,,,,,,,,,,,,,,,,,,,,,,,,,,,,,,,,,,,,,,,,,,,,,,,,,,,,,,,,,,,,,,,,,,,,,,,,,,,,,,040122,0,3,2,3,0,1,2,0,36,2022_Apr_01_1129,listening_fmri,3.2.4,60.158820971776684,
6,,,,,,,,,,0,0,0,0,0,6,6,6,0,0,0,0,0,0,0,0,,,,,,,,,,,,,,,,,0,0,0,0,,,,,,,,,,,,,,,,,,,,,,1544.4025154890005,None,1544.4025154890005,None,1,0.884326690999842,1544.4025154890005,None,1544.4025154890005,None,,,,,,,,,,,,,,,1545.3045270789999,None,2,1.295456988999831,1545.3045270789999,None,1545.3045270789999,None,1546.6524734590002,None,1546.6524734590002,None,1546.6524734590002,None,2,0.8164029839999785,1546.6524734590002,None,1547.4868734580004,None,2,1.4300954880000063,1547.4868734580004,None,1547.4868734580004,None,1549.018474648,None,1549.018474648,None,1549.018474648,None,1549.018474648,None,1549.018474648,None,1549.018474648,None,1549.018474648,None,None,1549.018474648,None,,,,,,,,,,,,,,,,,,,,,040122,0,3,2,3,0,1,2,0,36,2022_Apr_01_1129,listening_fmri,3.2.4,60.158820971776684,
6,,,,,,,,,,0,0,0,0,0,6,6,6,0,0,0,0,0,0,0,0,,,,,,,,,,,,,,,,,,,,,,,,,,,,,,,,,,,,,,,,,,,,,,,,,,,,,,,,,,,,,,,,,,,,,,,,,,,,,,,,,,,,,,,,,,,,,,,,,,,,,,,,,,,,,1559.8680360440003,None,2,1.0738411279999127,1559.8680360440003,None,1559.8680360440003,None,1561.018918402,None,1561.018918402,None,1561.018918402,None,2,0.6300465599997551,1561.018918402,None,,,040122,0,3,2,3,0,1,2,0,36,2022_Apr_01_1129,listening_fmri,3.2.4,60.158820971776684,
6,parcelated_audio/24/24_1.ogg,,,,,,,,,0,0,0,0,0,6,6,6,0,0,0,0,,,,,,,,,0,0,0,0,0,0,0,0,,,,,,,,,,,,,,,,,,,,,,,,,,,,,,,,,,,,,,,,1561.671136305,None,2,0.8928546380002444,1561.671136305,None,1428.3256289879996,1431.3354416630004,1431.3433772009998,1441.7660337439997,,,,,,,,,,,,,,,,,,,,,,,,,,,,,,,,,,,,,,,,,,,,,,,,,,,,,,,,,,,,,,,,,,,,040122,0,3,2,3,0,1,2,0,36,2022_Apr_01_1129,listening_fmri,3.2.4,60.158820971776684,
6,parcelated_audio/24/24_2.ogg,,,,,,,,,0,0,0,0,0,6,6,6,0,0,0,0,,,,,,,,,0,0,0,0,0,1,1,1,,,,,,,,,,,,,,,,,,,,,,,,,,,,,,,,,,,,,,,,,,,,,,,,1441.766659816,1448.0859266430002,,,,,,,,,,,,,,,,,,,,,,,,,,,,,,,,,,,,,,,,,,,,,,,,,,,,,,,,,,,,,,,,,,,,040122,0,3,2,3,0,1,2,0,36,2022_Apr_01_1129,listening_fmri,3.2.4,60.158820971776684,
6,parcelated_audio/24/24_3.ogg,,,,,,,,,0,0,0,0,0,6,6,6,0,0,0,0,,,,,,,,,0,0,0,0,0,2,2,2,,,,,,,,,,,,,,,,,,,,,,,,,,,,,,,,,,,,,,,,,,,,,,,,1448.0864865649996,1459.6720886979997,,,,,,,,,,,,,,,,,,,,,,,,,,,,,,,,,,,,,,,,,,,,,,,,,,,,,,,,,,,,,,,,,,,,040122,0,3,2,3,0,1,2,0,36,2022_Apr_01_1129,listening_fmri,3.2.4,60.158820971776684,
6,parcelated_audio/24/24_4.ogg,,,,,,,,,0,0,0,0,0,6,6,6,0,0,0,0,,,,,,,,,0,0,0,0,0,3,3,3,,,,,,,,,,,,,,,,,,,,,,,,,,,,,,,,,,,,,,,,,,,,,,,,1459.6726030149998,1466.5688647559996,,,,,,,,,,,,,,,,,,,,,,,,,,,,,,,,,,,,,,,,,,,,,,,,,,,,,,,,,,,,,,,,,,,,040122,0,3,2,3,0,1,2,0,36,2022_Apr_01_1129,listening_fmri,3.2.4,60.158820971776684,
6,parcelated_audio/24/24_5.ogg,,,,,,,,,0,0,0,0,0,6,6,6,0,0,0,0,,,,,,,,,0,0,0,0,0,4,4,4,,,,,,,,,,,,,,,,,,,,,,,,,,,,,,,,,,,,,,,,,,,,,,,,1466.5692221650002,1471.539507731,,,,,,,,,,,,,,,,,,,,,,,,,,,,,,,,,,,,,,,,,,,,,,,,,,,,,,,,,,,,,,,,,,,,040122,0,3,2,3,0,1,2,0,36,2022_Apr_01_1129,listening_fmri,3.2.4,60.158820971776684,
6,parcelated_audio/24/24_6.ogg,,,,,,,,,0,0,0,0,0,6,6,6,0,0,0,0,,,,,,,,,0,0,0,0,0,5,5,5,,,,,,,,,,,,,,,,,,,,,,,,,,,,,,,,,,,,,,,,,,,,,,,,1471.54007125,1478.9918363129996,,,,,,,,,,,,,,,,,,,,,,,,,,,,,,,,,,,,,,,,,,,,,,,,,,,,,,,,,,,,,,,,,,,,040122,0,3,2,3,0,1,2,0,36,2022_Apr_01_1129,listening_fmri,3.2.4,60.158820971776684,
6,parcelated_audio/24/24_7.ogg,,,,,,,,,0,0,0,0,0,6,6,6,0,0,0,0,,,,,,,,,0,0,0,0,0,6,6,6,,,,,,,,,,,,,,,,,,,,,,,,,,,,,,,,,,,,,,,,,,,,,,,,1478.9922489280002,1483.3929358110004,,,,,,,,,,,,,,,,,,,,,,,,,,,,,,,,,,,,,,,,,,,,,,,,,,,,,,,,,,,,,,,,,,,,040122,0,3,2,3,0,1,2,0,36,2022_Apr_01_1129,listening_fmri,3.2.4,60.158820971776684,
6,parcelated_audio/24/24_8.ogg,,,,,,,,,0,0,0,0,0,6,6,6,0,0,0,0,,,,,,,,,0,0,0,0,0,7,7,7,,,,,,,,,,,,,,,,,,,,,,,,,,,,,,,,,,,,,,,,,,,,,,,,1483.3932517239996,1489.4525316120003,,,,,,,,,,,,,,,,,,,,,,,,,,,,,,,,,,,,,,,,,,,,,,,,,,,,,,,,,,,,,,,,,,,,040122,0,3,2,3,0,1,2,0,36,2022_Apr_01_1129,listening_fmri,3.2.4,60.158820971776684,
6,parcelated_audio/24/24_9.ogg,,,,,,,,,0,0,0,0,0,6,6,6,0,0,0,0,,,,,,,,,0,0,0,0,0,8,8,8,,,,,,,,,,,,,,,,,,,,,,,,,,,,,,,,,,,,,,,,,,,,,,,,1489.4529267619996,1493.7829527999997,,,,,,,,,,,,,,,,,,,,,,,,,,,,,,,,,,,,,,,,,,,,,,,,,,,,,,,,,,,,,,,,,,,,040122,0,3,2,3,0,1,2,0,36,2022_Apr_01_1129,listening_fmri,3.2.4,60.158820971776684,
6,parcelated_audio/24/24_10.ogg,,,,,,,,,0,0,0,0,0,6,6,6,0,0,0,0,,,,,,,,,0,0,0,0,0,9,9,9,,,,,,,,,,,,,,,,,,,,,,,,,,,,,,,,,,,,,,,,,,,,,,,,1493.783266252,1497.617791481,,,,,,,,,,,,,,,,,,,,,,,,,,,,,,,,,,,,,,,,,,,,,,,,,,,,,,,,,,,,,,,,,,,,040122,0,3,2,3,0,1,2,0,36,2022_Apr_01_1129,listening_fmri,3.2.4,60.158820971776684,
6,parcelated_audio/24/24_11.ogg,,,,,,,,,0,0,0,0,0,6,6,6,0,0,0,0,,,,,,,,,0,0,0,0,0,10,10,10,,,,,,,,,,,,,,,,,,,,,,,,,,,,,,,,,,,,,,,,,,,,,,,,1497.6181028759997,1507.7487549769999,,,,,,,,,,,,,,,,,,,,,,,,,,,,,,,,,,,,,,,,,,,,,,,,,,,,,,,,,,,,,,,,,,,,040122,0,3,2,3,0,1,2,0,36,2022_Apr_01_1129,listening_fmri,3.2.4,60.158820971776684,
6,parcelated_audio/24/24_12.ogg,,,,,,,,,0,0,0,0,0,6,6,6,0,0,0,0,,,,,,,,,0,0,0,0,0,11,11,11,,,,,,,,,,,,,,,,,,,,,,,,,,,,,,,,,,,,,,,,,,,,,,,,1507.749061954,1516.835533074,,,,,,,,,,,,,,,,,,,,,,,,,,,,,,,,,,,,,,,,,,,,,,,,,,,,,,,,,,,,,,,,,,,,040122,0,3,2,3,0,1,2,0,36,2022_Apr_01_1129,listening_fmri,3.2.4,60.158820971776684,
6,parcelated_audio/24/24_13.ogg,,,,,,,,,0,0,0,0,0,6,6,6,0,0,0,0,,,,,,,,,0,0,0,0,0,12,12,12,,,,,,,,,,,,,,,,,,,,,,,,,,,,,,,,,,,,,,,,,,,,,,,,1516.8358956759998,1520.8326477409996,,,,,,,,,,,,,,,,,,,,,,,,,,,,,,,,,,,,,,,,,,,,,,,,,,,,,,,,,,,,,,,,,,,,040122,0,3,2,3,0,1,2,0,36,2022_Apr_01_1129,listening_fmri,3.2.4,60.158820971776684,
6,parcelated_audio/24/24_14.ogg,,,,,,,,,0,0,0,0,0,6,6,6,0,0,0,0,,,,,,,,,0,0,0,0,0,13,13,13,,,,,,,,,,,,,,,,,,,,,,,,,,,,,,,,,,,,,,,,,,,,,,,,1520.8329673129997,1528.2142442609997,,,,,,,,,,,,,,,,,,,,,,,,,,,,,,,,,,,,,,,,,,,,,,,,,,,,,,,,,,,,,,,,,,,,040122,0,3,2,3,0,1,2,0,36,2022_Apr_01_1129,listening_fmri,3.2.4,60.158820971776684,
6,parcelated_audio/24/24_15.ogg,,,,,,,,,0,0,0,0,0,6,6,6,0,0,0,0,,,,,,,,,0,0,0,0,0,14,14,14,,,,,,,,,,,,,,,,,,,,,,,,,,,,,,,,,,,,,,,,,,,,,,,,1528.2146683369997,1534.7657081680004,,,,,,,,,,,,,,,,,,,,,,,,,,,,,,,,,,,,,,,,,,,,,,,,,,,,,,,,,,,,,,,,,,,,040122,0,3,2,3,0,1,2,0,36,2022_Apr_01_1129,listening_fmri,3.2.4,60.158820971776684,
6,parcelated_audio/24/24_16.ogg,,,,,,,,,0,0,0,0,0,6,6,6,0,0,0,0,,,,,,,,,0,0,0,0,0,15,15,15,,,,,,,,,,,,,,,,,,,,,,,,,,,,,,,,,,,,,,,,,,,,,,,,1534.7660463569996,1541.9367893490003,,,,,,,,,,,,,,,,,,,,,,,,,,,,,,,,,,,,,,,,,,,,,,,,,,,,,,,,,,,,,,,,,,,,040122,0,3,2,3,0,1,2,0,36,2022_Apr_01_1129,listening_fmri,3.2.4,60.158820971776684,
6,parcelated_audio/24/24_17.ogg,,,,,,,,,0,0,0,0,0,6,6,6,0,0,0,0,,,,,,,,,0,0,0,0,0,16,16,16,,,,,,,,,,,,,,,,,,,,,,,,,,,,,,,,,,,,,,,,,,,,,,,,1541.9371908839998,1547.9370999540001,,,,,,,,,,,,,,,,,,,,,,,,,,,,,,,,,,,,,,,,,,,,,,,,,,,,,,,,,,,,,,,,,,,,040122,0,3,2,3,0,1,2,0,36,2022_Apr_01_1129,listening_fmri,3.2.4,60.158820971776684,
6,parcelated_audio/24/24_18.ogg,,,,,,,,,0,0,0,0,0,6,6,6,0,0,0,0,,,,,,,,,0,0,0,0,0,17,17,17,,,,,,,,,,,,,,,,,,,,,,,,,,,,,,,,,,,,,,,,,,,,,,,,1547.9375502799999,1556.4090284420004,,,,,,,,,,,,,,,,,,,,,,,,,,,,,,,,,,,,,,,,,,,,,,,,,,,,,,,,,,,,,,,,,,,,040122,0,3,2,3,0,1,2,0,36,2022_Apr_01_1129,listening_fmri,3.2.4,60.158820971776684,
6,parcelated_audio/24/24_19.ogg,,,,,,,,,0,0,0,0,0,6,6,6,0,0,0,0,,,,,,,,,0,0,0,0,0,18,18,18,,,,,,,,,,,,,,,,,,,,,,,,,,,,,,,,,,,,,,,,,,,,,,,,1556.4094792230003,1566.064465715,,,,,,,,,,,,,,,,,,,,,,,,,,,,,,,,,,,,,,,,,,,,,,,,,,,,,,,,,,,,,,,,,,,,040122,0,3,2,3,0,1,2,0,36,2022_Apr_01_1129,listening_fmri,3.2.4,60.158820971776684,
6,parcelated_audio/24/24_20.ogg,,,,,,,,,0,0,0,0,0,6,6,6,0,0,0,0,,,,,,,,,0,0,0,0,0,19,19,19,,,,,,,,,,,,,,,,,,,,,,,,,,,,,,,,,,,,,,,,,,,,,,,,1566.064816785,1570.5396649460004,,,,,,,,,,,,,,,,,,,,,,,,,,,,,,,,,,,,,,,,,,,,,,,,,,,,,,,,,,,,,,,,,,,,040122,0,3,2,3,0,1,2,0,36,2022_Apr_01_1129,listening_fmri,3.2.4,60.158820971776684,
6,parcelated_audio/24/24_21.ogg,,,,,,,,,0,0,0,0,0,6,6,6,0,0,0,0,,,,,,,,,0,0,0,0,0,20,20,20,,,,,,,,,,,,,,,,,,,,,,,,,,,,,,,,,,,,,,,,,,,,,,,,1570.540140826,1578.5558490259996,,,,,,,,,,,,,,,,,,,,,,,,,,,,,,,,,,,,,,,,,,,,,,,,,,,,,,,,,,,,,,,,,,,,040122,0,3,2,3,0,1,2,0,36,2022_Apr_01_1129,listening_fmri,3.2.4,60.158820971776684,
6,parcelated_audio/24/24_22.ogg,,,,,,,,,0,0,0,0,0,6,6,6,0,0,0,0,,,,,,,,,0,0,0,0,0,21,21,21,,,,,,,,,,,,,,,,,,,,,,,,,,,,,,,,,,,,,,,,,,,,,,,,1578.5562044989997,1589.1476355660002,,,,,,,,,,,,,,,,,,,,,,,,,,,,,,,,,,,,,,,,,,,,,,,,,,,,,,,,,,,,,,,,,,,,040122,0,3,2,3,0,1,2,0,36,2022_Apr_01_1129,listening_fmri,3.2.4,60.158820971776684,
6,parcelated_audio/24/24_23.ogg,,,,,,,,,0,0,0,0,0,6,6,6,0,0,0,0,,,,,,,,,0,0,0,0,0,22,22,22,,,,,,,,,,,,,,,,,,,,,,,,,,,,,,,,,,,,,,,,,,,,,,,,1589.1479806419998,1599.3490201119998,,,,,,,,,,,,,,,,,,,,,,,,,,,,,,,,,,,,,,,,,,,,,,,,,,,,,,,,,,,,,,,,,,,,040122,0,3,2,3,0,1,2,0,36,2022_Apr_01_1129,listening_fmri,3.2.4,60.158820971776684,
6,parcelated_audio/24/24_24.ogg,,,,,,,,,0,0,0,0,0,6,6,6,0,0,0,0,,,,,,,,,0,0,0,0,0,23,23,23,,,,,,,,,,,,,,,,,,,,,,,,,,,,,,,,,,,,,,,,,,,,,,,,1599.349370079,1605.9211406230002,,,,,,,,,,,,,,,,,,,,,,,,,,,,,,,,,,,,,,,,,,,,,,,,,,,,,,,,,,,,,,,,,,,,040122,0,3,2,3,0,1,2,0,36,2022_Apr_01_1129,listening_fmri,3.2.4,60.158820971776684,
6,parcelated_audio/24/24_25.ogg,,,,,,,,,0,0,0,0,0,6,6,6,0,0,0,0,,,,,,,,,0,0,0,0,0,24,24,24,,,,,,,,,,,,,,,,,,,,,,,,,,,,,,,,,,,,,,,,,,,,,,,,1605.9215386520004,1614.647042137,,,,,,,,,,,,,,,,,,,,,,,,,,,,,,,,,,,,,,,,,,,,,,,,,,,,,,,,,,,,,,,,,,,,040122,0,3,2,3,0,1,2,0,36,2022_Apr_01_1129,listening_fmri,3.2.4,60.158820971776684,
6,parcelated_audio/24/24_26.ogg,,,,,,,,,0,0,0,0,0,6,6,6,0,0,0,0,,,,,,,,,0,0,0,0,0,25,25,25,,,,,,,,,,,,,,,,,,,,,,,,,,,,,,,,,,,,,,,,,,,,,,,,1614.6474012249996,1621.2137036959998,,,,,,,,,,,,,,,,,,,,,,,,,,,,,,,,,,,,,,,,,,,,,,,,,,,,,,,,,,,,,,,,,,,,040122,0,3,2,3,0,1,2,0,36,2022_Apr_01_1129,listening_fmri,3.2.4,60.158820971776684,
6,parcelated_audio/24/24_27.ogg,,,,,,,,,0,0,0,0,0,6,6,6,0,0,0,0,,,,,,,,,0,0,0,0,0,26,26,26,,,,,,,,,,,,,,,,,,,,,,,,,,,,,,,,,,,,,,,,,,,,,,,,1621.2140517960001,1627.3966721539996,,,,,,,,,,,,,,,,,,,,,,,,,,,,,,,,,,,,,,,,,,,,,,,,,,,,,,,,,,,,,,,,,,,,040122,0,3,2,3,0,1,2,0,36,2022_Apr_01_1129,listening_fmri,3.2.4,60.158820971776684,
6,parcelated_audio/24/24_28.ogg,,,,,,,,,0,0,0,0,0,6,6,6,0,0,0,0,,,,,,,,,0,0,0,0,0,27,27,27,,,,,,,,,,,,,,,,,,,,,,,,,,,,,,,,,,,,,,,,,,,,,,,,1627.3969632490002,1631.8931504999996,,,,,,,,,,,,,,,,,,,,,,,,,,,,,,,,,,,,,,,,,,,,,,,,,,,,,,,,,,,,,,,,,,,,040122,0,3,2,3,0,1,2,0,36,2022_Apr_01_1129,listening_fmri,3.2.4,60.158820971776684,
6,parcelated_audio/24/24_29.ogg,,,,,,,,,0,0,0,0,0,6,6,6,0,0,0,0,,,,,,,,,0,0,0,0,0,28,28,28,,,,,,,,,,,,,,,,,,,,,,,,,,,,,,,,,,,,,,,,,,,,,,,,1631.8937340480002,1638.1861932269999,,,,,,,,,,,,,,,,,,,,,,,,,,,,,,,,,,,,,,,,,,,,,,,,,,,,,,,,,,,,,,,,,,,,040122,0,3,2,3,0,1,2,0,36,2022_Apr_01_1129,listening_fmri,3.2.4,60.158820971776684,
6,parcelated_audio/24/24_30.ogg,,,,,,,,,0,0,0,0,0,6,6,6,0,0,0,0,,,,,,,,,0,0,0,0,0,29,29,29,,,,,,,,,,,,,,,,,,,,,,,,,,,,,,,,,,,,,,,,,,,,,,,,1638.1873817479996,1644.4411482540004,,,,,,,,,,,,,,,,,,,,,,,,,,,,,,,,,,,,,,,,,,,,,,,,,,,,,,,,,,,,,,,,,,,,040122,0,3,2,3,0,1,2,0,36,2022_Apr_01_1129,listening_fmri,3.2.4,60.158820971776684,
6,parcelated_audio/24/24_31.ogg,,,,,,,,,0,0,0,0,0,6,6,6,0,0,0,0,,,,,,,,,0,0,0,0,0,30,30,30,,,,,,,,,,,,,,,,,,,,,,,,,,,,,,,,,,,,,,,,,,,,,,,,1644.4416887459997,1651.1049537309996,,,,,,,,,,,,,,,,,,,,,,,,,,,,,,,,,,,,,,,,,,,,,,,,,,,,,,,,,,,,,,,,,,,,040122,0,3,2,3,0,1,2,0,36,2022_Apr_01_1129,listening_fmri,3.2.4,60.158820971776684,
6,parcelated_audio/24/24_32.ogg,,,,,,,,,0,0,0,0,0,6,6,6,0,0,0,0,,,,,,,,,0,0,0,0,0,31,31,31,,,,,,,,,,,,,,,,,,,,,,,,,,,,,,,,,,,,,,,,,,,,,,,,1651.10528801,1661.8915650109998,,,,,,,,,,,,,,,,,,,,,,,,,,,,,,,,,,,,,,,,,,,,,,,,,,,,,,,,,,,,,,,,,,,,040122,0,3,2,3,0,1,2,0,36,2022_Apr_01_1129,listening_fmri,3.2.4,60.158820971776684,
6,,,,,,,,,,0,0,0,0,0,6,6,6,0,0,0,0,,,,,,,,,0,0,0,0,,,,,,,,,,,,,,,,,,,,,,,,,,,,,,,,,,,,,,,,,,,,,,,,,,,,,,,,,,,,,,,,,,,,,,,,,,,,,,,,,,,,,,,,,,,,,,,,,,,,,,,,,,,,,,,,,,,,,,,,,040122,0,3,2,3,0,1,2,0,36,2022_Apr_01_1129,listening_fmri,3.2.4,60.158820971776684,
6,,,,,,,,,,0,0,0,0,0,6,6,6,0,0,0,0,,,,,,,,,,,,,,,,,,,,,,,,,,,,,,,,,,,,,,,,,,1661.8919617919996,1667.8803606549995,1796.1490720680004,None,,,,,,,,,,,,,,,,,,,,,1802.1491339479999,None,1802.1491339479999,None,,,,,,,,,,,,,,,,,,,,,,,,,,,,,,,,,,,,,,,,,,,,,,,,,,,,,,,,,,,,,,,,040122,0,3,2,3,0,1,2,0,36,2022_Apr_01_1129,listening_fmri,3.2.4,60.158820971776684,
6,,,,,,,,,,0,0,0,0,0,6,6,6,,,,,,,,,,,,,,,,,,,,,,,,,,,,,,,,,,,,,,,,,,,,,,,,,,,,,,,,,,,,,,,,,,,,,,,,,,,,,,,,,,,,,,,,,,,,,,,,,,,,,,,,,,,,,,,,,,,,,,,,,,,,,,,,,,,,,,,,,040122,0,3,2,3,0,1,2,0,36,2022_Apr_01_1129,listening_fmri,3.2.4,60.158820971776684,
7,,,,,,,,,,0,0,0,0,0,7,7,7,,,,,,,,,,,,,,,,,,,,,,,,,,,,,,,,,,,,,,,,,,,,,,,,,,,,,,,,,,,,,,,,,,,,,,,,,,,,,,,,,,,,,,,,,,,,,,,,,,,,,,,,,,,,,,,,,,,,,,,,,,,,,,,,,,,,,,,,,040122,0,3,2,3,0,1,2,0,36,2022_Apr_01_1129,listening_fmri,3.2.4,60.158820971776684,
,,,,,,,,,,0,0,0,0,,,,,,,,,,,,,,,,,,,,,,,,,,,,,,,,,,,,,,,,,,,,,,,,,,,,,,,,,,,,,,,,,,,,,,,,,,,,,,,,,,,,,,,,,,,,,,,,,,,,,,,,,,,,,,,,,,,,,,,,,,,,,,,,,,,,,,,,,,,,,040122,0,3,2,3,0,1,2,0,36,2022_Apr_01_1129,listening_fmri,3.2.4,60.158820971776684,
,,,,,,,,,,,,,,,,,,,,,,,,,,,,,,,,,,,,,,,,,,,,,,0,0,0,0,,,,,,,,,,,,,,,,,,,,,,,,,,,,,,,,,,,,,,,,,,,,,,,,,,,,,,,,,,,,,,,,,,,,,,,,,,,,,,,,,,,,,,,,,,,,,,,,,,,,,,,1803.1820569239999,None,040122,0,3,2,3,0,1,2,0,36,2022_Apr_01_1129,listening_fmri,3.2.4,60.158820971776684,
,,,,,,,,,,,,,,,,,,,,,,,,,,,,,,,,,,,,,,,,,,,,,,1,0,1,0,,,,,,,,,,,,,,,,,,,,,,,,,,,,,,,,,,,,,,,,,,,,,,,,,,,,,,,,,,,,,,,,,,,,,,,,,,,,,,,,,,,,,,,,,,,,,,,,,,,,,,,1803.6883403170004,1803.6883403170004,040122,0,3,2,3,0,1,2,0,36,2022_Apr_01_1129,listening_fmri,3.2.4,60.158820971776684,
,,,,,,,,,,,,,,,,,,,,,,,,,,,,,,,,,,,,,,,,,,,,,,2,0,2,0,,,,,,,,,,,,,,,,,,,,,,,,,,,,,,,,,,,,,,,,,,,,,,,,,,,,,,,,,,,,,,,,,,,,,,,,,,,,,,,,,,,,,,,,,,,,,,,,,,,,,,,1804.1881228829998,1804.1881228829998,040122,0,3,2,3,0,1,2,0,36,2022_Apr_01_1129,listening_fmri,3.2.4,60.158820971776684,
,,,,,,,,,,,,,,,,,,,,,,,,,,,,,,,,,,,,,,,,,,,,,,3,0,3,0,,,,,,,,,,,,,,,,,,,,,,,,,,,,,,,,,,,,,,,,,,,,,,,,,,,,,,,,,,,,,,,,,,,,,,,,,,,,,,,,,,,,,,,,,,,,,,,,,,,,,,,1804.681545904,1804.681545904,040122,0,3,2,3,0,1,2,0,36,2022_Apr_01_1129,listening_fmri,3.2.4,60.158820971776684,
,,,,,,,,,,,,,,,,,,,,,,,,,,,,,,,,,,,,,,,,,,,,,,4,0,4,0,,,,,,,,,,,,,,,,,,,,,,,,,,,,,,,,,,,,,,,,,,,,,,,,,,,,,,,,,,,,,,,,,,,,,,,,,,,,,,,,,,,,,,,,,,,,,,,,,,,,,,,1805.187654542,None,040122,0,3,2,3,0,1,2,0,36,2022_Apr_01_1129,listening_fmri,3.2.4,60.158820971776684,
