instructText,count,trials_5.thisRepN,trials_5.thisTrialN,trials_5.thisN,trials_5.thisIndex,trials_6.thisRepN,trials_6.thisTrialN,trials_6.thisN,trials_6.thisIndex,trials.thisRepN,trials.thisTrialN,trials.thisN,trials.thisIndex,trials_8.thisRepN,trials_8.thisTrialN,trials_8.thisN,trials_8.thisIndex,story_list_block1,action_list_block1,story_list_block2,action_list_block2,key_resp_3.keys,key_resp_3.rt,key_resp_3.started,key_resp_3.stopped,text_13.started,text_13.stopped,text_23.started,text_23.stopped,text_43.started,text_43.stopped,key_resp_11.keys,key_resp_11.rt,key_resp_11.started,key_resp_11.stopped,text_44.started,text_44.stopped,text_53.started,text_53.stopped,image_10.started,image_10.stopped,text_22.started,text_22.stopped,recall,question1_answer,order of question,text_14.started,text_14.stopped,text_15.started,text_15.stopped,image_6.started,image_6.stopped,polygon_3.started,polygon_3.stopped,bottom_line_3.started,bottom_line_3.stopped,right_line_3.started,right_line_3.stopped,left_line_3.started,left_line_3.stopped,question2_answer,text_16.started,text_16.stopped,text_17.started,text_17.stopped,image_7.started,image_7.stopped,polygon_4.started,polygon_4.stopped,bottom_line_4.started,bottom_line_4.stopped,right_line_4.started,right_line_4.stopped,left_line_4.started,left_line_4.stopped,question3_answer,text_18.started,text_18.stopped,text_19.started,text_19.stopped,image_8.started,image_8.stopped,polygon_5.started,polygon_5.stopped,bottom_line_5.started,bottom_line_5.stopped,right_line_5.started,right_line_5.stopped,left_line_5.started,left_line_5.stopped,question4_answer,text_20.started,text_20.stopped,text_21.started,text_21.stopped,image_9.started,image_9.stopped,polygon_6.started,polygon_6.stopped,bottom_line_6.started,bottom_line_6.stopped,right_line_6.started,right_line_6.stopped,left_line_6.started,left_line_6.stopped,question5_answer,text_25.started,text_25.stopped,text_26.started,text_26.stopped,image_11.started,image_11.stopped,polygon_7.started,polygon_7.stopped,bottom_line_7.started,bottom_line_7.stopped,right_line_7.started,right_line_7.stopped,left_line_7.started,left_line_7.stopped,question6_answer,text_27.started,text_27.stopped,text_28.started,text_28.stopped,image_12.started,image_12.stopped,polygon_8.started,polygon_8.stopped,bottom_line_8.started,bottom_line_8.stopped,right_line_8.started,right_line_8.stopped,left_line_8.started,left_line_8.stopped,question7_answer,text_29.started,text_29.stopped,text_30.started,text_30.stopped,image_13.started,image_13.stopped,polygon_9.started,polygon_9.stopped,bottom_line_9.started,bottom_line_9.stopped,right_line_9.started,right_line_9.stopped,left_line_9.started,left_line_9.stopped,question8_answer,text_31.started,text_31.stopped,text_32.started,text_32.stopped,image_14.started,image_14.stopped,polygon_10.started,polygon_10.stopped,bottom_line_10.started,bottom_line_10.stopped,right_line_10.started,right_line_10.stopped,left_line_10.started,left_line_10.stopped,text_36.started,text_36.stopped,participant,sA,sB,lA,lB,block_struct,random_seed,date,expName,psychopyVersion,frameRate,
"In the final part of the experiment, please answer 8 questions about each story.",,0,0,0,0,,,,,,,,,,,,,[32 43 23 41 14 12 21 34],[4 3 2 1 3 1 4 2],[22 33 13 11 42 31 24 44],[4 2 3 1 1 4 2 3],space,3.786061692999283,6.995989296001426,None,6.995989296001426,None,6.995989296001426,None,,,,,,,,,,,,,,,,,,,,,,,,,,,,,,,,,,,,,,,,,,,,,,,,,,,,,,,,,,,,,,,,,,,,,,,,,,,,,,,,,,,,,,,,,,,,,,,,,,,,,,,,,,,,,,,,,,,,,,,,,,,,,,,,,,,,,,,,,,,040122,0,3,2,3,0,36,2022_Apr_01_1243,short_answer,3.2.4,60.104008905721926,
"We did not tell you to think of all or some of these questions during the story, but please do your best to answer them.",,0,1,1,1,,,,,,,,,,,,,,,,,space,4.772170825001012,10.830817321000723,None,10.830817321000723,None,10.830817321000723,None,,,,,,,,,,,,,,,,,,,,,,,,,,,,,,,,,,,,,,,,,,,,,,,,,,,,,,,,,,,,,,,,,,,,,,,,,,,,,,,,,,,,,,,,,,,,,,,,,,,,,,,,,,,,,,,,,,,,,,,,,,,,,,,,,,,,,,,,,,,040122,0,3,2,3,0,36,2022_Apr_01_1243,short_answer,3.2.4,60.104008905721926,
"Answer as much as you remember, and be specific and concrete in your answers. It is best to try to be as faithful as possible to what the story actually said.
",,0,2,2,2,,,,,,,,,,,,,,,,,space,7.68335095600014,15.64640356900054,None,15.64640356900054,None,15.64640356900054,None,,,,,,,,,,,,,,,,,,,,,,,,,,,,,,,,,,,,,,,,,,,,,,,,,,,,,,,,,,,,,,,,,,,,,,,,,,,,,,,,,,,,,,,,,,,,,,,,,,,,,,,,,,,,,,,,,,,,,,,,,,,,,,,,,,,,,,,,,,,040122,0,3,2,3,0,36,2022_Apr_01_1243,short_answer,3.2.4,60.104008905721926,
"When you have finished typing your answer, hit ‘return’ to submit your answer and move onto the next question. ",,0,3,3,3,,,,,,,,,,,,,,,,,space,6.298282132998793,23.363902439999947,None,23.363902439999947,None,23.363902439999947,None,,,,,,,,,,,,,,,,,,,,,,,,,,,,,,,,,,,,,,,,,,,,,,,,,,,,,,,,,,,,,,,,,,,,,,,,,,,,,,,,,,,,,,,,,,,,,,,,,,,,,,,,,,,,,,,,,,,,,,,,,,,,,,,,,,,,,,,,,,,040122,0,3,2,3,0,36,2022_Apr_01_1243,short_answer,3.2.4,60.104008905721926,
,0,,,,,0,0,0,0,0,0,0,0,,,,,,,,,,,,,,,,,29.697049287000482,None,space,27.8470042200006,29.697049287000482,None,29.697049287000482,None,29.697049287000482,None,57.630921016001594,None,57.630921016001594,None,"Handshake, perhaps",I think around an hour because i remember one of the men saying that they should begin discussing business right away as they don't have a lot of time.,"[2, 1]",60.66385365300084,None,60.66385365300084,None,60.66385365300084,None,60.66385365300084,None,60.66385365300084,None,60.66385365300084,None,60.66385365300084,None,,143.94618965600057,None,143.94618965600057,None,143.94618965600057,None,143.94618965600057,None,143.94618965600057,None,143.94618965600057,None,143.94618965600057,None,,190.41214047799986,None,190.41214047799986,None,190.41214047799986,None,190.41214047799986,None,190.41214047799986,None,190.41214047799986,None,190.41214047799986,None,"Jeff sits in 7a, business class",195.07864819800125,None,195.07864819800125,None,195.07864819800125,None,195.07864819800125,None,195.07864819800125,None,195.07864819800125,None,195.07864819800125,None,Jeff is a wine salesman for an east coast winery. william is a wine buyer for corporate clients,213.29520709200006,None,213.29520709200006,None,213.29520709200006,None,213.29520709200006,None,213.29520709200006,None,213.29520709200006,None,213.29520709200006,None,William asks jeff to send him samples at a cheaper cost of $800,238.79440343600072,None,238.79440343600072,None,238.79440343600072,None,238.79440343600072,None,238.79440343600072,None,238.79440343600072,None,238.79440343600072,None,Yankee vinyards,262.01058661800016,None,262.01058661800016,None,262.01058661800016,None,262.01058661800016,None,262.01058661800016,None,262.01058661800016,None,262.01058661800016,None,"Handshake, perhaps",270.6280078360014,None,270.6280078360014,None,270.6280078360014,None,270.6280078360014,None,270.6280078360014,None,270.6280078360014,None,270.6280078360014,None,,,040122,0,3,2,3,0,36,2022_Apr_01_1243,short_answer,3.2.4,60.104008905721926,
,0,,,,,0,0,0,0,,,,,,,,,,,,,,,,,,,,,,,,,,,,,,,,,,,,,,,,,,,,,,,,,,,,,,,,,,,,,,,,,,,,,,,,,,,,,,,,,,,,,,,,,,,,,,,,,,,,,,,,,,,,,,,,,,,,,,,,,,,,,,,,,,,,,,,,,,,,,,,,,,,,,,,,,,,,,,,040122,0,3,2,3,0,36,2022_Apr_01_1243,short_answer,3.2.4,60.104008905721926,
,1,,,,,0,1,1,1,,,,,,,,,,,,,,,,,,,,,,,,,,,,,,,,,,,,,,,,,,,,,,,,,,,,,,,,,,,,,,,,,,,,,,,,,,,,,,,,,,,,,,,,,,,,,,,,,,,,,,,,,,,,,,,,,,,,,,,,,,,,,,,,,,,,,,,,,,,,,,,,,,,,,,,,,,,,,,,040122,0,3,2,3,0,36,2022_Apr_01_1243,short_answer,3.2.4,60.104008905721926,
,2,,,,,0,2,2,2,0,0,0,0,,,,,,,,,,,,,,,,,283.91040195200003,None,space,2.417010864999611,283.91040195200003,None,283.91040195200003,None,283.91040195200003,None,286.3772206550002,None,286.3772206550002,None,Her mother,"It's almost thanksgiving, so there are appropriate decorations throughout the store","[2, 1]",287.5780404420002,None,287.5780404420002,None,287.5780404420002,None,287.5780404420002,None,287.5780404420002,None,287.5780404420002,None,287.5780404420002,None,"They go to the canned food section and pick out pumpkin puree, among other things",314.877372889001,None,314.877372889001,None,314.877372889001,None,314.877372889001,None,314.877372889001,None,314.877372889001,None,314.877372889001,None,"There are 5 checkout lanes open, and the clients step into lane 3",332.0443449989998,None,332.0443449989998,None,332.0443449989998,None,332.0443449989998,None,332.0443449989998,None,332.0443449989998,None,332.0443449989998,None,"The groceries come out to $14, and alex pays with cash",342.9440990050007,None,342.9440990050007,None,342.9440990050007,None,342.9440990050007,None,342.9440990050007,None,342.9440990050007,None,342.9440990050007,None,22 months,353.6266395830007,None,353.6266395830007,None,353.6266395830007,None,353.6266395830007,None,353.6266395830007,None,353.6266395830007,None,353.6266395830007,None,2 white diamonds,358.7105183170006,None,358.7105183170006,None,358.7105183170006,None,358.7105183170006,None,358.7105183170006,None,358.7105183170006,None,358.7105183170006,None,,376.37604159400144,None,376.37604159400144,None,376.37604159400144,None,376.37604159400144,None,376.37604159400144,None,376.37604159400144,None,376.37604159400144,None,Her mother,381.2101654550006,None,381.2101654550006,None,381.2101654550006,None,381.2101654550006,None,381.2101654550006,None,381.2101654550006,None,381.2101654550006,None,,,040122,0,3,2,3,0,36,2022_Apr_01_1243,short_answer,3.2.4,60.104008905721926,
,2,,,,,0,2,2,2,,,,,,,,,,,,,,,,,,,,,,,,,,,,,,,,,,,,,,,,,,,,,,,,,,,,,,,,,,,,,,,,,,,,,,,,,,,,,,,,,,,,,,,,,,,,,,,,,,,,,,,,,,,,,,,,,,,,,,,,,,,,,,,,,,,,,,,,,,,,,,,,,,,,,,,,,,,,,,,040122,0,3,2,3,0,36,2022_Apr_01_1243,short_answer,3.2.4,60.104008905721926,
,3,,,,,0,3,3,3,0,0,0,0,,,,,,,,,,,,,,,,,388.7099213350011,None,space,1.0577854540006228,388.7099213350011,None,388.7099213350011,None,388.7099213350011,None,389.8094969600006,None,389.8094969600006,None,3pm,,"[2, 1]",390.7772665450011,None,390.7772665450011,None,390.7772665450011,None,390.7772665450011,None,390.7772665450011,None,390.7772665450011,None,390.7772665450011,None,Laminated paper,394.4597220220003,None,394.4597220220003,None,394.4597220220003,None,394.4597220220003,None,394.4597220220003,None,394.4597220220003,None,394.4597220220003,None,"James gets a tuna roll and a vegetable roll, and teresa orders a salmon roll and a japanese beer",401.29337720700096,None,401.29337720700096,None,401.29337720700096,None,401.29337720700096,None,401.29337720700096,None,401.29337720700096,None,401.29337720700096,None,"They both like their food, as the fish was very fresh",419.7253714920007,None,419.7253714920007,None,419.7253714920007,None,419.7253714920007,None,419.7253714920007,None,419.7253714920007,None,419.7253714920007,None,Teresa was preoccupied with her phone when she ran into the door,429.95940470200003,None,429.95940470200003,None,429.95940470200003,None,429.95940470200003,None,429.95940470200003,None,429.95940470200003,None,429.95940470200003,None,Is your forehead alright,455.0762100890006,None,455.0762100890006,None,455.0762100890006,None,455.0762100890006,None,455.0762100890006,None,455.0762100890006,None,455.0762100890006,None,James will pick teresa up later that day to take her to a concert for an egyptian musician,463.7253118280005,None,463.7253118280005,None,463.7253118280005,None,463.7253118280005,None,463.7253118280005,None,463.7253118280005,None,463.7253118280005,None,3pm,487.70898934900106,None,487.70898934900106,None,487.70898934900106,None,487.70898934900106,None,487.70898934900106,None,487.70898934900106,None,487.70898934900106,None,,,040122,0,3,2,3,0,36,2022_Apr_01_1243,short_answer,3.2.4,60.104008905721926,
,3,,,,,0,3,3,3,,,,,,,,,,,,,,,,,,,,,,,,,,,,,,,,,,,,,,,,,,,,,,,,,,,,,,,,,,,,,,,,,,,,,,,,,,,,,,,,,,,,,,,,,,,,,,,,,,,,,,,,,,,,,,,,,,,,,,,,,,,,,,,,,,,,,,,,,,,,,,,,,,,,,,,,,,,,,,,040122,0,3,2,3,0,36,2022_Apr_01_1243,short_answer,3.2.4,60.104008905721926,
,4,,,,,0,4,4,4,,,,,,,,,,,,,,,,,,,,,,,,,,,,,,,,,,,,,,,,,,,,,,,,,,,,,,,,,,,,,,,,,,,,,,,,,,,,,,,,,,,,,,,,,,,,,,,,,,,,,,,,,,,,,,,,,,,,,,,,,,,,,,,,,,,,,,,,,,,,,,,,,,,,,,,,,,,,,,,040122,0,3,2,3,0,36,2022_Apr_01_1243,short_answer,3.2.4,60.104008905721926,
,5,,,,,0,5,5,5,0,0,0,0,,,,,,,,,,,,,,,,,490.10787468000126,None,space,0.7264528079995216,490.10787468000126,None,490.10787468000126,None,490.10787468000126,None,490.8753111670012,None,490.8753111670012,None,Jessie sits in section 33 and calvin sits in section 36,5 weeks,"[1, 2]",492.6594459670014,None,492.6594459670014,None,492.6594459670014,None,492.6594459670014,None,492.6594459670014,None,492.6594459670014,None,492.6594459670014,None,Their personalities are incompatible,500.7575807510002,None,500.7575807510002,None,500.7575807510002,None,500.7575807510002,None,500.7575807510002,None,500.7575807510002,None,500.7575807510002,None,"Calvin does not want to break up, as he is hurt by jessie's words, but he's fine with parting ways if jessie finds their personalities incompatible",509.9921274980006,None,509.9921274980006,None,509.9921274980006,None,509.9921274980006,None,509.9921274980006,None,509.9921274980006,None,509.9921274980006,None,Jessie wants her philosophy books back,588.9572933640011,None,588.9572933640011,None,588.9572933640011,None,588.9572933640011,None,588.9572933640011,None,588.9572933640011,None,588.9572933640011,None,Not a lot of time; they're late,595.1407934730014,None,595.1407934730014,None,595.1407934730014,None,595.1407934730014,None,595.1407934730014,None,595.1407934730014,None,595.1407934730014,None,,604.5739039850014,None,604.5739039850014,None,604.5739039850014,None,604.5739039850014,None,604.5739039850014,None,604.5739039850014,None,604.5739039850014,None,,606.623302719001,None,606.623302719001,None,606.623302719001,None,606.623302719001,None,606.623302719001,None,606.623302719001,None,606.623302719001,None,Jessie sits in section 33 and calvin sits in section 36,608.7572608010014,None,608.7572608010014,None,608.7572608010014,None,608.7572608010014,None,608.7572608010014,None,608.7572608010014,None,608.7572608010014,None,,,040122,0,3,2,3,0,36,2022_Apr_01_1243,short_answer,3.2.4,60.104008905721926,
,5,,,,,0,5,5,5,,,,,,,,,,,,,,,,,,,,,,,,,,,,,,,,,,,,,,,,,,,,,,,,,,,,,,,,,,,,,,,,,,,,,,,,,,,,,,,,,,,,,,,,,,,,,,,,,,,,,,,,,,,,,,,,,,,,,,,,,,,,,,,,,,,,,,,,,,,,,,,,,,,,,,,,,,,,,,,040122,0,3,2,3,0,36,2022_Apr_01_1243,short_answer,3.2.4,60.104008905721926,
,6,,,,,0,6,6,6,0,0,0,0,,,,,,,,,,,,,,,,,621.8394123040016,None,space,0.533544879001056,621.8394123040016,None,621.8394123040016,None,621.8394123040016,None,622.4066477830002,None,622.4066477830002,None,The oysters are particularly good,5 years,"[1, 2]",623.1737131310001,None,623.1737131310001,None,623.1737131310001,None,623.1737131310001,None,623.1737131310001,None,623.1737131310001,None,623.1737131310001,None,2 pink diamonds,627.006516925001,None,627.006516925001,None,627.006516925001,None,627.006516925001,None,627.006516925001,None,627.006516925001,None,627.006516925001,None,,634.0235875070011,None,634.0235875070011,None,634.0235875070011,None,634.0235875070011,None,634.0235875070011,None,634.0235875070011,None,634.0235875070011,None,,635.9739460230012,None,635.9739460230012,None,635.9739460230012,None,635.9739460230012,None,635.9739460230012,None,635.9739460230012,None,635.9739460230012,None,,649.9733279660013,None,649.9733279660013,None,649.9733279660013,None,649.9733279660013,None,649.9733279660013,None,649.9733279660013,None,649.9733279660013,None,Seafood,652.0397511170013,None,652.0397511170013,None,652.0397511170013,None,652.0397511170013,None,652.0397511170013,None,652.0397511170013,None,652.0397511170013,None,Senna gets the oysters with garlic and alvira orders the scallops with apples,655.9900394169999,None,655.9900394169999,None,655.9900394169999,None,655.9900394169999,None,655.9900394169999,None,655.9900394169999,None,655.9900394169999,None,The oysters are particularly good,680.0900552860003,None,680.0900552860003,None,680.0900552860003,None,680.0900552860003,None,680.0900552860003,None,680.0900552860003,None,680.0900552860003,None,,,040122,0,3,2,3,0,36,2022_Apr_01_1243,short_answer,3.2.4,60.104008905721926,
,6,,,,,0,6,6,6,,,,,,,,,,,,,,,,,,,,,,,,,,,,,,,,,,,,,,,,,,,,,,,,,,,,,,,,,,,,,,,,,,,,,,,,,,,,,,,,,,,,,,,,,,,,,,,,,,,,,,,,,,,,,,,,,,,,,,,,,,,,,,,,,,,,,,,,,,,,,,,,,,,,,,,,,,,,,,,040122,0,3,2,3,0,36,2022_Apr_01_1243,short_answer,3.2.4,60.104008905721926,
,7,,,,,0,7,7,7,0,0,0,0,,,,,,,,,,,,,,,,,686.1056116380005,None,space,0.5491653119988769,686.1056116380005,None,686.1056116380005,None,686.1056116380005,None,686.6896808590009,None,686.6896808590009,None,Hug,,"[2, 1]",687.239461516001,None,687.239461516001,None,687.239461516001,None,687.239461516001,None,687.239461516001,None,687.239461516001,None,687.239461516001,None,"Archaelogy lecture, about augustus and his influence on architecture",690.5565575640012,None,690.5565575640012,None,690.5565575640012,None,690.5565575640012,None,690.5565575640012,None,690.5565575640012,None,690.5565575640012,None,Augustus was venerated for being a good ruler,706.4061709770012,None,706.4061709770012,None,706.4061709770012,None,706.4061709770012,None,706.4061709770012,None,706.4061709770012,None,706.4061709770012,None,Midterm essays are due on thursday,716.4386207930002,None,716.4386207930002,None,716.4386207930002,None,716.4386207930002,None,716.4386207930002,None,716.4386207930002,None,716.4386207930002,None,"Charlie is a fund manager at his student investment club, and alma is the founder and ceo of her web development business",733.2552247210006,None,733.2552247210006,None,733.2552247210006,None,733.2552247210006,None,733.2552247210006,None,733.2552247210006,None,733.2552247210006,None,"$28,000",759.5218645690002,None,759.5218645690002,None,759.5218645690002,None,759.5218645690002,None,759.5218645690002,None,759.5218645690002,None,759.5218645690002,None,Orange fund,764.4724507120009,None,764.4724507120009,None,764.4724507120009,None,764.4724507120009,None,764.4724507120009,None,764.4724507120009,None,764.4724507120009,None,Hug,769.5214040800001,None,769.5214040800001,None,769.5214040800001,None,769.5214040800001,None,769.5214040800001,None,769.5214040800001,None,769.5214040800001,None,,,040122,0,3,2,3,0,36,2022_Apr_01_1243,short_answer,3.2.4,60.104008905721926,
,7,,,,,0,7,7,7,,,,,,,,,,,,,,,,,,,,,,,,,,,,,,,,,,,,,,,,,,,,,,,,,,,,,,,,,,,,,,,,,,,,,,,,,,,,,,,,,,,,,,,,,,,,,,,,,,,,,,,,,,,,,,,,,,,,,,,,,,,,,,,,,,,,,,,,,,,,,,,,,,,,,,,,,,,,,,,040122,0,3,2,3,0,36,2022_Apr_01_1243,short_answer,3.2.4,60.104008905721926,
,8,,,,,0,8,8,8,0,0,0,0,,,,,,,,,,,,,,,,,776.7052231790003,None,space,0.6035016629994061,776.7052231790003,None,776.7052231790003,None,776.7052231790003,None,777.3546826260008,None,777.3546826260008,None,,11 months,"[1, 2]",778.3551487280001,None,778.3551487280001,None,778.3551487280001,None,778.3551487280001,None,778.3551487280001,None,778.3551487280001,None,778.3551487280001,None,,781.4055708650012,None,781.4055708650012,None,781.4055708650012,None,781.4055708650012,None,781.4055708650012,None,781.4055708650012,None,781.4055708650012,None,Velvet box,783.6048672659999,None,783.6048672659999,None,783.6048672659999,None,783.6048672659999,None,783.6048672659999,None,783.6048672659999,None,783.6048672659999,None,Her best friend,787.5558034720016,None,787.5558034720016,None,787.5558034720016,None,787.5558034720016,None,787.5558034720016,None,787.5558034720016,None,787.5558034720016,None,,792.2388076980005,None,792.2388076980005,None,792.2388076980005,None,792.2388076980005,None,792.2388076980005,None,792.2388076980005,None,792.2388076980005,None,Sven forgot to take the ring out of his pocket,805.3536909459999,None,805.3536909459999,None,805.3536909459999,None,805.3536909459999,None,805.3536909459999,None,805.3536909459999,None,805.3536909459999,None,,820.9706827959999,None,820.9706827959999,None,820.9706827959999,None,820.9706827959999,None,820.9706827959999,None,820.9706827959999,None,820.9706827959999,None,,822.4887915800009,None,822.4887915800009,None,822.4887915800009,None,822.4887915800009,None,822.4887915800009,None,822.4887915800009,None,822.4887915800009,None,,,040122,0,3,2,3,0,36,2022_Apr_01_1243,short_answer,3.2.4,60.104008905721926,
,8,,,,,0,8,8,8,,,,,,,,,,,,,,,,,,,,,,,,,,,,,,,,,,,,,,,,,,,,,,,,,,,,,,,,,,,,,,,,,,,,,,,,,,,,,,,,,,,,,,,,,,,,,,,,,,,,,,,,,,,,,,,,,,,,,,,,,,,,,,,,,,,,,,,,,,,,,,,,,,,,,,,,,,,,,,,040122,0,3,2,3,0,36,2022_Apr_01_1243,short_answer,3.2.4,60.104008905721926,
,9,,,,,0,9,9,9,0,0,0,0,,,,,,,,,,,,,,,,,824.754855104,None,space,0.6577613230001589,824.754855104,None,824.754855104,None,824.754855104,None,825.4544495770006,None,825.4544495770006,None,,"Ms bianchi is a sales rep for an italian cheese company, and ms morrison is a manager at a grocery store","[1, 2]",826.421727289,None,826.421727289,None,826.421727289,None,826.421727289,None,826.421727289,None,826.421727289,None,826.421727289,None,,849.6045842420008,None,849.6045842420008,None,849.6045842420008,None,849.6045842420008,None,849.6045842420008,None,849.6045842420008,None,849.6045842420008,None,,851.4375288020001,None,851.4375288020001,None,851.4375288020001,None,851.4375288020001,None,851.4375288020001,None,851.4375288020001,None,851.4375288020001,None,,854.3205566450015,None,854.3205566450015,None,854.3205566450015,None,854.3205566450015,None,854.3205566450015,None,854.3205566450015,None,854.3205566450015,None,Halloween decorations,858.1046272849999,None,858.1046272849999,None,858.1046272849999,None,858.1046272849999,None,858.1046272849999,None,858.1046272849999,None,858.1046272849999,None,,863.2211627010001,None,863.2211627010001,None,863.2211627010001,None,863.2211627010001,None,863.2211627010001,None,863.2211627010001,None,863.2211627010001,None,,864.7374374259998,None,864.7374374259998,None,864.7374374259998,None,864.7374374259998,None,864.7374374259998,None,864.7374374259998,None,864.7374374259998,None,,866.6374772590007,None,866.6374772590007,None,866.6374772590007,None,866.6374772590007,None,866.6374772590007,None,866.6374772590007,None,866.6374772590007,None,,,040122,0,3,2,3,0,36,2022_Apr_01_1243,short_answer,3.2.4,60.104008905721926,
,9,,,,,0,9,9,9,,,,,,,,,,,,,,,,,,,,,,,,,,,,,,,,,,,,,,,,,,,,,,,,,,,,,,,,,,,,,,,,,,,,,,,,,,,,,,,,,,,,,,,,,,,,,,,,,,,,,,,,,,,,,,,,,,,,,,,,,,,,,,,,,,,,,,,,,,,,,,,,,,,,,,,,,,,,,,,040122,0,3,2,3,0,36,2022_Apr_01_1243,short_answer,3.2.4,60.104008905721926,
,10,,,,,0,10,10,10,,,,,,,,,,,,,,,,,,,,,,,,,,,,,,,,,,,,,,,,,,,,,,,,,,,,,,,,,,,,,,,,,,,,,,,,,,,,,,,,,,,,,,,,,,,,,,,,,,,,,,,,,,,,,,,,,,,,,,,,,,,,,,,,,,,,,,,,,,,,,,,,,,,,,,,,,,,,,,,040122,0,3,2,3,0,36,2022_Apr_01_1243,short_answer,3.2.4,60.104008905721926,
,11,,,,,0,11,11,11,0,0,0,0,,,,,,,,,,,,,,,,,868.2197581830005,None,space,1.0692578750004031,868.2197581830005,None,868.2197581830005,None,868.2197581830005,None,869.3359004570011,None,869.3359004570011,None,Sadie wants her beatles poster and something else back,,"[2, 1]",870.1544031310004,None,870.1544031310004,None,870.1544031310004,None,870.1544031310004,None,870.1544031310004,None,870.1544031310004,None,870.1544031310004,None,Are these the laminated ones,874.1370706859998,None,874.1370706859998,None,874.1370706859998,None,874.1370706859998,None,874.1370706859998,None,874.1370706859998,None,874.1370706859998,None,"Thomas gets the burger, sadie gets the reuben",881.1873000860014,None,881.1873000860014,None,881.1873000860014,None,881.1873000860014,None,881.1873000860014,None,881.1873000860014,None,881.1873000860014,None,Thomas finds the burger dry,892.3203968170001,None,892.3203968170001,None,892.3203968170001,None,892.3203968170001,None,892.3203968170001,None,892.3203968170001,None,892.3203968170001,None,,897.538071283001,None,897.538071283001,None,897.538071283001,None,897.538071283001,None,897.538071283001,None,897.538071283001,None,897.538071283001,None,He wants to explore alternative career paths,900.0036989199998,None,900.0036989199998,None,900.0036989199998,None,900.0036989199998,None,900.0036989199998,None,900.0036989199998,None,900.0036989199998,None,"No, sadie asks thomas the reconsider if this is what he truly wants",910.454499548001,None,910.454499548001,None,910.454499548001,None,910.454499548001,None,910.454499548001,None,910.454499548001,None,910.454499548001,None,Sadie wants her beatles poster and something else back,925.8205063500009,None,925.8205063500009,None,925.8205063500009,None,925.8205063500009,None,925.8205063500009,None,925.8205063500009,None,925.8205063500009,None,,,040122,0,3,2,3,0,36,2022_Apr_01_1243,short_answer,3.2.4,60.104008905721926,
,11,,,,,0,11,11,11,,,,,,,,,,,,,,,,,,,,,,,,,,,,,,,,,,,,,,,,,,,,,,,,,,,,,,,,,,,,,,,,,,,,,,,,,,,,,,,,,,,,,,,,,,,,,,,,,,,,,,,,,,,,,,,,,,,,,,,,,,,,,,,,,,,,,,,,,,,,,,,,,,,,,,,,,,,,,,,040122,0,3,2,3,0,36,2022_Apr_01_1243,short_answer,3.2.4,60.104008905721926,
,12,,,,,0,12,12,12,0,0,0,0,,,,,,,,,,,,,,,,,935.3363289170011,None,space,0.5645123989997956,935.3363289170011,None,935.3363289170011,None,935.3363289170011,None,935.9365151620004,None,935.9365151620004,None,,"David has an hour and a half, while anna has 35 minutes","[2, 1]",936.6873945520001,None,936.6873945520001,None,936.6873945520001,None,936.6873945520001,None,936.6873945520001,None,936.6873945520001,None,936.6873945520001,None,,948.7529292210002,None,948.7529292210002,None,948.7529292210002,None,948.7529292210002,None,948.7529292210002,None,948.7529292210002,None,948.7529292210002,None,,952.036810126001,None,952.036810126001,None,952.036810126001,None,952.036810126001,None,952.036810126001,None,952.036810126001,None,952.036810126001,None,,953.6038955929998,None,953.6038955929998,None,953.6038955929998,None,953.6038955929998,None,953.6038955929998,None,953.6038955929998,None,953.6038955929998,None,David is reading books on his laptop,957.3187594360006,None,957.3187594360006,None,957.3187594360006,None,957.3187594360006,None,957.3187594360006,None,957.3187594360006,None,957.3187594360006,None,"Are you a gymnast, because that was a good tumble",965.8203794870005,None,965.8203794870005,None,965.8203794870005,None,965.8203794870005,None,965.8203794870005,None,965.8203794870005,None,965.8203794870005,None,"Next time they're both in town, david is planning on taking anna out for dinner",976.869403228,None,976.869403228,None,976.869403228,None,976.869403228,None,976.869403228,None,976.869403228,None,976.869403228,None,,990.0360240080008,None,990.0360240080008,None,990.0360240080008,None,990.0360240080008,None,990.0360240080008,None,990.0360240080008,None,990.0360240080008,None,,,040122,0,3,2,3,0,36,2022_Apr_01_1243,short_answer,3.2.4,60.104008905721926,
,12,,,,,0,12,12,12,,,,,,,,,,,,,,,,,,,,,,,,,,,,,,,,,,,,,,,,,,,,,,,,,,,,,,,,,,,,,,,,,,,,,,,,,,,,,,,,,,,,,,,,,,,,,,,,,,,,,,,,,,,,,,,,,,,,,,,,,,,,,,,,,,,,,,,,,,,,,,,,,,,,,,,,,,,,,,,040122,0,3,2,3,0,36,2022_Apr_01_1243,short_answer,3.2.4,60.104008905721926,
,13,,,,,0,13,13,13,0,0,0,0,,,,,,,,,,,,,,,,,991.9354064580002,None,space,0.45363266700042004,991.9354064580002,None,991.9354064580002,None,991.9354064580002,None,992.4357997679999,None,992.4357997679999,None,,Fancy steakhouse,"[2, 1]",993.6696347289999,None,993.6696347289999,None,993.6696347289999,None,993.6696347289999,None,993.6696347289999,None,993.6696347289999,None,993.6696347289999,None,,999.9021102570005,None,999.9021102570005,None,999.9021102570005,None,999.9021102570005,None,999.9021102570005,None,999.9021102570005,None,999.9021102570005,None,"Mr gordon gets a steak with a martini, while mr shelton orders veal with a manhattan",1001.8182671760005,None,1001.8182671760005,None,1001.8182671760005,None,1001.8182671760005,None,1001.8182671760005,None,1001.8182671760005,None,1001.8182671760005,None,Both like their food,1029.535722378001,None,1029.535722378001,None,1029.535722378001,None,1029.535722378001,None,1029.535722378001,None,1029.535722378001,None,1029.535722378001,None,"Mr shelton is part of a larger aviation company or conglomerate, mr gordon is an executive at a smaller manufacturing company",1037.3853559690015,None,1037.3853559690015,None,1037.3853559690015,None,1037.3853559690015,None,1037.3853559690015,None,1037.3853559690015,None,1037.3853559690015,None,,1063.1350521640015,None,1063.1350521640015,None,1063.1350521640015,None,1063.1350521640015,None,1063.1350521640015,None,1063.1350521640015,None,1063.1350521640015,None,,1065.1350830890005,None,1065.1350830890005,None,1065.1350830890005,None,1065.1350830890005,None,1065.1350830890005,None,1065.1350830890005,None,1065.1350830890005,None,,1068.0021433279999,None,1068.0021433279999,None,1068.0021433279999,None,1068.0021433279999,None,1068.0021433279999,None,1068.0021433279999,None,1068.0021433279999,None,,,040122,0,3,2,3,0,36,2022_Apr_01_1243,short_answer,3.2.4,60.104008905721926,
,13,,,,,0,13,13,13,,,,,,,,,,,,,,,,,,,,,,,,,,,,,,,,,,,,,,,,,,,,,,,,,,,,,,,,,,,,,,,,,,,,,,,,,,,,,,,,,,,,,,,,,,,,,,,,,,,,,,,,,,,,,,,,,,,,,,,,,,,,,,,,,,,,,,,,,,,,,,,,,,,,,,,,,,,,,,,040122,0,3,2,3,0,36,2022_Apr_01_1243,short_answer,3.2.4,60.104008905721926,
,14,,,,,0,14,14,14,0,0,0,0,,,,,,,,,,,,,,,,,1069.600988233,None,space,0.6576097409997601,1069.600988233,None,1069.600988233,None,1069.600988233,None,1070.301062587001,None,1070.301062587001,None,,"Three projectors up front, multiple desks with outlets","[2, 1]",1071.1683277470001,None,1071.1683277470001,None,1071.1683277470001,None,1071.1683277470001,None,1071.1683277470001,None,1071.1683277470001,None,1071.1683277470001,None,Chemistry lecture about elements,1085.4852313790016,None,1085.4852313790016,None,1085.4852313790016,None,1085.4852313790016,None,1085.4852313790016,None,1085.4852313790016,None,1085.4852313790016,None,The number of protons that an element has is its defining feature,1091.652222355,None,1091.652222355,None,1091.652222355,None,1091.652222355,None,1091.652222355,None,1091.652222355,None,1091.652222355,None,Midterm exam on the material covered in the first four weeks,1120.7012400849999,None,1120.7012400849999,None,1120.7012400849999,None,1120.7012400849999,None,1120.7012400849999,None,1120.7012400849999,None,1120.7012400849999,None,3 years,1131.3183284610004,None,1131.3183284610004,None,1131.3183284610004,None,1131.3183284610004,None,1131.3183284610004,None,1131.3183284610004,None,1131.3183284610004,None,"It's avant-garde, as that's what lana likes",1134.3175110430002,None,1134.3175110430002,None,1134.3175110430002,None,1134.3175110430002,None,1134.3175110430002,None,1134.3175110430002,None,1134.3175110430002,None,,1149.783362749,None,1149.783362749,None,1149.783362749,None,1149.783362749,None,1149.783362749,None,1149.783362749,None,1149.783362749,None,,1151.1511846150006,None,1151.1511846150006,None,1151.1511846150006,None,1151.1511846150006,None,1151.1511846150006,None,1151.1511846150006,None,1151.1511846150006,None,,,040122,0,3,2,3,0,36,2022_Apr_01_1243,short_answer,3.2.4,60.104008905721926,
,14,,,,,0,14,14,14,,,,,,,,,,,,,,,,,,,,,,,,,,,,,,,,,,,,,,,,,,,,,,,,,,,,,,,,,,,,,,,,,,,,,,,,,,,,,,,,,,,,,,,,,,,,,,,,,,,,,,,,,,,,,,,,,,,,,,,,,,,,,,,,,,,,,,,,,,,,,,,,,,,,,,,,,,,,,,,040122,0,3,2,3,0,36,2022_Apr_01_1243,short_answer,3.2.4,60.104008905721926,
,15,,,,,0,15,15,15,,,,,,,,,,,,,,,,,,,,,,,,,,,,,,,,,,,,,,,,,,,,,,,,,,,,,,,,,,,,,,,,,,,,,,,,,,,,,,,,,,,,,,,,,,,,,,,,,,,,,,,,,,,,,,,,,,,,,,,,,,,,,,,,,,,,,,,,,,,,,,,,,,,,,,,,,,,,,,,040122,0,3,2,3,0,36,2022_Apr_01_1243,short_answer,3.2.4,60.104008905721926,
,,,,,,,,,,,,,,0,0,0,0,,,,,,,,,,,,,,,,,,,,,,,,,,,,,,,,,,,,,,,,,,,,,,,,,,,,,,,,,,,,,,,,,,,,,,,,,,,,,,,,,,,,,,,,,,,,,,,,,,,,,,,,,,,,,,,,,,,,,,,,,,,,,,,,,,,,,,,,,,,,,,,,,,,,,1153.766914883001,None,040122,0,3,2,3,0,36,2022_Apr_01_1243,short_answer,3.2.4,60.104008905721926,
