count,audio,trials_14.thisRepN,trials_14.thisTrialN,trials_14.thisN,trials_14.thisIndex,trials_3.thisRepN,trials_3.thisTrialN,trials_3.thisN,trials_3.thisIndex,trials_4.thisRepN,trials_4.thisTrialN,trials_4.thisN,trials_4.thisIndex,trials_6.thisRepN,trials_6.thisTrialN,trials_6.thisN,trials_6.thisIndex,trials_9.thisRepN,trials_9.thisTrialN,trials_9.thisN,trials_9.thisIndex,trials_10.thisRepN,trials_10.thisTrialN,trials_10.thisN,trials_10.thisIndex,trials_11.thisRepN,trials_11.thisTrialN,trials_11.thisN,trials_11.thisIndex,trials_12.thisRepN,trials_12.thisTrialN,trials_12.thisN,trials_12.thisIndex,trials_25.thisRepN,trials_25.thisTrialN,trials_25.thisN,trials_25.thisIndex,trials_15.thisRepN,trials_15.thisTrialN,trials_15.thisN,trials_15.thisIndex,trials_26.thisRepN,trials_26.thisTrialN,trials_26.thisN,trials_26.thisIndex,story_list_block2,action_list_block2,textTrigger.started,textTrigger.stopped,getTrigger.keys,getTrigger.rt,getTrigger.started,getTrigger.stopped,triggerTime,text_76.started,text_76.stopped,text_77.started,text_77.stopped,startWait,endWait,image_23.started,image_23.stopped,text_55.started,text_55.stopped,text_56.started,text_56.stopped,key_resp_2.keys,key_resp_2.rt,key_resp_2.started,key_resp_2.stopped,text_82.started,text_82.stopped,text_57.started,text_57.stopped,key_resp_17.keys,key_resp_17.rt,key_resp_17.started,key_resp_17.stopped,text_83.started,text_83.stopped,text_60.started,text_60.stopped,image_2.started,image_2.stopped,text_58.started,text_58.stopped,key_resp_23.keys,key_resp_23.rt,key_resp_23.started,key_resp_23.stopped,text_62.started,text_62.stopped,key_resp_18.keys,key_resp_18.rt,key_resp_18.started,key_resp_18.stopped,text_84.started,text_84.stopped,question1_2.started,question1_2.stopped,question2_2.started,question2_2.stopped,question3_2.started,question3_2.stopped,question4_2.started,question4_2.stopped,question5_2.started,question5_2.stopped,question6_2.started,question6_2.stopped,image_15.started,image_15.stopped,key_resp.keys,key_resp.started,key_resp.stopped,text_59.started,text_59.stopped,key_resp_19.keys,key_resp_19.rt,key_resp_19.started,key_resp_19.stopped,text_85.started,text_85.stopped,text_61.started,text_61.stopped,image_17.started,image_17.stopped,text_63.started,text_63.stopped,key_resp_24.keys,key_resp_24.rt,key_resp_24.started,key_resp_24.stopped,text_64.started,text_64.stopped,key_resp_20.keys,key_resp_20.rt,key_resp_20.started,key_resp_20.stopped,storyImage_StartTime,storyImage_EndTime,clip_StartTime,clip_EndTime,text_67.started,text_67.stopped,text_68.started,text_68.stopped,participant,sA,sB,lA,lB,block_struct,play_stories,block,behavioral,random_seed,date,expName,psychopyVersion,frameRate,
0,,,,,,,,,,0,0,0,0,0,0,0,0,0,0,0,0,0,0,0,0,0,0,0,0,,,,,,,,,,,,,,,,,[22 24 13 42 44 31 33 11],[2 4 1 2 4 3 1 3],28.2491166180007,None,equal,29.802007185000548,28.2491166180007,None,29.841718018000392,28.2491166180007,None,28.2491166180007,None,0.0004646819998015417,5.998906052000166,58.08370945800016,None,64.08430769200095,None,64.08430769200095,None,6,0.7619671180000296,64.08430769200095,None,64.08430769200095,None,64.86686000500049,None,6,0.6754009719988971,64.86686000500049,None,64.86686000500049,None,65.59938176899959,None,65.59938176899959,None,65.59938176899959,None,6,0.9968899149989738,65.59938176899959,None,66.61606361899976,None,6,0.8020430659998965,66.61606361899976,None,66.61606361899976,None,67.53301227600059,None,67.53301227600059,None,67.53301227600059,None,67.53301227600059,None,67.53301227600059,None,67.53301227600059,None,67.53301227600059,None,None,67.53301227600059,None,,,,,,,,,,,,,,,,,,,,,,,,,,,,,,,,,022021,0,2,0,1,0,1,2,0,14,2021_Feb_20_1140,listening_fmri,3.2.4,60.31692793964732,
0,,,,,,,,,,0,0,0,0,0,0,0,0,0,0,0,0,0,0,0,0,,,,,,,,,,,,,,,,,,,,,,,,,,,,,,,,,,,,,,,,,,,,,,,,,,,,,,,,,,,,,,,,,,,,,,,,,,,,,,,,,,,,,,,,,,,82.9834430610008,None,6,0.5268183869993663,82.9834430610008,None,82.9834430610008,None,83.54965792800067,None,83.54965792800067,None,83.54965792800067,None,6,0.47860213899912196,83.54965792800067,None,,,,,,,,,,,,,,,022021,0,2,0,1,0,1,2,0,14,2021_Feb_20_1140,listening_fmri,3.2.4,60.31692793964732,
0,parcelated_audio/22/22_1.ogg,,,,,,,,,0,0,0,0,0,0,0,0,0,0,0,0,,,,,,,,,,,,,0,0,0,0,0,0,0,0,,,,,,,,,,,,,,,,,,,,,,,,,,,,,,,,,,,,,,,,,,,,,,,,,,,,,,,,,,,,,,,,,,,,,,,,,,,,,,,,,,,,,,,,,,,,,84.05034082800012,None,6,0.31090197500088834,84.05034082800012,None,26.30706482700043,29.316041822999978,29.323060761000306,42.39251779299957,,,,,022021,0,2,0,1,0,1,2,0,14,2021_Feb_20_1140,listening_fmri,3.2.4,60.31692793964732,
0,parcelated_audio/22/22_2.ogg,,,,,,,,,0,0,0,0,0,0,0,0,0,0,0,0,,,,,,,,,,,,,0,0,0,0,0,1,1,1,,,,,,,,,,,,,,,,,,,,,,,,,,,,,,,,,,,,,,,,,,,,,,,,,,,,,,,,,,,,,,,,,,,,,,,,,,,,,,,,,,,,,,,,,,,,,,,,,,,,,42.39334233699992,48.777532611000424,,,,,022021,0,2,0,1,0,1,2,0,14,2021_Feb_20_1140,listening_fmri,3.2.4,60.31692793964732,
0,parcelated_audio/22/22_3.ogg,,,,,,,,,0,0,0,0,0,0,0,0,0,0,0,0,,,,,,,,,,,,,0,0,0,0,0,2,2,2,,,,,,,,,,,,,,,,,,,,,,,,,,,,,,,,,,,,,,,,,,,,,,,,,,,,,,,,,,,,,,,,,,,,,,,,,,,,,,,,,,,,,,,,,,,,,,,,,,,,,48.77784492700084,61.6918106789999,,,,,022021,0,2,0,1,0,1,2,0,14,2021_Feb_20_1140,listening_fmri,3.2.4,60.31692793964732,
0,parcelated_audio/22/22_4.ogg,,,,,,,,,0,0,0,0,0,0,0,0,0,0,0,0,,,,,,,,,,,,,0,0,0,0,0,3,3,3,,,,,,,,,,,,,,,,,,,,,,,,,,,,,,,,,,,,,,,,,,,,,,,,,,,,,,,,,,,,,,,,,,,,,,,,,,,,,,,,,,,,,,,,,,,,,,,,,,,,,61.69216529500045,74.10973358900083,,,,,022021,0,2,0,1,0,1,2,0,14,2021_Feb_20_1140,listening_fmri,3.2.4,60.31692793964732,
0,parcelated_audio/22/22_5.ogg,,,,,,,,,0,0,0,0,0,0,0,0,0,0,0,0,,,,,,,,,,,,,0,0,0,0,0,4,4,4,,,,,,,,,,,,,,,,,,,,,,,,,,,,,,,,,,,,,,,,,,,,,,,,,,,,,,,,,,,,,,,,,,,,,,,,,,,,,,,,,,,,,,,,,,,,,,,,,,,,,74.11009880799975,80.04331822099994,,,,,022021,0,2,0,1,0,1,2,0,14,2021_Feb_20_1140,listening_fmri,3.2.4,60.31692793964732,
0,parcelated_audio/22/22_6.ogg,,,,,,,,,0,0,0,0,0,0,0,0,0,0,0,0,,,,,,,,,,,,,0,0,0,0,0,5,5,5,,,,,,,,,,,,,,,,,,,,,,,,,,,,,,,,,,,,,,,,,,,,,,,,,,,,,,,,,,,,,,,,,,,,,,,,,,,,,,,,,,,,,,,,,,,,,,,,,,,,,80.04374557099982,89.2486753789999,,,,,022021,0,2,0,1,0,1,2,0,14,2021_Feb_20_1140,listening_fmri,3.2.4,60.31692793964732,
0,parcelated_audio/22/22_7.ogg,,,,,,,,,0,0,0,0,0,0,0,0,0,0,0,0,,,,,,,,,,,,,0,0,0,0,0,6,6,6,,,,,,,,,,,,,,,,,,,,,,,,,,,,,,,,,,,,,,,,,,,,,,,,,,,,,,,,,,,,,,,,,,,,,,,,,,,,,,,,,,,,,,,,,,,,,,,,,,,,,89.24902066300092,94.23544515100002,,,,,022021,0,2,0,1,0,1,2,0,14,2021_Feb_20_1140,listening_fmri,3.2.4,60.31692793964732,
0,parcelated_audio/22/22_8.ogg,,,,,,,,,0,0,0,0,0,0,0,0,0,0,0,0,,,,,,,,,,,,,0,0,0,0,0,7,7,7,,,,,,,,,,,,,,,,,,,,,,,,,,,,,,,,,,,,,,,,,,,,,,,,,,,,,,,,,,,,,,,,,,,,,,,,,,,,,,,,,,,,,,,,,,,,,,,,,,,,,94.23574923900014,97.76375726100014,,,,,022021,0,2,0,1,0,1,2,0,14,2021_Feb_20_1140,listening_fmri,3.2.4,60.31692793964732,
0,parcelated_audio/22/22_9.ogg,,,,,,,,,0,0,0,0,0,0,0,0,0,0,0,0,,,,,,,,,,,,,0,0,0,0,0,8,8,8,,,,,,,,,,,,,,,,,,,,,,,,,,,,,,,,,,,,,,,,,,,,,,,,,,,,,,,,,,,,,,,,,,,,,,,,,,,,,,,,,,,,,,,,,,,,,,,,,,,,,97.76411782600007,101.65387993600052,,,,,022021,0,2,0,1,0,1,2,0,14,2021_Feb_20_1140,listening_fmri,3.2.4,60.31692793964732,
0,parcelated_audio/22/22_10.ogg,,,,,,,,,0,0,0,0,0,0,0,0,0,0,0,0,,,,,,,,,,,,,0,0,0,0,0,9,9,9,,,,,,,,,,,,,,,,,,,,,,,,,,,,,,,,,,,,,,,,,,,,,,,,,,,,,,,,,,,,,,,,,,,,,,,,,,,,,,,,,,,,,,,,,,,,,,,,,,,,,101.65430897100123,106.42378885200014,,,,,022021,0,2,0,1,0,1,2,0,14,2021_Feb_20_1140,listening_fmri,3.2.4,60.31692793964732,
0,parcelated_audio/22/22_11.ogg,,,,,,,,,0,0,0,0,0,0,0,0,0,0,0,0,,,,,,,,,,,,,0,0,0,0,0,10,10,10,,,,,,,,,,,,,,,,,,,,,,,,,,,,,,,,,,,,,,,,,,,,,,,,,,,,,,,,,,,,,,,,,,,,,,,,,,,,,,,,,,,,,,,,,,,,,,,,,,,,,106.42414097500114,113.7024378620008,,,,,022021,0,2,0,1,0,1,2,0,14,2021_Feb_20_1140,listening_fmri,3.2.4,60.31692793964732,
0,parcelated_audio/22/22_12.ogg,,,,,,,,,0,0,0,0,0,0,0,0,0,0,0,0,,,,,,,,,,,,,0,0,0,0,0,11,11,11,,,,,,,,,,,,,,,,,,,,,,,,,,,,,,,,,,,,,,,,,,,,,,,,,,,,,,,,,,,,,,,,,,,,,,,,,,,,,,,,,,,,,,,,,,,,,,,,,,,,,113.70345325000017,121.4113002310005,,,,,022021,0,2,0,1,0,1,2,0,14,2021_Feb_20_1140,listening_fmri,3.2.4,60.31692793964732,
0,parcelated_audio/22/22_13.ogg,,,,,,,,,0,0,0,0,0,0,0,0,0,0,0,0,,,,,,,,,,,,,0,0,0,0,0,12,12,12,,,,,,,,,,,,,,,,,,,,,,,,,,,,,,,,,,,,,,,,,,,,,,,,,,,,,,,,,,,,,,,,,,,,,,,,,,,,,,,,,,,,,,,,,,,,,,,,,,,,,121.41241249800078,128.6770139979999,,,,,022021,0,2,0,1,0,1,2,0,14,2021_Feb_20_1140,listening_fmri,3.2.4,60.31692793964732,
0,parcelated_audio/22/22_14.ogg,,,,,,,,,0,0,0,0,0,0,0,0,0,0,0,0,,,,,,,,,,,,,0,0,0,0,0,13,13,13,,,,,,,,,,,,,,,,,,,,,,,,,,,,,,,,,,,,,,,,,,,,,,,,,,,,,,,,,,,,,,,,,,,,,,,,,,,,,,,,,,,,,,,,,,,,,,,,,,,,,128.6775261620005,134.29678102599973,,,,,022021,0,2,0,1,0,1,2,0,14,2021_Feb_20_1140,listening_fmri,3.2.4,60.31692793964732,
0,parcelated_audio/22/22_15.ogg,,,,,,,,,0,0,0,0,0,0,0,0,0,0,0,0,,,,,,,,,,,,,0,0,0,0,0,14,14,14,,,,,,,,,,,,,,,,,,,,,,,,,,,,,,,,,,,,,,,,,,,,,,,,,,,,,,,,,,,,,,,,,,,,,,,,,,,,,,,,,,,,,,,,,,,,,,,,,,,,,134.2971366620004,142.06488551000075,,,,,022021,0,2,0,1,0,1,2,0,14,2021_Feb_20_1140,listening_fmri,3.2.4,60.31692793964732,
0,parcelated_audio/22/22_16.ogg,,,,,,,,,0,0,0,0,0,0,0,0,0,0,0,0,,,,,,,,,,,,,0,0,0,0,0,15,15,15,,,,,,,,,,,,,,,,,,,,,,,,,,,,,,,,,,,,,,,,,,,,,,,,,,,,,,,,,,,,,,,,,,,,,,,,,,,,,,,,,,,,,,,,,,,,,,,,,,,,,142.06523564500094,150.83117894800125,,,,,022021,0,2,0,1,0,1,2,0,14,2021_Feb_20_1140,listening_fmri,3.2.4,60.31692793964732,
0,parcelated_audio/22/22_17.ogg,,,,,,,,,0,0,0,0,0,0,0,0,0,0,0,0,,,,,,,,,,,,,0,0,0,0,0,16,16,16,,,,,,,,,,,,,,,,,,,,,,,,,,,,,,,,,,,,,,,,,,,,,,,,,,,,,,,,,,,,,,,,,,,,,,,,,,,,,,,,,,,,,,,,,,,,,,,,,,,,,150.83165418700082,153.98755623200122,,,,,022021,0,2,0,1,0,1,2,0,14,2021_Feb_20_1140,listening_fmri,3.2.4,60.31692793964732,
0,parcelated_audio/22/22_18.ogg,,,,,,,,,0,0,0,0,0,0,0,0,0,0,0,0,,,,,,,,,,,,,0,0,0,0,0,17,17,17,,,,,,,,,,,,,,,,,,,,,,,,,,,,,,,,,,,,,,,,,,,,,,,,,,,,,,,,,,,,,,,,,,,,,,,,,,,,,,,,,,,,,,,,,,,,,,,,,,,,,153.98793198699968,160.72170181500042,,,,,022021,0,2,0,1,0,1,2,0,14,2021_Feb_20_1140,listening_fmri,3.2.4,60.31692793964732,
0,parcelated_audio/22/22_19.ogg,,,,,,,,,0,0,0,0,0,0,0,0,0,0,0,0,,,,,,,,,,,,,0,0,0,0,0,18,18,18,,,,,,,,,,,,,,,,,,,,,,,,,,,,,,,,,,,,,,,,,,,,,,,,,,,,,,,,,,,,,,,,,,,,,,,,,,,,,,,,,,,,,,,,,,,,,,,,,,,,,160.72197679199962,165.68374223300088,,,,,022021,0,2,0,1,0,1,2,0,14,2021_Feb_20_1140,listening_fmri,3.2.4,60.31692793964732,
0,parcelated_audio/22/22_20.ogg,,,,,,,,,0,0,0,0,0,0,0,0,0,0,0,0,,,,,,,,,,,,,0,0,0,0,0,19,19,19,,,,,,,,,,,,,,,,,,,,,,,,,,,,,,,,,,,,,,,,,,,,,,,,,,,,,,,,,,,,,,,,,,,,,,,,,,,,,,,,,,,,,,,,,,,,,,,,,,,,,165.68466999300108,179.78770977800013,,,,,022021,0,2,0,1,0,1,2,0,14,2021_Feb_20_1140,listening_fmri,3.2.4,60.31692793964732,
0,parcelated_audio/22/22_21.ogg,,,,,,,,,0,0,0,0,0,0,0,0,0,0,0,0,,,,,,,,,,,,,0,0,0,0,0,20,20,20,,,,,,,,,,,,,,,,,,,,,,,,,,,,,,,,,,,,,,,,,,,,,,,,,,,,,,,,,,,,,,,,,,,,,,,,,,,,,,,,,,,,,,,,,,,,,,,,,,,,,179.78799685600097,181.7995379109998,,,,,022021,0,2,0,1,0,1,2,0,14,2021_Feb_20_1140,listening_fmri,3.2.4,60.31692793964732,
0,parcelated_audio/22/22_22.ogg,,,,,,,,,0,0,0,0,0,0,0,0,0,0,0,0,,,,,,,,,,,,,0,0,0,0,0,21,21,21,,,,,,,,,,,,,,,,,,,,,,,,,,,,,,,,,,,,,,,,,,,,,,,,,,,,,,,,,,,,,,,,,,,,,,,,,,,,,,,,,,,,,,,,,,,,,,,,,,,,,181.799967070001,184.9476600350008,,,,,022021,0,2,0,1,0,1,2,0,14,2021_Feb_20_1140,listening_fmri,3.2.4,60.31692793964732,
0,parcelated_audio/22/22_23.ogg,,,,,,,,,0,0,0,0,0,0,0,0,0,0,0,0,,,,,,,,,,,,,0,0,0,0,0,22,22,22,,,,,,,,,,,,,,,,,,,,,,,,,,,,,,,,,,,,,,,,,,,,,,,,,,,,,,,,,,,,,,,,,,,,,,,,,,,,,,,,,,,,,,,,,,,,,,,,,,,,,184.94793327600019,191.4807133200011,,,,,022021,0,2,0,1,0,1,2,0,14,2021_Feb_20_1140,listening_fmri,3.2.4,60.31692793964732,
0,parcelated_audio/22/22_24.ogg,,,,,,,,,0,0,0,0,0,0,0,0,0,0,0,0,,,,,,,,,,,,,0,0,0,0,0,23,23,23,,,,,,,,,,,,,,,,,,,,,,,,,,,,,,,,,,,,,,,,,,,,,,,,,,,,,,,,,,,,,,,,,,,,,,,,,,,,,,,,,,,,,,,,,,,,,,,,,,,,,191.48103713599994,197.2089597560007,,,,,022021,0,2,0,1,0,1,2,0,14,2021_Feb_20_1140,listening_fmri,3.2.4,60.31692793964732,
0,parcelated_audio/22/22_25.ogg,,,,,,,,,0,0,0,0,0,0,0,0,0,0,0,0,,,,,,,,,,,,,0,0,0,0,0,24,24,24,,,,,,,,,,,,,,,,,,,,,,,,,,,,,,,,,,,,,,,,,,,,,,,,,,,,,,,,,,,,,,,,,,,,,,,,,,,,,,,,,,,,,,,,,,,,,,,,,,,,,197.20931161500084,209.9069209930003,,,,,022021,0,2,0,1,0,1,2,0,14,2021_Feb_20_1140,listening_fmri,3.2.4,60.31692793964732,
0,parcelated_audio/22/22_26.ogg,,,,,,,,,0,0,0,0,0,0,0,0,0,0,0,0,,,,,,,,,,,,,0,0,0,0,0,25,25,25,,,,,,,,,,,,,,,,,,,,,,,,,,,,,,,,,,,,,,,,,,,,,,,,,,,,,,,,,,,,,,,,,,,,,,,,,,,,,,,,,,,,,,,,,,,,,,,,,,,,,209.90727299300124,216.64500206900084,,,,,022021,0,2,0,1,0,1,2,0,14,2021_Feb_20_1140,listening_fmri,3.2.4,60.31692793964732,
0,parcelated_audio/22/22_27.ogg,,,,,,,,,0,0,0,0,0,0,0,0,0,0,0,0,,,,,,,,,,,,,0,0,0,0,0,26,26,26,,,,,,,,,,,,,,,,,,,,,,,,,,,,,,,,,,,,,,,,,,,,,,,,,,,,,,,,,,,,,,,,,,,,,,,,,,,,,,,,,,,,,,,,,,,,,,,,,,,,,216.64541668099992,221.03254911800104,,,,,022021,0,2,0,1,0,1,2,0,14,2021_Feb_20_1140,listening_fmri,3.2.4,60.31692793964732,
0,parcelated_audio/22/22_28.ogg,,,,,,,,,0,0,0,0,0,0,0,0,0,0,0,0,,,,,,,,,,,,,0,0,0,0,0,27,27,27,,,,,,,,,,,,,,,,,,,,,,,,,,,,,,,,,,,,,,,,,,,,,,,,,,,,,,,,,,,,,,,,,,,,,,,,,,,,,,,,,,,,,,,,,,,,,,,,,,,,,221.0331049260003,226.77939183300077,,,,,022021,0,2,0,1,0,1,2,0,14,2021_Feb_20_1140,listening_fmri,3.2.4,60.31692793964732,
0,parcelated_audio/22/22_29.ogg,,,,,,,,,0,0,0,0,0,0,0,0,0,0,0,0,,,,,,,,,,,,,0,0,0,0,0,28,28,28,,,,,,,,,,,,,,,,,,,,,,,,,,,,,,,,,,,,,,,,,,,,,,,,,,,,,,,,,,,,,,,,,,,,,,,,,,,,,,,,,,,,,,,,,,,,,,,,,,,,,226.77970974600066,232.4900850970007,,,,,022021,0,2,0,1,0,1,2,0,14,2021_Feb_20_1140,listening_fmri,3.2.4,60.31692793964732,
0,parcelated_audio/22/22_30.ogg,,,,,,,,,0,0,0,0,0,0,0,0,0,0,0,0,,,,,,,,,,,,,0,0,0,0,0,29,29,29,,,,,,,,,,,,,,,,,,,,,,,,,,,,,,,,,,,,,,,,,,,,,,,,,,,,,,,,,,,,,,,,,,,,,,,,,,,,,,,,,,,,,,,,,,,,,,,,,,,,,232.49062916000003,235.2227209720004,,,,,022021,0,2,0,1,0,1,2,0,14,2021_Feb_20_1140,listening_fmri,3.2.4,60.31692793964732,
0,parcelated_audio/22/22_31.ogg,,,,,,,,,0,0,0,0,0,0,0,0,0,0,0,0,,,,,,,,,,,,,0,0,0,0,0,30,30,30,,,,,,,,,,,,,,,,,,,,,,,,,,,,,,,,,,,,,,,,,,,,,,,,,,,,,,,,,,,,,,,,,,,,,,,,,,,,,,,,,,,,,,,,,,,,,,,,,,,,,235.22303646799992,240.3848779050004,,,,,022021,0,2,0,1,0,1,2,0,14,2021_Feb_20_1140,listening_fmri,3.2.4,60.31692793964732,
0,parcelated_audio/22/22_32.ogg,,,,,,,,,0,0,0,0,0,0,0,0,0,0,0,0,,,,,,,,,,,,,0,0,0,0,0,31,31,31,,,,,,,,,,,,,,,,,,,,,,,,,,,,,,,,,,,,,,,,,,,,,,,,,,,,,,,,,,,,,,,,,,,,,,,,,,,,,,,,,,,,,,,,,,,,,,,,,,,,,240.38525010600097,246.7114503190005,,,,,022021,0,2,0,1,0,1,2,0,14,2021_Feb_20_1140,listening_fmri,3.2.4,60.31692793964732,
0,parcelated_audio/22/22_33.ogg,,,,,,,,,0,0,0,0,0,0,0,0,0,0,0,0,,,,,,,,,,,,,0,0,0,0,0,32,32,32,,,,,,,,,,,,,,,,,,,,,,,,,,,,,,,,,,,,,,,,,,,,,,,,,,,,,,,,,,,,,,,,,,,,,,,,,,,,,,,,,,,,,,,,,,,,,,,,,,,,,246.71172322200073,251.15566813100122,,,,,022021,0,2,0,1,0,1,2,0,14,2021_Feb_20_1140,listening_fmri,3.2.4,60.31692793964732,
0,parcelated_audio/22/22_34.ogg,,,,,,,,,0,0,0,0,0,0,0,0,0,0,0,0,,,,,,,,,,,,,0,0,0,0,0,33,33,33,,,,,,,,,,,,,,,,,,,,,,,,,,,,,,,,,,,,,,,,,,,,,,,,,,,,,,,,,,,,,,,,,,,,,,,,,,,,,,,,,,,,,,,,,,,,,,,,,,,,,251.15593924400127,259.2017794910007,,,,,022021,0,2,0,1,0,1,2,0,14,2021_Feb_20_1140,listening_fmri,3.2.4,60.31692793964732,
0,parcelated_audio/22/22_35.ogg,,,,,,,,,0,0,0,0,0,0,0,0,0,0,0,0,,,,,,,,,,,,,0,0,0,0,0,34,34,34,,,,,,,,,,,,,,,,,,,,,,,,,,,,,,,,,,,,,,,,,,,,,,,,,,,,,,,,,,,,,,,,,,,,,,,,,,,,,,,,,,,,,,,,,,,,,,,,,,,,,259.2024017870008,266.7026860599999,,,,,022021,0,2,0,1,0,1,2,0,14,2021_Feb_20_1140,listening_fmri,3.2.4,60.31692793964732,
0,parcelated_audio/22/22_36.ogg,,,,,,,,,0,0,0,0,0,0,0,0,0,0,0,0,,,,,,,,,,,,,0,0,0,0,0,35,35,35,,,,,,,,,,,,,,,,,,,,,,,,,,,,,,,,,,,,,,,,,,,,,,,,,,,,,,,,,,,,,,,,,,,,,,,,,,,,,,,,,,,,,,,,,,,,,,,,,,,,,266.70296654199956,279.4006858270004,,,,,022021,0,2,0,1,0,1,2,0,14,2021_Feb_20_1140,listening_fmri,3.2.4,60.31692793964732,
0,parcelated_audio/22/22_37.ogg,,,,,,,,,0,0,0,0,0,0,0,0,0,0,0,0,,,,,,,,,,,,,0,0,0,0,0,36,36,36,,,,,,,,,,,,,,,,,,,,,,,,,,,,,,,,,,,,,,,,,,,,,,,,,,,,,,,,,,,,,,,,,,,,,,,,,,,,,,,,,,,,,,,,,,,,,,,,,,,,,279.40097112500007,286.5867469929999,,,,,022021,0,2,0,1,0,1,2,0,14,2021_Feb_20_1140,listening_fmri,3.2.4,60.31692793964732,
0,,,,,,,,,,0,0,0,0,0,0,0,0,0,0,0,0,,,,,,,,,,,,,0,0,0,0,,,,,,,,,,,,,,,,,,,,,,,,,,,,,,,,,,,,,,,,,,,,,,,,,,,,,,,,,,,,,,,,,,,,,,,,,,,,,,,,,,,,,,,,,,,,,,,,,,,,,,,,,,,,,,,022021,0,2,0,1,0,1,2,0,14,2021_Feb_20_1140,listening_fmri,3.2.4,60.31692793964732,
,,,,,,,,,,,,,,,,,,,,,,,,,,,,,,,,,,,,,,,,,,,,,,,,,,,,,,,,,,,286.58713533800073,292.582998975,344.6650039270007,None,,,,,,,,,,,,,,,,,,,,,,,,,,,,,,,,,,,,,,,,,,,,,,,,,,,,,,,,,,,,,,,,,,,,,,,,,,,,,,,,,,350.6664416809999,None,350.6664416809999,None,,,,,,,,,,,,,,,
﻿count,audio,trials_14.thisRepN,trials_14.thisTrialN,trials_14.thisN,trials_14.thisIndex,trials_3.thisRepN,trials_3.thisTrialN,trials_3.thisN,trials_3.thisIndex,trials_4.thisRepN,trials_4.thisTrialN,trials_4.thisN,trials_4.thisIndex,trials_6.thisRepN,trials_6.thisTrialN,trials_6.thisN,trials_6.thisIndex,trials_9.thisRepN,trials_9.thisTrialN,trials_9.thisN,trials_9.thisIndex,trials_10.thisRepN,trials_10.thisTrialN,trials_10.thisN,trials_10.thisIndex,trials_11.thisRepN,trials_11.thisTrialN,trials_11.thisN,trials_11.thisIndex,trials_12.thisRepN,trials_12.thisTrialN,trials_12.thisN,trials_12.thisIndex,trials_25.thisRepN,trials_25.thisTrialN,trials_25.thisN,trials_25.thisIndex,trials_15.thisRepN,trials_15.thisTrialN,trials_15.thisN,trials_15.thisIndex,trials_26.thisRepN,trials_26.thisTrialN,trials_26.thisN,trials_26.thisIndex,story_list_block2,action_list_block2,textTrigger.started,textTrigger.stopped,getTrigger.keys,getTrigger.rt,getTrigger.started,getTrigger.stopped,triggerTime,text_76.started,text_76.stopped,text_77.started,text_77.stopped,startWait,endWait,image_23.started,image_23.stopped,text_55.started,text_55.stopped,text_56.started,text_56.stopped,key_resp_2.keys,key_resp_2.rt,key_resp_2.started,key_resp_2.stopped,text_82.started,text_82.stopped,text_57.started,text_57.stopped,key_resp_17.keys,key_resp_17.rt,key_resp_17.started,key_resp_17.stopped,text_83.started,text_83.stopped,text_60.started,text_60.stopped,image_2.started,image_2.stopped,text_58.started,text_58.stopped,key_resp_23.keys,key_resp_23.rt,key_resp_23.started,key_resp_23.stopped,text_62.started,text_62.stopped,key_resp_18.keys,key_resp_18.rt,key_resp_18.started,key_resp_18.stopped,text_84.started,text_84.stopped,question1_2.started,question1_2.stopped,question2_2.started,question2_2.stopped,question3_2.started,question3_2.stopped,question4_2.started,question4_2.stopped,question5_2.started,question5_2.stopped,question6_2.started,question6_2.stopped,image_15.started,image_15.stopped,key_resp.keys,key_resp.started,key_resp.stopped,text_59.started,text_59.stopped,key_resp_19.keys,key_resp_19.rt,key_resp_19.started,key_resp_19.stopped,text_85.started,text_85.stopped,text_61.started,text_61.stopped,image_17.started,image_17.stopped,text_63.started,text_63.stopped,key_resp_24.keys,key_resp_24.rt,key_resp_24.started,key_resp_24.stopped,text_64.started,text_64.stopped,key_resp_20.keys,key_resp_20.rt,key_resp_20.started,key_resp_20.stopped,storyImage_StartTime,storyImage_EndTime,clip_StartTime,clip_EndTime,text_67.started,text_67.stopped,text_68.started,text_68.stopped,participant,sA,sB,lA,lB,block_struct,play_stories,block,behavioral,random_seed,date,expName,psychopyVersion,frameRate,
0,,,,,,,,,,0,0,0,0,0,0,0,0,0,0,0,0,0,0,0,0,0,0,0,0,,,,,,,,,,,,,,,,,[22 24 13 42 44 31 33 11],[2 4 1 2 4 3 1 3],28.2491166180007,None,equal,29.802007185000548,28.2491166180007,None,29.841718018000392,28.2491166180007,None,28.2491166180007,None,0.0004646819998015417,5.998906052000166,58.08370945800016,None,64.08430769200095,None,64.08430769200095,None,6,0.7619671180000296,64.08430769200095,None,64.08430769200095,None,64.86686000500049,None,6,0.6754009719988971,64.86686000500049,None,64.86686000500049,None,65.59938176899959,None,65.59938176899959,None,65.59938176899959,None,6,0.9968899149989738,65.59938176899959,None,66.61606361899976,None,6,0.8020430659998965,66.61606361899976,None,66.61606361899976,None,67.53301227600059,None,67.53301227600059,None,67.53301227600059,None,67.53301227600059,None,67.53301227600059,None,67.53301227600059,None,67.53301227600059,None,None,67.53301227600059,None,,,,,,,,,,,,,,,,,,,,,,,,,,,,,,,,,022021,0,2,0,1,0,1,2,0,14,2021_Feb_20_1140,listening_fmri,3.2.4,60.31692793964732,
0,,,,,,,,,,0,0,0,0,0,0,0,0,0,0,0,0,0,0,0,0,,,,,,,,,,,,,,,,,,,,,,,,,,,,,,,,,,,,,,,,,,,,,,,,,,,,,,,,,,,,,,,,,,,,,,,,,,,,,,,,,,,,,,,,,,,82.9834430610008,None,6,0.5268183869993663,82.9834430610008,None,82.9834430610008,None,83.54965792800067,None,83.54965792800067,None,83.54965792800067,None,6,0.47860213899912196,83.54965792800067,None,,,,,,,,,,,,,,,022021,0,2,0,1,0,1,2,0,14,2021_Feb_20_1140,listening_fmri,3.2.4,60.31692793964732,
0,parcelated_audio/22/22_1.ogg,,,,,,,,,0,0,0,0,0,0,0,0,0,0,0,0,,,,,,,,,,,,,0,0,0,0,0,0,0,0,,,,,,,,,,,,,,,,,,,,,,,,,,,,,,,,,,,,,,,,,,,,,,,,,,,,,,,,,,,,,,,,,,,,,,,,,,,,,,,,,,,,,,,,,,,,,84.05034082800012,None,6,0.31090197500088834,84.05034082800012,None,26.30706482700043,29.316041822999978,29.323060761000306,42.39251779299957,,,,,022021,0,2,0,1,0,1,2,0,14,2021_Feb_20_1140,listening_fmri,3.2.4,60.31692793964732,
0,parcelated_audio/22/22_2.ogg,,,,,,,,,0,0,0,0,0,0,0,0,0,0,0,0,,,,,,,,,,,,,0,0,0,0,0,1,1,1,,,,,,,,,,,,,,,,,,,,,,,,,,,,,,,,,,,,,,,,,,,,,,,,,,,,,,,,,,,,,,,,,,,,,,,,,,,,,,,,,,,,,,,,,,,,,,,,,,,,,42.39334233699992,48.777532611000424,,,,,022021,0,2,0,1,0,1,2,0,14,2021_Feb_20_1140,listening_fmri,3.2.4,60.31692793964732,
0,parcelated_audio/22/22_3.ogg,,,,,,,,,0,0,0,0,0,0,0,0,0,0,0,0,,,,,,,,,,,,,0,0,0,0,0,2,2,2,,,,,,,,,,,,,,,,,,,,,,,,,,,,,,,,,,,,,,,,,,,,,,,,,,,,,,,,,,,,,,,,,,,,,,,,,,,,,,,,,,,,,,,,,,,,,,,,,,,,,48.77784492700084,61.6918106789999,,,,,022021,0,2,0,1,0,1,2,0,14,2021_Feb_20_1140,listening_fmri,3.2.4,60.31692793964732,
0,parcelated_audio/22/22_4.ogg,,,,,,,,,0,0,0,0,0,0,0,0,0,0,0,0,,,,,,,,,,,,,0,0,0,0,0,3,3,3,,,,,,,,,,,,,,,,,,,,,,,,,,,,,,,,,,,,,,,,,,,,,,,,,,,,,,,,,,,,,,,,,,,,,,,,,,,,,,,,,,,,,,,,,,,,,,,,,,,,,61.69216529500045,74.10973358900083,,,,,022021,0,2,0,1,0,1,2,0,14,2021_Feb_20_1140,listening_fmri,3.2.4,60.31692793964732,
0,parcelated_audio/22/22_5.ogg,,,,,,,,,0,0,0,0,0,0,0,0,0,0,0,0,,,,,,,,,,,,,0,0,0,0,0,4,4,4,,,,,,,,,,,,,,,,,,,,,,,,,,,,,,,,,,,,,,,,,,,,,,,,,,,,,,,,,,,,,,,,,,,,,,,,,,,,,,,,,,,,,,,,,,,,,,,,,,,,,74.11009880799975,80.04331822099994,,,,,022021,0,2,0,1,0,1,2,0,14,2021_Feb_20_1140,listening_fmri,3.2.4,60.31692793964732,
0,parcelated_audio/22/22_6.ogg,,,,,,,,,0,0,0,0,0,0,0,0,0,0,0,0,,,,,,,,,,,,,0,0,0,0,0,5,5,5,,,,,,,,,,,,,,,,,,,,,,,,,,,,,,,,,,,,,,,,,,,,,,,,,,,,,,,,,,,,,,,,,,,,,,,,,,,,,,,,,,,,,,,,,,,,,,,,,,,,,80.04374557099982,89.2486753789999,,,,,022021,0,2,0,1,0,1,2,0,14,2021_Feb_20_1140,listening_fmri,3.2.4,60.31692793964732,
0,parcelated_audio/22/22_7.ogg,,,,,,,,,0,0,0,0,0,0,0,0,0,0,0,0,,,,,,,,,,,,,0,0,0,0,0,6,6,6,,,,,,,,,,,,,,,,,,,,,,,,,,,,,,,,,,,,,,,,,,,,,,,,,,,,,,,,,,,,,,,,,,,,,,,,,,,,,,,,,,,,,,,,,,,,,,,,,,,,,89.24902066300092,94.23544515100002,,,,,022021,0,2,0,1,0,1,2,0,14,2021_Feb_20_1140,listening_fmri,3.2.4,60.31692793964732,
0,parcelated_audio/22/22_8.ogg,,,,,,,,,0,0,0,0,0,0,0,0,0,0,0,0,,,,,,,,,,,,,0,0,0,0,0,7,7,7,,,,,,,,,,,,,,,,,,,,,,,,,,,,,,,,,,,,,,,,,,,,,,,,,,,,,,,,,,,,,,,,,,,,,,,,,,,,,,,,,,,,,,,,,,,,,,,,,,,,,94.23574923900014,97.76375726100014,,,,,022021,0,2,0,1,0,1,2,0,14,2021_Feb_20_1140,listening_fmri,3.2.4,60.31692793964732,
0,parcelated_audio/22/22_9.ogg,,,,,,,,,0,0,0,0,0,0,0,0,0,0,0,0,,,,,,,,,,,,,0,0,0,0,0,8,8,8,,,,,,,,,,,,,,,,,,,,,,,,,,,,,,,,,,,,,,,,,,,,,,,,,,,,,,,,,,,,,,,,,,,,,,,,,,,,,,,,,,,,,,,,,,,,,,,,,,,,,97.76411782600007,101.65387993600052,,,,,022021,0,2,0,1,0,1,2,0,14,2021_Feb_20_1140,listening_fmri,3.2.4,60.31692793964732,
0,parcelated_audio/22/22_10.ogg,,,,,,,,,0,0,0,0,0,0,0,0,0,0,0,0,,,,,,,,,,,,,0,0,0,0,0,9,9,9,,,,,,,,,,,,,,,,,,,,,,,,,,,,,,,,,,,,,,,,,,,,,,,,,,,,,,,,,,,,,,,,,,,,,,,,,,,,,,,,,,,,,,,,,,,,,,,,,,,,,101.65430897100123,106.42378885200014,,,,,022021,0,2,0,1,0,1,2,0,14,2021_Feb_20_1140,listening_fmri,3.2.4,60.31692793964732,
0,parcelated_audio/22/22_11.ogg,,,,,,,,,0,0,0,0,0,0,0,0,0,0,0,0,,,,,,,,,,,,,0,0,0,0,0,10,10,10,,,,,,,,,,,,,,,,,,,,,,,,,,,,,,,,,,,,,,,,,,,,,,,,,,,,,,,,,,,,,,,,,,,,,,,,,,,,,,,,,,,,,,,,,,,,,,,,,,,,,106.42414097500114,113.7024378620008,,,,,022021,0,2,0,1,0,1,2,0,14,2021_Feb_20_1140,listening_fmri,3.2.4,60.31692793964732,
0,parcelated_audio/22/22_12.ogg,,,,,,,,,0,0,0,0,0,0,0,0,0,0,0,0,,,,,,,,,,,,,0,0,0,0,0,11,11,11,,,,,,,,,,,,,,,,,,,,,,,,,,,,,,,,,,,,,,,,,,,,,,,,,,,,,,,,,,,,,,,,,,,,,,,,,,,,,,,,,,,,,,,,,,,,,,,,,,,,,113.70345325000017,121.4113002310005,,,,,022021,0,2,0,1,0,1,2,0,14,2021_Feb_20_1140,listening_fmri,3.2.4,60.31692793964732,
0,parcelated_audio/22/22_13.ogg,,,,,,,,,0,0,0,0,0,0,0,0,0,0,0,0,,,,,,,,,,,,,0,0,0,0,0,12,12,12,,,,,,,,,,,,,,,,,,,,,,,,,,,,,,,,,,,,,,,,,,,,,,,,,,,,,,,,,,,,,,,,,,,,,,,,,,,,,,,,,,,,,,,,,,,,,,,,,,,,,121.41241249800078,128.6770139979999,,,,,022021,0,2,0,1,0,1,2,0,14,2021_Feb_20_1140,listening_fmri,3.2.4,60.31692793964732,
0,parcelated_audio/22/22_14.ogg,,,,,,,,,0,0,0,0,0,0,0,0,0,0,0,0,,,,,,,,,,,,,0,0,0,0,0,13,13,13,,,,,,,,,,,,,,,,,,,,,,,,,,,,,,,,,,,,,,,,,,,,,,,,,,,,,,,,,,,,,,,,,,,,,,,,,,,,,,,,,,,,,,,,,,,,,,,,,,,,,128.6775261620005,134.29678102599973,,,,,022021,0,2,0,1,0,1,2,0,14,2021_Feb_20_1140,listening_fmri,3.2.4,60.31692793964732,
0,parcelated_audio/22/22_15.ogg,,,,,,,,,0,0,0,0,0,0,0,0,0,0,0,0,,,,,,,,,,,,,0,0,0,0,0,14,14,14,,,,,,,,,,,,,,,,,,,,,,,,,,,,,,,,,,,,,,,,,,,,,,,,,,,,,,,,,,,,,,,,,,,,,,,,,,,,,,,,,,,,,,,,,,,,,,,,,,,,,134.2971366620004,142.06488551000075,,,,,022021,0,2,0,1,0,1,2,0,14,2021_Feb_20_1140,listening_fmri,3.2.4,60.31692793964732,
0,parcelated_audio/22/22_16.ogg,,,,,,,,,0,0,0,0,0,0,0,0,0,0,0,0,,,,,,,,,,,,,0,0,0,0,0,15,15,15,,,,,,,,,,,,,,,,,,,,,,,,,,,,,,,,,,,,,,,,,,,,,,,,,,,,,,,,,,,,,,,,,,,,,,,,,,,,,,,,,,,,,,,,,,,,,,,,,,,,,142.06523564500094,150.83117894800125,,,,,022021,0,2,0,1,0,1,2,0,14,2021_Feb_20_1140,listening_fmri,3.2.4,60.31692793964732,
0,parcelated_audio/22/22_17.ogg,,,,,,,,,0,0,0,0,0,0,0,0,0,0,0,0,,,,,,,,,,,,,0,0,0,0,0,16,16,16,,,,,,,,,,,,,,,,,,,,,,,,,,,,,,,,,,,,,,,,,,,,,,,,,,,,,,,,,,,,,,,,,,,,,,,,,,,,,,,,,,,,,,,,,,,,,,,,,,,,,150.83165418700082,153.98755623200122,,,,,022021,0,2,0,1,0,1,2,0,14,2021_Feb_20_1140,listening_fmri,3.2.4,60.31692793964732,
0,parcelated_audio/22/22_18.ogg,,,,,,,,,0,0,0,0,0,0,0,0,0,0,0,0,,,,,,,,,,,,,0,0,0,0,0,17,17,17,,,,,,,,,,,,,,,,,,,,,,,,,,,,,,,,,,,,,,,,,,,,,,,,,,,,,,,,,,,,,,,,,,,,,,,,,,,,,,,,,,,,,,,,,,,,,,,,,,,,,153.98793198699968,160.72170181500042,,,,,022021,0,2,0,1,0,1,2,0,14,2021_Feb_20_1140,listening_fmri,3.2.4,60.31692793964732,
0,parcelated_audio/22/22_19.ogg,,,,,,,,,0,0,0,0,0,0,0,0,0,0,0,0,,,,,,,,,,,,,0,0,0,0,0,18,18,18,,,,,,,,,,,,,,,,,,,,,,,,,,,,,,,,,,,,,,,,,,,,,,,,,,,,,,,,,,,,,,,,,,,,,,,,,,,,,,,,,,,,,,,,,,,,,,,,,,,,,160.72197679199962,165.68374223300088,,,,,022021,0,2,0,1,0,1,2,0,14,2021_Feb_20_1140,listening_fmri,3.2.4,60.31692793964732,
0,parcelated_audio/22/22_20.ogg,,,,,,,,,0,0,0,0,0,0,0,0,0,0,0,0,,,,,,,,,,,,,0,0,0,0,0,19,19,19,,,,,,,,,,,,,,,,,,,,,,,,,,,,,,,,,,,,,,,,,,,,,,,,,,,,,,,,,,,,,,,,,,,,,,,,,,,,,,,,,,,,,,,,,,,,,,,,,,,,,165.68466999300108,179.78770977800013,,,,,022021,0,2,0,1,0,1,2,0,14,2021_Feb_20_1140,listening_fmri,3.2.4,60.31692793964732,
0,parcelated_audio/22/22_21.ogg,,,,,,,,,0,0,0,0,0,0,0,0,0,0,0,0,,,,,,,,,,,,,0,0,0,0,0,20,20,20,,,,,,,,,,,,,,,,,,,,,,,,,,,,,,,,,,,,,,,,,,,,,,,,,,,,,,,,,,,,,,,,,,,,,,,,,,,,,,,,,,,,,,,,,,,,,,,,,,,,,179.78799685600097,181.7995379109998,,,,,022021,0,2,0,1,0,1,2,0,14,2021_Feb_20_1140,listening_fmri,3.2.4,60.31692793964732,
0,parcelated_audio/22/22_22.ogg,,,,,,,,,0,0,0,0,0,0,0,0,0,0,0,0,,,,,,,,,,,,,0,0,0,0,0,21,21,21,,,,,,,,,,,,,,,,,,,,,,,,,,,,,,,,,,,,,,,,,,,,,,,,,,,,,,,,,,,,,,,,,,,,,,,,,,,,,,,,,,,,,,,,,,,,,,,,,,,,,181.799967070001,184.9476600350008,,,,,022021,0,2,0,1,0,1,2,0,14,2021_Feb_20_1140,listening_fmri,3.2.4,60.31692793964732,
0,parcelated_audio/22/22_23.ogg,,,,,,,,,0,0,0,0,0,0,0,0,0,0,0,0,,,,,,,,,,,,,0,0,0,0,0,22,22,22,,,,,,,,,,,,,,,,,,,,,,,,,,,,,,,,,,,,,,,,,,,,,,,,,,,,,,,,,,,,,,,,,,,,,,,,,,,,,,,,,,,,,,,,,,,,,,,,,,,,,184.94793327600019,191.4807133200011,,,,,022021,0,2,0,1,0,1,2,0,14,2021_Feb_20_1140,listening_fmri,3.2.4,60.31692793964732,
0,parcelated_audio/22/22_24.ogg,,,,,,,,,0,0,0,0,0,0,0,0,0,0,0,0,,,,,,,,,,,,,0,0,0,0,0,23,23,23,,,,,,,,,,,,,,,,,,,,,,,,,,,,,,,,,,,,,,,,,,,,,,,,,,,,,,,,,,,,,,,,,,,,,,,,,,,,,,,,,,,,,,,,,,,,,,,,,,,,,191.48103713599994,197.2089597560007,,,,,022021,0,2,0,1,0,1,2,0,14,2021_Feb_20_1140,listening_fmri,3.2.4,60.31692793964732,
0,parcelated_audio/22/22_25.ogg,,,,,,,,,0,0,0,0,0,0,0,0,0,0,0,0,,,,,,,,,,,,,0,0,0,0,0,24,24,24,,,,,,,,,,,,,,,,,,,,,,,,,,,,,,,,,,,,,,,,,,,,,,,,,,,,,,,,,,,,,,,,,,,,,,,,,,,,,,,,,,,,,,,,,,,,,,,,,,,,,197.20931161500084,209.9069209930003,,,,,022021,0,2,0,1,0,1,2,0,14,2021_Feb_20_1140,listening_fmri,3.2.4,60.31692793964732,
0,parcelated_audio/22/22_26.ogg,,,,,,,,,0,0,0,0,0,0,0,0,0,0,0,0,,,,,,,,,,,,,0,0,0,0,0,25,25,25,,,,,,,,,,,,,,,,,,,,,,,,,,,,,,,,,,,,,,,,,,,,,,,,,,,,,,,,,,,,,,,,,,,,,,,,,,,,,,,,,,,,,,,,,,,,,,,,,,,,,209.90727299300124,216.64500206900084,,,,,022021,0,2,0,1,0,1,2,0,14,2021_Feb_20_1140,listening_fmri,3.2.4,60.31692793964732,
0,parcelated_audio/22/22_27.ogg,,,,,,,,,0,0,0,0,0,0,0,0,0,0,0,0,,,,,,,,,,,,,0,0,0,0,0,26,26,26,,,,,,,,,,,,,,,,,,,,,,,,,,,,,,,,,,,,,,,,,,,,,,,,,,,,,,,,,,,,,,,,,,,,,,,,,,,,,,,,,,,,,,,,,,,,,,,,,,,,,216.64541668099992,221.03254911800104,,,,,022021,0,2,0,1,0,1,2,0,14,2021_Feb_20_1140,listening_fmri,3.2.4,60.31692793964732,
0,parcelated_audio/22/22_28.ogg,,,,,,,,,0,0,0,0,0,0,0,0,0,0,0,0,,,,,,,,,,,,,0,0,0,0,0,27,27,27,,,,,,,,,,,,,,,,,,,,,,,,,,,,,,,,,,,,,,,,,,,,,,,,,,,,,,,,,,,,,,,,,,,,,,,,,,,,,,,,,,,,,,,,,,,,,,,,,,,,,221.0331049260003,226.77939183300077,,,,,022021,0,2,0,1,0,1,2,0,14,2021_Feb_20_1140,listening_fmri,3.2.4,60.31692793964732,
0,parcelated_audio/22/22_29.ogg,,,,,,,,,0,0,0,0,0,0,0,0,0,0,0,0,,,,,,,,,,,,,0,0,0,0,0,28,28,28,,,,,,,,,,,,,,,,,,,,,,,,,,,,,,,,,,,,,,,,,,,,,,,,,,,,,,,,,,,,,,,,,,,,,,,,,,,,,,,,,,,,,,,,,,,,,,,,,,,,,226.77970974600066,232.4900850970007,,,,,022021,0,2,0,1,0,1,2,0,14,2021_Feb_20_1140,listening_fmri,3.2.4,60.31692793964732,
0,parcelated_audio/22/22_30.ogg,,,,,,,,,0,0,0,0,0,0,0,0,0,0,0,0,,,,,,,,,,,,,0,0,0,0,0,29,29,29,,,,,,,,,,,,,,,,,,,,,,,,,,,,,,,,,,,,,,,,,,,,,,,,,,,,,,,,,,,,,,,,,,,,,,,,,,,,,,,,,,,,,,,,,,,,,,,,,,,,,232.49062916000003,235.2227209720004,,,,,022021,0,2,0,1,0,1,2,0,14,2021_Feb_20_1140,listening_fmri,3.2.4,60.31692793964732,
0,parcelated_audio/22/22_31.ogg,,,,,,,,,0,0,0,0,0,0,0,0,0,0,0,0,,,,,,,,,,,,,0,0,0,0,0,30,30,30,,,,,,,,,,,,,,,,,,,,,,,,,,,,,,,,,,,,,,,,,,,,,,,,,,,,,,,,,,,,,,,,,,,,,,,,,,,,,,,,,,,,,,,,,,,,,,,,,,,,,235.22303646799992,240.3848779050004,,,,,022021,0,2,0,1,0,1,2,0,14,2021_Feb_20_1140,listening_fmri,3.2.4,60.31692793964732,
0,parcelated_audio/22/22_32.ogg,,,,,,,,,0,0,0,0,0,0,0,0,0,0,0,0,,,,,,,,,,,,,0,0,0,0,0,31,31,31,,,,,,,,,,,,,,,,,,,,,,,,,,,,,,,,,,,,,,,,,,,,,,,,,,,,,,,,,,,,,,,,,,,,,,,,,,,,,,,,,,,,,,,,,,,,,,,,,,,,,240.38525010600097,246.7114503190005,,,,,022021,0,2,0,1,0,1,2,0,14,2021_Feb_20_1140,listening_fmri,3.2.4,60.31692793964732,
0,parcelated_audio/22/22_33.ogg,,,,,,,,,0,0,0,0,0,0,0,0,0,0,0,0,,,,,,,,,,,,,0,0,0,0,0,32,32,32,,,,,,,,,,,,,,,,,,,,,,,,,,,,,,,,,,,,,,,,,,,,,,,,,,,,,,,,,,,,,,,,,,,,,,,,,,,,,,,,,,,,,,,,,,,,,,,,,,,,,246.71172322200073,251.15566813100122,,,,,022021,0,2,0,1,0,1,2,0,14,2021_Feb_20_1140,listening_fmri,3.2.4,60.31692793964732,
0,parcelated_audio/22/22_34.ogg,,,,,,,,,0,0,0,0,0,0,0,0,0,0,0,0,,,,,,,,,,,,,0,0,0,0,0,33,33,33,,,,,,,,,,,,,,,,,,,,,,,,,,,,,,,,,,,,,,,,,,,,,,,,,,,,,,,,,,,,,,,,,,,,,,,,,,,,,,,,,,,,,,,,,,,,,,,,,,,,,251.15593924400127,259.2017794910007,,,,,022021,0,2,0,1,0,1,2,0,14,2021_Feb_20_1140,listening_fmri,3.2.4,60.31692793964732,
0,parcelated_audio/22/22_35.ogg,,,,,,,,,0,0,0,0,0,0,0,0,0,0,0,0,,,,,,,,,,,,,0,0,0,0,0,34,34,34,,,,,,,,,,,,,,,,,,,,,,,,,,,,,,,,,,,,,,,,,,,,,,,,,,,,,,,,,,,,,,,,,,,,,,,,,,,,,,,,,,,,,,,,,,,,,,,,,,,,,259.2024017870008,266.7026860599999,,,,,022021,0,2,0,1,0,1,2,0,14,2021_Feb_20_1140,listening_fmri,3.2.4,60.31692793964732,
0,parcelated_audio/22/22_36.ogg,,,,,,,,,0,0,0,0,0,0,0,0,0,0,0,0,,,,,,,,,,,,,0,0,0,0,0,35,35,35,,,,,,,,,,,,,,,,,,,,,,,,,,,,,,,,,,,,,,,,,,,,,,,,,,,,,,,,,,,,,,,,,,,,,,,,,,,,,,,,,,,,,,,,,,,,,,,,,,,,,266.70296654199956,279.4006858270004,,,,,022021,0,2,0,1,0,1,2,0,14,2021_Feb_20_1140,listening_fmri,3.2.4,60.31692793964732,
0,parcelated_audio/22/22_37.ogg,,,,,,,,,0,0,0,0,0,0,0,0,0,0,0,0,,,,,,,,,,,,,0,0,0,0,0,36,36,36,,,,,,,,,,,,,,,,,,,,,,,,,,,,,,,,,,,,,,,,,,,,,,,,,,,,,,,,,,,,,,,,,,,,,,,,,,,,,,,,,,,,,,,,,,,,,,,,,,,,,279.40097112500007,286.5867469929999,,,,,022021,0,2,0,1,0,1,2,0,14,2021_Feb_20_1140,listening_fmri,3.2.4,60.31692793964732,
0,,,,,,,,,,0,0,0,0,0,0,0,0,0,0,0,0,,,,,,,,,,,,,0,0,0,0,,,,,,,,,,,,,,,,,,,,,,,,,,,,,,,,,,,,,,,,,,,,,,,,,,,,,,,,,,,,,,,,,,,,,,,,,,,,,,,,,,,,,,,,,,,,,,,,,,,,,,,,,,,,,,,022021,0,2,0,1,0,1,2,0,14,2021_Feb_20_1140,listening_fmri,3.2.4,60.31692793964732,
0,,,,,,,,,,0,0,0,0,0,0,0,0,0,0,0,0,,,,,,,,,,,,,,,,,,,,,,,,,,,,,,,,,,,,,,286.58713533800073,292.582998975,344.6650039270007,None,,,,,,,,,,,,,,,,,,,,,,,,,,,,,,,,,,,,,,,,,,,,,,,,,,,,,,,,,,,,,,,,,,,,,,,,,,,,,,,,,,350.6664416809999,None,350.6664416809999,None,022021,0,2,0,1,0,1,2,0,14,2021_Feb_20_1140,listening_fmri,3.2.4,60.31692793964732,
0,,,,,,,,,,0,0,0,0,0,0,0,0,,,,,,,,,,,,,,,,,,,,,,,,,,,,,,,,,,,,,,,,,,,,,,,,,,,,,,,,,,,,,,,,,,,,,,,,,,,,,,,,,,,,,,,,,,,,,,,,,,,,,,,,,,,,,,,,,,,,,,,,,,,,,,,,,,,022021,0,2,0,1,0,1,2,0,14,2021_Feb_20_1140,listening_fmri,3.2.4,60.31692793964732,
1,parcelated_audio/24/24_1.ogg,,,,,,,,,0,0,0,0,0,1,1,1,0,0,0,0,,,,,,,,,,,,,0,0,0,0,0,0,0,0,,,,,,,,,,,,,,,,,,,,,,351.6816084309994,None,351.6816084309994,None,6,0.5966468329988857,351.6816084309994,None,351.6816084309994,None,,,,,,,,,,,,,,,,,,,,,,,,,,,,,,,,,,,,,,,,,,,,,,,,,,,,,,,,,,,,,,352.3004023100002,None,6,0.8537160209998547,352.3004023100002,None,295.1080155340005,298.1160268420008,298.1226528349998,308.54042231899984,,,,,022021,0,2,0,1,0,1,2,0,14,2021_Feb_20_1140,listening_fmri,3.2.4,60.31692793964732,
1,parcelated_audio/24/24_2.ogg,,,,,,,,,0,0,0,0,0,1,1,1,0,0,0,0,,,,,,,,,,,,,0,0,0,0,0,1,1,1,,,,,,,,,,,,,,,,,,,,,,,,,,,,,,,,,,,,,,,,,,,,,,,,,,,,,,,,,,,,,,,,,,,,,,,,,,,,,,,,,,,,,,,,,,,,,,,,,,,,,308.54075472000113,314.85499381200134,,,,,022021,0,2,0,1,0,1,2,0,14,2021_Feb_20_1140,listening_fmri,3.2.4,60.31692793964732,
1,parcelated_audio/24/24_3.ogg,,,,,,,,,0,0,0,0,0,1,1,1,0,0,0,0,,,,,,,,,,,,,0,0,0,0,0,2,2,2,,,,,,,,,,,,,,,,,,,,,,,,,,,,,,,,,,,,,,,,,,,,,,,,,,,,,,,,,,,,,,,,,,,,,,,,,,,,,,,,,,,,,,,,,,,,,,,,,,,,,314.8559259470003,326.442835834001,,,,,022021,0,2,0,1,0,1,2,0,14,2021_Feb_20_1140,listening_fmri,3.2.4,60.31692793964732,
1,parcelated_audio/24/24_4.ogg,,,,,,,,,0,0,0,0,0,1,1,1,0,0,0,0,,,,,,,,,,,,,0,0,0,0,0,3,3,3,,,,,,,,,,,,,,,,,,,,,,,,,,,,,,,,,,,,,,,,,,,,,,,,,,,,,,,,,,,,,,,,,,,,,,,,,,,,,,,,,,,,,,,,,,,,,,,,,,,,,326.443168668,333.3457927790005,,,,,022021,0,2,0,1,0,1,2,0,14,2021_Feb_20_1140,listening_fmri,3.2.4,60.31692793964732,
1,parcelated_audio/24/24_5.ogg,,,,,,,,,0,0,0,0,0,1,1,1,0,0,0,0,,,,,,,,,,,,,0,0,0,0,0,4,4,4,,,,,,,,,,,,,,,,,,,,,,,,,,,,,,,,,,,,,,,,,,,,,,,,,,,,,,,,,,,,,,,,,,,,,,,,,,,,,,,,,,,,,,,,,,,,,,,,,,,,,333.3460627579989,338.3152912730002,,,,,022021,0,2,0,1,0,1,2,0,14,2021_Feb_20_1140,listening_fmri,3.2.4,60.31692793964732,
1,parcelated_audio/24/24_6.ogg,,,,,,,,,0,0,0,0,0,1,1,1,0,0,0,0,,,,,,,,,,,,,0,0,0,0,0,5,5,5,,,,,,,,,,,,,,,,,,,,,,,,,,,,,,,,,,,,,,,,,,,,,,,,,,,,,,,,,,,,,,,,,,,,,,,,,,,,,,,,,,,,,,,,,,,,,,,,,,,,,338.3157165849989,345.7736611799992,,,,,022021,0,2,0,1,0,1,2,0,14,2021_Feb_20_1140,listening_fmri,3.2.4,60.31692793964732,
1,parcelated_audio/24/24_7.ogg,,,,,,,,,0,0,0,0,0,1,1,1,0,0,0,0,,,,,,,,,,,,,0,0,0,0,0,6,6,6,,,,,,,,,,,,,,,,,,,,,,,,,,,,,,,,,,,,,,,,,,,,,,,,,,,,,,,,,,,,,,,,,,,,,,,,,,,,,,,,,,,,,,,,,,,,,,,,,,,,,345.7739359879997,350.1637194399991,,,,,022021,0,2,0,1,0,1,2,0,14,2021_Feb_20_1140,listening_fmri,3.2.4,60.31692793964732,
1,parcelated_audio/24/24_8.ogg,,,,,,,,,0,0,0,0,0,1,1,1,0,0,0,0,,,,,,,,,,,,,0,0,0,0,0,7,7,7,,,,,,,,,,,,,,,,,,,,,,,,,,,,,,,,,,,,,,,,,,,,,,,,,,,,,,,,,,,,,,,,,,,,,,,,,,,,,,,,,,,,,,,,,,,,,,,,,,,,,350.1640721590011,356.2161998390002,,,,,022021,0,2,0,1,0,1,2,0,14,2021_Feb_20_1140,listening_fmri,3.2.4,60.31692793964732,
1,parcelated_audio/24/24_9.ogg,,,,,,,,,0,0,0,0,0,1,1,1,0,0,0,0,,,,,,,,,,,,,0,0,0,0,0,8,8,8,,,,,,,,,,,,,,,,,,,,,,,,,,,,,,,,,,,,,,,,,,,,,,,,,,,,,,,,,,,,,,,,,,,,,,,,,,,,,,,,,,,,,,,,,,,,,,,,,,,,,356.21645462499873,360.5466239890011,,,,,022021,0,2,0,1,0,1,2,0,14,2021_Feb_20_1140,listening_fmri,3.2.4,60.31692793964732,
1,parcelated_audio/24/24_10.ogg,,,,,,,,,0,0,0,0,0,1,1,1,0,0,0,0,,,,,,,,,,,,,0,0,0,0,0,9,9,9,,,,,,,,,,,,,,,,,,,,,,,,,,,,,,,,,,,,,,,,,,,,,,,,,,,,,,,,,,,,,,,,,,,,,,,,,,,,,,,,,,,,,,,,,,,,,,,,,,,,,360.54722472199865,364.28028862499923,,,,,022021,0,2,0,1,0,1,2,0,14,2021_Feb_20_1140,listening_fmri,3.2.4,60.31692793964732,
1,parcelated_audio/24/24_11.ogg,,,,,,,,,0,0,0,0,0,1,1,1,0,0,0,0,,,,,,,,,,,,,0,0,0,0,0,10,10,10,,,,,,,,,,,,,,,,,,,,,,,,,,,,,,,,,,,,,,,,,,,,,,,,,,,,,,,,,,,,,,,,,,,,,,,,,,,,,,,,,,,,,,,,,,,,,,,,,,,,,364.28089187799924,374.4991058279993,,,,,022021,0,2,0,1,0,1,2,0,14,2021_Feb_20_1140,listening_fmri,3.2.4,60.31692793964732,
1,parcelated_audio/24/24_12.ogg,,,,,,,,,0,0,0,0,0,1,1,1,0,0,0,0,,,,,,,,,,,,,0,0,0,0,0,11,11,11,,,,,,,,,,,,,,,,,,,,,,,,,,,,,,,,,,,,,,,,,,,,,,,,,,,,,,,,,,,,,,,,,,,,,,,,,,,,,,,,,,,,,,,,,,,,,,,,,,,,,374.499449586001,383.5765471980012,,,,,022021,0,2,0,1,0,1,2,0,14,2021_Feb_20_1140,listening_fmri,3.2.4,60.31692793964732,
1,parcelated_audio/24/24_13.ogg,,,,,,,,,0,0,0,0,0,1,1,1,0,0,0,0,,,,,,,,,,,,,0,0,0,0,0,12,12,12,,,,,,,,,,,,,,,,,,,,,,,,,,,,,,,,,,,,,,,,,,,,,,,,,,,,,,,,,,,,,,,,,,,,,,,,,,,,,,,,,,,,,,,,,,,,,,,,,,,,,383.576821603001,387.54385273500156,,,,,022021,0,2,0,1,0,1,2,0,14,2021_Feb_20_1140,listening_fmri,3.2.4,60.31692793964732,
1,parcelated_audio/24/24_14.ogg,,,,,,,,,0,0,0,0,0,1,1,1,0,0,0,0,,,,,,,,,,,,,0,0,0,0,0,13,13,13,,,,,,,,,,,,,,,,,,,,,,,,,,,,,,,,,,,,,,,,,,,,,,,,,,,,,,,,,,,,,,,,,,,,,,,,,,,,,,,,,,,,,,,,,,,,,,,,,,,,,387.5445742010015,394.9262893510022,,,,,022021,0,2,0,1,0,1,2,0,14,2021_Feb_20_1140,listening_fmri,3.2.4,60.31692793964732,
1,parcelated_audio/24/24_15.ogg,,,,,,,,,0,0,0,0,0,1,1,1,0,0,0,0,,,,,,,,,,,,,0,0,0,0,0,14,14,14,,,,,,,,,,,,,,,,,,,,,,,,,,,,,,,,,,,,,,,,,,,,,,,,,,,,,,,,,,,,,,,,,,,,,,,,,,,,,,,,,,,,,,,,,,,,,,,,,,,,,394.9266109820019,401.46447253000224,,,,,022021,0,2,0,1,0,1,2,0,14,2021_Feb_20_1140,listening_fmri,3.2.4,60.31692793964732,
1,parcelated_audio/24/24_16.ogg,,,,,,,,,0,0,0,0,0,1,1,1,0,0,0,0,,,,,,,,,,,,,0,0,0,0,0,15,15,15,,,,,,,,,,,,,,,,,,,,,,,,,,,,,,,,,,,,,,,,,,,,,,,,,,,,,,,,,,,,,,,,,,,,,,,,,,,,,,,,,,,,,,,,,,,,,,,,,,,,,401.4647619089992,408.63555708900094,,,,,022021,0,2,0,1,0,1,2,0,14,2021_Feb_20_1140,listening_fmri,3.2.4,60.31692793964732,
1,parcelated_audio/24/24_17.ogg,,,,,,,,,0,0,0,0,0,1,1,1,0,0,0,0,,,,,,,,,,,,,0,0,0,0,0,16,16,16,,,,,,,,,,,,,,,,,,,,,,,,,,,,,,,,,,,,,,,,,,,,,,,,,,,,,,,,,,,,,,,,,,,,,,,,,,,,,,,,,,,,,,,,,,,,,,,,,,,,,408.63590663500145,414.6286825579991,,,,,022021,0,2,0,1,0,1,2,0,14,2021_Feb_20_1140,listening_fmri,3.2.4,60.31692793964732,
1,parcelated_audio/24/24_18.ogg,,,,,,,,,0,0,0,0,0,1,1,1,0,0,0,0,,,,,,,,,,,,,0,0,0,0,0,17,17,17,,,,,,,,,,,,,,,,,,,,,,,,,,,,,,,,,,,,,,,,,,,,,,,,,,,,,,,,,,,,,,,,,,,,,,,,,,,,,,,,,,,,,,,,,,,,,,,,,,,,,414.6290345390007,423.0837735269997,,,,,022021,0,2,0,1,0,1,2,0,14,2021_Feb_20_1140,listening_fmri,3.2.4,60.31692793964732,
1,parcelated_audio/24/24_19.ogg,,,,,,,,,0,0,0,0,0,1,1,1,0,0,0,0,,,,,,,,,,,,,0,0,0,0,0,18,18,18,,,,,,,,,,,,,,,,,,,,,,,,,,,,,,,,,,,,,,,,,,,,,,,,,,,,,,,,,,,,,,,,,,,,,,,,,,,,,,,,,,,,,,,,,,,,,,,,,,,,,423.0842890040003,432.73406360300214,,,,,022021,0,2,0,1,0,1,2,0,14,2021_Feb_20_1140,listening_fmri,3.2.4,60.31692793964732,
1,parcelated_audio/24/24_20.ogg,,,,,,,,,0,0,0,0,0,1,1,1,0,0,0,0,,,,,,,,,,,,,0,0,0,0,0,19,19,19,,,,,,,,,,,,,,,,,,,,,,,,,,,,,,,,,,,,,,,,,,,,,,,,,,,,,,,,,,,,,,,,,,,,,,,,,,,,,,,,,,,,,,,,,,,,,,,,,,,,,432.73441924000144,437.2328733430004,,,,,022021,0,2,0,1,0,1,2,0,14,2021_Feb_20_1140,listening_fmri,3.2.4,60.31692793964732,
1,parcelated_audio/24/24_21.ogg,,,,,,,,,0,0,0,0,0,1,1,1,0,0,0,0,,,,,,,,,,,,,0,0,0,0,0,20,20,20,,,,,,,,,,,,,,,,,,,,,,,,,,,,,,,,,,,,,,,,,,,,,,,,,,,,,,,,,,,,,,,,,,,,,,,,,,,,,,,,,,,,,,,,,,,,,,,,,,,,,437.23323499899925,445.249757698999,,,,,022021,0,2,0,1,0,1,2,0,14,2021_Feb_20_1140,listening_fmri,3.2.4,60.31692793964732,
1,parcelated_audio/24/24_22.ogg,,,,,,,,,0,0,0,0,0,1,1,1,0,0,0,0,,,,,,,,,,,,,0,0,0,0,0,21,21,21,,,,,,,,,,,,,,,,,,,,,,,,,,,,,,,,,,,,,,,,,,,,,,,,,,,,,,,,,,,,,,,,,,,,,,,,,,,,,,,,,,,,,,,,,,,,,,,,,,,,,445.2501787620022,455.8440973479992,,,,,022021,0,2,0,1,0,1,2,0,14,2021_Feb_20_1140,listening_fmri,3.2.4,60.31692793964732,
1,parcelated_audio/24/24_23.ogg,,,,,,,,,0,0,0,0,0,1,1,1,0,0,0,0,,,,,,,,,,,,,0,0,0,0,0,22,22,22,,,,,,,,,,,,,,,,,,,,,,,,,,,,,,,,,,,,,,,,,,,,,,,,,,,,,,,,,,,,,,,,,,,,,,,,,,,,,,,,,,,,,,,,,,,,,,,,,,,,,455.8443998219991,466.044961642001,,,,,022021,0,2,0,1,0,1,2,0,14,2021_Feb_20_1140,listening_fmri,3.2.4,60.31692793964732,
1,parcelated_audio/24/24_24.ogg,,,,,,,,,0,0,0,0,0,1,1,1,0,0,0,0,,,,,,,,,,,,,0,0,0,0,0,23,23,23,,,,,,,,,,,,,,,,,,,,,,,,,,,,,,,,,,,,,,,,,,,,,,,,,,,,,,,,,,,,,,,,,,,,,,,,,,,,,,,,,,,,,,,,,,,,,,,,,,,,,466.04541757100014,472.6167551660001,,,,,022021,0,2,0,1,0,1,2,0,14,2021_Feb_20_1140,listening_fmri,3.2.4,60.31692793964732,
1,parcelated_audio/24/24_25.ogg,,,,,,,,,0,0,0,0,0,1,1,1,0,0,0,0,,,,,,,,,,,,,0,0,0,0,0,24,24,24,,,,,,,,,,,,,,,,,,,,,,,,,,,,,,,,,,,,,,,,,,,,,,,,,,,,,,,,,,,,,,,,,,,,,,,,,,,,,,,,,,,,,,,,,,,,,,,,,,,,,472.61710441499963,481.36208800700115,,,,,022021,0,2,0,1,0,1,2,0,14,2021_Feb_20_1140,listening_fmri,3.2.4,60.31692793964732,
1,parcelated_audio/24/24_26.ogg,,,,,,,,,0,0,0,0,0,1,1,1,0,0,0,0,,,,,,,,,,,,,0,0,0,0,0,25,25,25,,,,,,,,,,,,,,,,,,,,,,,,,,,,,,,,,,,,,,,,,,,,,,,,,,,,,,,,,,,,,,,,,,,,,,,,,,,,,,,,,,,,,,,,,,,,,,,,,,,,,481.3624466680012,487.93194538900207,,,,,022021,0,2,0,1,0,1,2,0,14,2021_Feb_20_1140,listening_fmri,3.2.4,60.31692793964732,
1,parcelated_audio/24/24_27.ogg,,,,,,,,,0,0,0,0,0,1,1,1,0,0,0,0,,,,,,,,,,,,,0,0,0,0,0,26,26,26,,,,,,,,,,,,,,,,,,,,,,,,,,,,,,,,,,,,,,,,,,,,,,,,,,,,,,,,,,,,,,,,,,,,,,,,,,,,,,,,,,,,,,,,,,,,,,,,,,,,,487.932361236999,494.0141534020004,,,,,022021,0,2,0,1,0,1,2,0,14,2021_Feb_20_1140,listening_fmri,3.2.4,60.31692793964732,
1,parcelated_audio/24/24_28.ogg,,,,,,,,,0,0,0,0,0,1,1,1,0,0,0,0,,,,,,,,,,,,,0,0,0,0,0,27,27,27,,,,,,,,,,,,,,,,,,,,,,,,,,,,,,,,,,,,,,,,,,,,,,,,,,,,,,,,,,,,,,,,,,,,,,,,,,,,,,,,,,,,,,,,,,,,,,,,,,,,,494.01448010400054,498.5078010569996,,,,,022021,0,2,0,1,0,1,2,0,14,2021_Feb_20_1140,listening_fmri,3.2.4,60.31692793964732,
1,parcelated_audio/24/24_29.ogg,,,,,,,,,0,0,0,0,0,1,1,1,0,0,0,0,,,,,,,,,,,,,0,0,0,0,0,28,28,28,,,,,,,,,,,,,,,,,,,,,,,,,,,,,,,,,,,,,,,,,,,,,,,,,,,,,,,,,,,,,,,,,,,,,,,,,,,,,,,,,,,,,,,,,,,,,,,,,,,,,498.5091264090006,504.8059680260012,,,,,022021,0,2,0,1,0,1,2,0,14,2021_Feb_20_1140,listening_fmri,3.2.4,60.31692793964732,
1,parcelated_audio/24/24_30.ogg,,,,,,,,,0,0,0,0,0,1,1,1,0,0,0,0,,,,,,,,,,,,,0,0,0,0,0,29,29,29,,,,,,,,,,,,,,,,,,,,,,,,,,,,,,,,,,,,,,,,,,,,,,,,,,,,,,,,,,,,,,,,,,,,,,,,,,,,,,,,,,,,,,,,,,,,,,,,,,,,,504.80635550700026,511.06600234600046,,,,,022021,0,2,0,1,0,1,2,0,14,2021_Feb_20_1140,listening_fmri,3.2.4,60.31692793964732,
1,parcelated_audio/24/24_31.ogg,,,,,,,,,0,0,0,0,0,1,1,1,0,0,0,0,,,,,,,,,,,,,0,0,0,0,0,30,30,30,,,,,,,,,,,,,,,,,,,,,,,,,,,,,,,,,,,,,,,,,,,,,,,,,,,,,,,,,,,,,,,,,,,,,,,,,,,,,,,,,,,,,,,,,,,,,,,,,,,,,511.06628030499996,517.7345207750004,,,,,022021,0,2,0,1,0,1,2,0,14,2021_Feb_20_1140,listening_fmri,3.2.4,60.31692793964732,
1,parcelated_audio/24/24_32.ogg,,,,,,,,,0,0,0,0,0,1,1,1,0,0,0,0,,,,,,,,,,,,,0,0,0,0,0,31,31,31,,,,,,,,,,,,,,,,,,,,,,,,,,,,,,,,,,,,,,,,,,,,,,,,,,,,,,,,,,,,,,,,,,,,,,,,,,,,,,,,,,,,,,,,,,,,,,,,,,,,,517.7350152430008,528.5262021669987,,,,,022021,0,2,0,1,0,1,2,0,14,2021_Feb_20_1140,listening_fmri,3.2.4,60.31692793964732,
1,,,,,,,,,,0,0,0,0,0,1,1,1,0,0,0,0,,,,,,,,,,,,,0,0,0,0,,,,,,,,,,,,,,,,,,,,,,,,,,,,,,,,,,,,,,,,,,,,,,,,,,,,,,,,,,,,,,,,,,,,,,,,,,,,,,,,,,,,,,,,,,,,,,,,,,,,,,,,,,,,,,,022021,0,2,0,1,0,1,2,0,14,2021_Feb_20_1140,listening_fmri,3.2.4,60.31692793964732,
,,,,,,,,,,,,,,,,,,,,,,,,,,,,,,,,,,,,,,,,,,,,,,,,,,,,,,,,,,,528.5267163509998,534.5278700820018,586.6003525120013,None,,,,,,,,,,,,,,,,,,,,,,,,,,,,,,,,,,,,,,,,,,,,,,,,,,,,,,,,,,,,,,,,,,,,,,,,,,,,,,,,,,592.6116102280012,None,592.6116102280012,None,,,,,,,,,,,,,,,
﻿count,audio,trials_14.thisRepN,trials_14.thisTrialN,trials_14.thisN,trials_14.thisIndex,trials_3.thisRepN,trials_3.thisTrialN,trials_3.thisN,trials_3.thisIndex,trials_4.thisRepN,trials_4.thisTrialN,trials_4.thisN,trials_4.thisIndex,trials_6.thisRepN,trials_6.thisTrialN,trials_6.thisN,trials_6.thisIndex,trials_9.thisRepN,trials_9.thisTrialN,trials_9.thisN,trials_9.thisIndex,trials_10.thisRepN,trials_10.thisTrialN,trials_10.thisN,trials_10.thisIndex,trials_11.thisRepN,trials_11.thisTrialN,trials_11.thisN,trials_11.thisIndex,trials_12.thisRepN,trials_12.thisTrialN,trials_12.thisN,trials_12.thisIndex,trials_25.thisRepN,trials_25.thisTrialN,trials_25.thisN,trials_25.thisIndex,trials_15.thisRepN,trials_15.thisTrialN,trials_15.thisN,trials_15.thisIndex,trials_26.thisRepN,trials_26.thisTrialN,trials_26.thisN,trials_26.thisIndex,story_list_block2,action_list_block2,textTrigger.started,textTrigger.stopped,getTrigger.keys,getTrigger.rt,getTrigger.started,getTrigger.stopped,triggerTime,text_76.started,text_76.stopped,text_77.started,text_77.stopped,startWait,endWait,image_23.started,image_23.stopped,text_55.started,text_55.stopped,text_56.started,text_56.stopped,key_resp_2.keys,key_resp_2.rt,key_resp_2.started,key_resp_2.stopped,text_82.started,text_82.stopped,text_57.started,text_57.stopped,key_resp_17.keys,key_resp_17.rt,key_resp_17.started,key_resp_17.stopped,text_83.started,text_83.stopped,text_60.started,text_60.stopped,image_2.started,image_2.stopped,text_58.started,text_58.stopped,key_resp_23.keys,key_resp_23.rt,key_resp_23.started,key_resp_23.stopped,text_62.started,text_62.stopped,key_resp_18.keys,key_resp_18.rt,key_resp_18.started,key_resp_18.stopped,text_84.started,text_84.stopped,question1_2.started,question1_2.stopped,question2_2.started,question2_2.stopped,question3_2.started,question3_2.stopped,question4_2.started,question4_2.stopped,question5_2.started,question5_2.stopped,question6_2.started,question6_2.stopped,image_15.started,image_15.stopped,key_resp.keys,key_resp.started,key_resp.stopped,text_59.started,text_59.stopped,key_resp_19.keys,key_resp_19.rt,key_resp_19.started,key_resp_19.stopped,text_85.started,text_85.stopped,text_61.started,text_61.stopped,image_17.started,image_17.stopped,text_63.started,text_63.stopped,key_resp_24.keys,key_resp_24.rt,key_resp_24.started,key_resp_24.stopped,text_64.started,text_64.stopped,key_resp_20.keys,key_resp_20.rt,key_resp_20.started,key_resp_20.stopped,storyImage_StartTime,storyImage_EndTime,clip_StartTime,clip_EndTime,text_67.started,text_67.stopped,text_68.started,text_68.stopped,participant,sA,sB,lA,lB,block_struct,play_stories,block,behavioral,random_seed,date,expName,psychopyVersion,frameRate,
0,,,,,,,,,,0,0,0,0,0,0,0,0,0,0,0,0,0,0,0,0,0,0,0,0,,,,,,,,,,,,,,,,,[22 24 13 42 44 31 33 11],[2 4 1 2 4 3 1 3],28.2491166180007,None,equal,29.802007185000548,28.2491166180007,None,29.841718018000392,28.2491166180007,None,28.2491166180007,None,0.0004646819998015417,5.998906052000166,58.08370945800016,None,64.08430769200095,None,64.08430769200095,None,6,0.7619671180000296,64.08430769200095,None,64.08430769200095,None,64.86686000500049,None,6,0.6754009719988971,64.86686000500049,None,64.86686000500049,None,65.59938176899959,None,65.59938176899959,None,65.59938176899959,None,6,0.9968899149989738,65.59938176899959,None,66.61606361899976,None,6,0.8020430659998965,66.61606361899976,None,66.61606361899976,None,67.53301227600059,None,67.53301227600059,None,67.53301227600059,None,67.53301227600059,None,67.53301227600059,None,67.53301227600059,None,67.53301227600059,None,None,67.53301227600059,None,,,,,,,,,,,,,,,,,,,,,,,,,,,,,,,,,022021,0,2,0,1,0,1,2,0,14,2021_Feb_20_1140,listening_fmri,3.2.4,60.31692793964732,
0,,,,,,,,,,0,0,0,0,0,0,0,0,0,0,0,0,0,0,0,0,,,,,,,,,,,,,,,,,,,,,,,,,,,,,,,,,,,,,,,,,,,,,,,,,,,,,,,,,,,,,,,,,,,,,,,,,,,,,,,,,,,,,,,,,,,82.9834430610008,None,6,0.5268183869993663,82.9834430610008,None,82.9834430610008,None,83.54965792800067,None,83.54965792800067,None,83.54965792800067,None,6,0.47860213899912196,83.54965792800067,None,,,,,,,,,,,,,,,022021,0,2,0,1,0,1,2,0,14,2021_Feb_20_1140,listening_fmri,3.2.4,60.31692793964732,
0,parcelated_audio/22/22_1.ogg,,,,,,,,,0,0,0,0,0,0,0,0,0,0,0,0,,,,,,,,,,,,,0,0,0,0,0,0,0,0,,,,,,,,,,,,,,,,,,,,,,,,,,,,,,,,,,,,,,,,,,,,,,,,,,,,,,,,,,,,,,,,,,,,,,,,,,,,,,,,,,,,,,,,,,,,,84.05034082800012,None,6,0.31090197500088834,84.05034082800012,None,26.30706482700043,29.316041822999978,29.323060761000306,42.39251779299957,,,,,022021,0,2,0,1,0,1,2,0,14,2021_Feb_20_1140,listening_fmri,3.2.4,60.31692793964732,
0,parcelated_audio/22/22_2.ogg,,,,,,,,,0,0,0,0,0,0,0,0,0,0,0,0,,,,,,,,,,,,,0,0,0,0,0,1,1,1,,,,,,,,,,,,,,,,,,,,,,,,,,,,,,,,,,,,,,,,,,,,,,,,,,,,,,,,,,,,,,,,,,,,,,,,,,,,,,,,,,,,,,,,,,,,,,,,,,,,,42.39334233699992,48.777532611000424,,,,,022021,0,2,0,1,0,1,2,0,14,2021_Feb_20_1140,listening_fmri,3.2.4,60.31692793964732,
0,parcelated_audio/22/22_3.ogg,,,,,,,,,0,0,0,0,0,0,0,0,0,0,0,0,,,,,,,,,,,,,0,0,0,0,0,2,2,2,,,,,,,,,,,,,,,,,,,,,,,,,,,,,,,,,,,,,,,,,,,,,,,,,,,,,,,,,,,,,,,,,,,,,,,,,,,,,,,,,,,,,,,,,,,,,,,,,,,,,48.77784492700084,61.6918106789999,,,,,022021,0,2,0,1,0,1,2,0,14,2021_Feb_20_1140,listening_fmri,3.2.4,60.31692793964732,
0,parcelated_audio/22/22_4.ogg,,,,,,,,,0,0,0,0,0,0,0,0,0,0,0,0,,,,,,,,,,,,,0,0,0,0,0,3,3,3,,,,,,,,,,,,,,,,,,,,,,,,,,,,,,,,,,,,,,,,,,,,,,,,,,,,,,,,,,,,,,,,,,,,,,,,,,,,,,,,,,,,,,,,,,,,,,,,,,,,,61.69216529500045,74.10973358900083,,,,,022021,0,2,0,1,0,1,2,0,14,2021_Feb_20_1140,listening_fmri,3.2.4,60.31692793964732,
0,parcelated_audio/22/22_5.ogg,,,,,,,,,0,0,0,0,0,0,0,0,0,0,0,0,,,,,,,,,,,,,0,0,0,0,0,4,4,4,,,,,,,,,,,,,,,,,,,,,,,,,,,,,,,,,,,,,,,,,,,,,,,,,,,,,,,,,,,,,,,,,,,,,,,,,,,,,,,,,,,,,,,,,,,,,,,,,,,,,74.11009880799975,80.04331822099994,,,,,022021,0,2,0,1,0,1,2,0,14,2021_Feb_20_1140,listening_fmri,3.2.4,60.31692793964732,
0,parcelated_audio/22/22_6.ogg,,,,,,,,,0,0,0,0,0,0,0,0,0,0,0,0,,,,,,,,,,,,,0,0,0,0,0,5,5,5,,,,,,,,,,,,,,,,,,,,,,,,,,,,,,,,,,,,,,,,,,,,,,,,,,,,,,,,,,,,,,,,,,,,,,,,,,,,,,,,,,,,,,,,,,,,,,,,,,,,,80.04374557099982,89.2486753789999,,,,,022021,0,2,0,1,0,1,2,0,14,2021_Feb_20_1140,listening_fmri,3.2.4,60.31692793964732,
0,parcelated_audio/22/22_7.ogg,,,,,,,,,0,0,0,0,0,0,0,0,0,0,0,0,,,,,,,,,,,,,0,0,0,0,0,6,6,6,,,,,,,,,,,,,,,,,,,,,,,,,,,,,,,,,,,,,,,,,,,,,,,,,,,,,,,,,,,,,,,,,,,,,,,,,,,,,,,,,,,,,,,,,,,,,,,,,,,,,89.24902066300092,94.23544515100002,,,,,022021,0,2,0,1,0,1,2,0,14,2021_Feb_20_1140,listening_fmri,3.2.4,60.31692793964732,
0,parcelated_audio/22/22_8.ogg,,,,,,,,,0,0,0,0,0,0,0,0,0,0,0,0,,,,,,,,,,,,,0,0,0,0,0,7,7,7,,,,,,,,,,,,,,,,,,,,,,,,,,,,,,,,,,,,,,,,,,,,,,,,,,,,,,,,,,,,,,,,,,,,,,,,,,,,,,,,,,,,,,,,,,,,,,,,,,,,,94.23574923900014,97.76375726100014,,,,,022021,0,2,0,1,0,1,2,0,14,2021_Feb_20_1140,listening_fmri,3.2.4,60.31692793964732,
0,parcelated_audio/22/22_9.ogg,,,,,,,,,0,0,0,0,0,0,0,0,0,0,0,0,,,,,,,,,,,,,0,0,0,0,0,8,8,8,,,,,,,,,,,,,,,,,,,,,,,,,,,,,,,,,,,,,,,,,,,,,,,,,,,,,,,,,,,,,,,,,,,,,,,,,,,,,,,,,,,,,,,,,,,,,,,,,,,,,97.76411782600007,101.65387993600052,,,,,022021,0,2,0,1,0,1,2,0,14,2021_Feb_20_1140,listening_fmri,3.2.4,60.31692793964732,
0,parcelated_audio/22/22_10.ogg,,,,,,,,,0,0,0,0,0,0,0,0,0,0,0,0,,,,,,,,,,,,,0,0,0,0,0,9,9,9,,,,,,,,,,,,,,,,,,,,,,,,,,,,,,,,,,,,,,,,,,,,,,,,,,,,,,,,,,,,,,,,,,,,,,,,,,,,,,,,,,,,,,,,,,,,,,,,,,,,,101.65430897100123,106.42378885200014,,,,,022021,0,2,0,1,0,1,2,0,14,2021_Feb_20_1140,listening_fmri,3.2.4,60.31692793964732,
0,parcelated_audio/22/22_11.ogg,,,,,,,,,0,0,0,0,0,0,0,0,0,0,0,0,,,,,,,,,,,,,0,0,0,0,0,10,10,10,,,,,,,,,,,,,,,,,,,,,,,,,,,,,,,,,,,,,,,,,,,,,,,,,,,,,,,,,,,,,,,,,,,,,,,,,,,,,,,,,,,,,,,,,,,,,,,,,,,,,106.42414097500114,113.7024378620008,,,,,022021,0,2,0,1,0,1,2,0,14,2021_Feb_20_1140,listening_fmri,3.2.4,60.31692793964732,
0,parcelated_audio/22/22_12.ogg,,,,,,,,,0,0,0,0,0,0,0,0,0,0,0,0,,,,,,,,,,,,,0,0,0,0,0,11,11,11,,,,,,,,,,,,,,,,,,,,,,,,,,,,,,,,,,,,,,,,,,,,,,,,,,,,,,,,,,,,,,,,,,,,,,,,,,,,,,,,,,,,,,,,,,,,,,,,,,,,,113.70345325000017,121.4113002310005,,,,,022021,0,2,0,1,0,1,2,0,14,2021_Feb_20_1140,listening_fmri,3.2.4,60.31692793964732,
0,parcelated_audio/22/22_13.ogg,,,,,,,,,0,0,0,0,0,0,0,0,0,0,0,0,,,,,,,,,,,,,0,0,0,0,0,12,12,12,,,,,,,,,,,,,,,,,,,,,,,,,,,,,,,,,,,,,,,,,,,,,,,,,,,,,,,,,,,,,,,,,,,,,,,,,,,,,,,,,,,,,,,,,,,,,,,,,,,,,121.41241249800078,128.6770139979999,,,,,022021,0,2,0,1,0,1,2,0,14,2021_Feb_20_1140,listening_fmri,3.2.4,60.31692793964732,
0,parcelated_audio/22/22_14.ogg,,,,,,,,,0,0,0,0,0,0,0,0,0,0,0,0,,,,,,,,,,,,,0,0,0,0,0,13,13,13,,,,,,,,,,,,,,,,,,,,,,,,,,,,,,,,,,,,,,,,,,,,,,,,,,,,,,,,,,,,,,,,,,,,,,,,,,,,,,,,,,,,,,,,,,,,,,,,,,,,,128.6775261620005,134.29678102599973,,,,,022021,0,2,0,1,0,1,2,0,14,2021_Feb_20_1140,listening_fmri,3.2.4,60.31692793964732,
0,parcelated_audio/22/22_15.ogg,,,,,,,,,0,0,0,0,0,0,0,0,0,0,0,0,,,,,,,,,,,,,0,0,0,0,0,14,14,14,,,,,,,,,,,,,,,,,,,,,,,,,,,,,,,,,,,,,,,,,,,,,,,,,,,,,,,,,,,,,,,,,,,,,,,,,,,,,,,,,,,,,,,,,,,,,,,,,,,,,134.2971366620004,142.06488551000075,,,,,022021,0,2,0,1,0,1,2,0,14,2021_Feb_20_1140,listening_fmri,3.2.4,60.31692793964732,
0,parcelated_audio/22/22_16.ogg,,,,,,,,,0,0,0,0,0,0,0,0,0,0,0,0,,,,,,,,,,,,,0,0,0,0,0,15,15,15,,,,,,,,,,,,,,,,,,,,,,,,,,,,,,,,,,,,,,,,,,,,,,,,,,,,,,,,,,,,,,,,,,,,,,,,,,,,,,,,,,,,,,,,,,,,,,,,,,,,,142.06523564500094,150.83117894800125,,,,,022021,0,2,0,1,0,1,2,0,14,2021_Feb_20_1140,listening_fmri,3.2.4,60.31692793964732,
0,parcelated_audio/22/22_17.ogg,,,,,,,,,0,0,0,0,0,0,0,0,0,0,0,0,,,,,,,,,,,,,0,0,0,0,0,16,16,16,,,,,,,,,,,,,,,,,,,,,,,,,,,,,,,,,,,,,,,,,,,,,,,,,,,,,,,,,,,,,,,,,,,,,,,,,,,,,,,,,,,,,,,,,,,,,,,,,,,,,150.83165418700082,153.98755623200122,,,,,022021,0,2,0,1,0,1,2,0,14,2021_Feb_20_1140,listening_fmri,3.2.4,60.31692793964732,
0,parcelated_audio/22/22_18.ogg,,,,,,,,,0,0,0,0,0,0,0,0,0,0,0,0,,,,,,,,,,,,,0,0,0,0,0,17,17,17,,,,,,,,,,,,,,,,,,,,,,,,,,,,,,,,,,,,,,,,,,,,,,,,,,,,,,,,,,,,,,,,,,,,,,,,,,,,,,,,,,,,,,,,,,,,,,,,,,,,,153.98793198699968,160.72170181500042,,,,,022021,0,2,0,1,0,1,2,0,14,2021_Feb_20_1140,listening_fmri,3.2.4,60.31692793964732,
0,parcelated_audio/22/22_19.ogg,,,,,,,,,0,0,0,0,0,0,0,0,0,0,0,0,,,,,,,,,,,,,0,0,0,0,0,18,18,18,,,,,,,,,,,,,,,,,,,,,,,,,,,,,,,,,,,,,,,,,,,,,,,,,,,,,,,,,,,,,,,,,,,,,,,,,,,,,,,,,,,,,,,,,,,,,,,,,,,,,160.72197679199962,165.68374223300088,,,,,022021,0,2,0,1,0,1,2,0,14,2021_Feb_20_1140,listening_fmri,3.2.4,60.31692793964732,
0,parcelated_audio/22/22_20.ogg,,,,,,,,,0,0,0,0,0,0,0,0,0,0,0,0,,,,,,,,,,,,,0,0,0,0,0,19,19,19,,,,,,,,,,,,,,,,,,,,,,,,,,,,,,,,,,,,,,,,,,,,,,,,,,,,,,,,,,,,,,,,,,,,,,,,,,,,,,,,,,,,,,,,,,,,,,,,,,,,,165.68466999300108,179.78770977800013,,,,,022021,0,2,0,1,0,1,2,0,14,2021_Feb_20_1140,listening_fmri,3.2.4,60.31692793964732,
0,parcelated_audio/22/22_21.ogg,,,,,,,,,0,0,0,0,0,0,0,0,0,0,0,0,,,,,,,,,,,,,0,0,0,0,0,20,20,20,,,,,,,,,,,,,,,,,,,,,,,,,,,,,,,,,,,,,,,,,,,,,,,,,,,,,,,,,,,,,,,,,,,,,,,,,,,,,,,,,,,,,,,,,,,,,,,,,,,,,179.78799685600097,181.7995379109998,,,,,022021,0,2,0,1,0,1,2,0,14,2021_Feb_20_1140,listening_fmri,3.2.4,60.31692793964732,
0,parcelated_audio/22/22_22.ogg,,,,,,,,,0,0,0,0,0,0,0,0,0,0,0,0,,,,,,,,,,,,,0,0,0,0,0,21,21,21,,,,,,,,,,,,,,,,,,,,,,,,,,,,,,,,,,,,,,,,,,,,,,,,,,,,,,,,,,,,,,,,,,,,,,,,,,,,,,,,,,,,,,,,,,,,,,,,,,,,,181.799967070001,184.9476600350008,,,,,022021,0,2,0,1,0,1,2,0,14,2021_Feb_20_1140,listening_fmri,3.2.4,60.31692793964732,
0,parcelated_audio/22/22_23.ogg,,,,,,,,,0,0,0,0,0,0,0,0,0,0,0,0,,,,,,,,,,,,,0,0,0,0,0,22,22,22,,,,,,,,,,,,,,,,,,,,,,,,,,,,,,,,,,,,,,,,,,,,,,,,,,,,,,,,,,,,,,,,,,,,,,,,,,,,,,,,,,,,,,,,,,,,,,,,,,,,,184.94793327600019,191.4807133200011,,,,,022021,0,2,0,1,0,1,2,0,14,2021_Feb_20_1140,listening_fmri,3.2.4,60.31692793964732,
0,parcelated_audio/22/22_24.ogg,,,,,,,,,0,0,0,0,0,0,0,0,0,0,0,0,,,,,,,,,,,,,0,0,0,0,0,23,23,23,,,,,,,,,,,,,,,,,,,,,,,,,,,,,,,,,,,,,,,,,,,,,,,,,,,,,,,,,,,,,,,,,,,,,,,,,,,,,,,,,,,,,,,,,,,,,,,,,,,,,191.48103713599994,197.2089597560007,,,,,022021,0,2,0,1,0,1,2,0,14,2021_Feb_20_1140,listening_fmri,3.2.4,60.31692793964732,
0,parcelated_audio/22/22_25.ogg,,,,,,,,,0,0,0,0,0,0,0,0,0,0,0,0,,,,,,,,,,,,,0,0,0,0,0,24,24,24,,,,,,,,,,,,,,,,,,,,,,,,,,,,,,,,,,,,,,,,,,,,,,,,,,,,,,,,,,,,,,,,,,,,,,,,,,,,,,,,,,,,,,,,,,,,,,,,,,,,,197.20931161500084,209.9069209930003,,,,,022021,0,2,0,1,0,1,2,0,14,2021_Feb_20_1140,listening_fmri,3.2.4,60.31692793964732,
0,parcelated_audio/22/22_26.ogg,,,,,,,,,0,0,0,0,0,0,0,0,0,0,0,0,,,,,,,,,,,,,0,0,0,0,0,25,25,25,,,,,,,,,,,,,,,,,,,,,,,,,,,,,,,,,,,,,,,,,,,,,,,,,,,,,,,,,,,,,,,,,,,,,,,,,,,,,,,,,,,,,,,,,,,,,,,,,,,,,209.90727299300124,216.64500206900084,,,,,022021,0,2,0,1,0,1,2,0,14,2021_Feb_20_1140,listening_fmri,3.2.4,60.31692793964732,
0,parcelated_audio/22/22_27.ogg,,,,,,,,,0,0,0,0,0,0,0,0,0,0,0,0,,,,,,,,,,,,,0,0,0,0,0,26,26,26,,,,,,,,,,,,,,,,,,,,,,,,,,,,,,,,,,,,,,,,,,,,,,,,,,,,,,,,,,,,,,,,,,,,,,,,,,,,,,,,,,,,,,,,,,,,,,,,,,,,,216.64541668099992,221.03254911800104,,,,,022021,0,2,0,1,0,1,2,0,14,2021_Feb_20_1140,listening_fmri,3.2.4,60.31692793964732,
0,parcelated_audio/22/22_28.ogg,,,,,,,,,0,0,0,0,0,0,0,0,0,0,0,0,,,,,,,,,,,,,0,0,0,0,0,27,27,27,,,,,,,,,,,,,,,,,,,,,,,,,,,,,,,,,,,,,,,,,,,,,,,,,,,,,,,,,,,,,,,,,,,,,,,,,,,,,,,,,,,,,,,,,,,,,,,,,,,,,221.0331049260003,226.77939183300077,,,,,022021,0,2,0,1,0,1,2,0,14,2021_Feb_20_1140,listening_fmri,3.2.4,60.31692793964732,
0,parcelated_audio/22/22_29.ogg,,,,,,,,,0,0,0,0,0,0,0,0,0,0,0,0,,,,,,,,,,,,,0,0,0,0,0,28,28,28,,,,,,,,,,,,,,,,,,,,,,,,,,,,,,,,,,,,,,,,,,,,,,,,,,,,,,,,,,,,,,,,,,,,,,,,,,,,,,,,,,,,,,,,,,,,,,,,,,,,,226.77970974600066,232.4900850970007,,,,,022021,0,2,0,1,0,1,2,0,14,2021_Feb_20_1140,listening_fmri,3.2.4,60.31692793964732,
0,parcelated_audio/22/22_30.ogg,,,,,,,,,0,0,0,0,0,0,0,0,0,0,0,0,,,,,,,,,,,,,0,0,0,0,0,29,29,29,,,,,,,,,,,,,,,,,,,,,,,,,,,,,,,,,,,,,,,,,,,,,,,,,,,,,,,,,,,,,,,,,,,,,,,,,,,,,,,,,,,,,,,,,,,,,,,,,,,,,232.49062916000003,235.2227209720004,,,,,022021,0,2,0,1,0,1,2,0,14,2021_Feb_20_1140,listening_fmri,3.2.4,60.31692793964732,
0,parcelated_audio/22/22_31.ogg,,,,,,,,,0,0,0,0,0,0,0,0,0,0,0,0,,,,,,,,,,,,,0,0,0,0,0,30,30,30,,,,,,,,,,,,,,,,,,,,,,,,,,,,,,,,,,,,,,,,,,,,,,,,,,,,,,,,,,,,,,,,,,,,,,,,,,,,,,,,,,,,,,,,,,,,,,,,,,,,,235.22303646799992,240.3848779050004,,,,,022021,0,2,0,1,0,1,2,0,14,2021_Feb_20_1140,listening_fmri,3.2.4,60.31692793964732,
0,parcelated_audio/22/22_32.ogg,,,,,,,,,0,0,0,0,0,0,0,0,0,0,0,0,,,,,,,,,,,,,0,0,0,0,0,31,31,31,,,,,,,,,,,,,,,,,,,,,,,,,,,,,,,,,,,,,,,,,,,,,,,,,,,,,,,,,,,,,,,,,,,,,,,,,,,,,,,,,,,,,,,,,,,,,,,,,,,,,240.38525010600097,246.7114503190005,,,,,022021,0,2,0,1,0,1,2,0,14,2021_Feb_20_1140,listening_fmri,3.2.4,60.31692793964732,
0,parcelated_audio/22/22_33.ogg,,,,,,,,,0,0,0,0,0,0,0,0,0,0,0,0,,,,,,,,,,,,,0,0,0,0,0,32,32,32,,,,,,,,,,,,,,,,,,,,,,,,,,,,,,,,,,,,,,,,,,,,,,,,,,,,,,,,,,,,,,,,,,,,,,,,,,,,,,,,,,,,,,,,,,,,,,,,,,,,,246.71172322200073,251.15566813100122,,,,,022021,0,2,0,1,0,1,2,0,14,2021_Feb_20_1140,listening_fmri,3.2.4,60.31692793964732,
0,parcelated_audio/22/22_34.ogg,,,,,,,,,0,0,0,0,0,0,0,0,0,0,0,0,,,,,,,,,,,,,0,0,0,0,0,33,33,33,,,,,,,,,,,,,,,,,,,,,,,,,,,,,,,,,,,,,,,,,,,,,,,,,,,,,,,,,,,,,,,,,,,,,,,,,,,,,,,,,,,,,,,,,,,,,,,,,,,,,251.15593924400127,259.2017794910007,,,,,022021,0,2,0,1,0,1,2,0,14,2021_Feb_20_1140,listening_fmri,3.2.4,60.31692793964732,
0,parcelated_audio/22/22_35.ogg,,,,,,,,,0,0,0,0,0,0,0,0,0,0,0,0,,,,,,,,,,,,,0,0,0,0,0,34,34,34,,,,,,,,,,,,,,,,,,,,,,,,,,,,,,,,,,,,,,,,,,,,,,,,,,,,,,,,,,,,,,,,,,,,,,,,,,,,,,,,,,,,,,,,,,,,,,,,,,,,,259.2024017870008,266.7026860599999,,,,,022021,0,2,0,1,0,1,2,0,14,2021_Feb_20_1140,listening_fmri,3.2.4,60.31692793964732,
0,parcelated_audio/22/22_36.ogg,,,,,,,,,0,0,0,0,0,0,0,0,0,0,0,0,,,,,,,,,,,,,0,0,0,0,0,35,35,35,,,,,,,,,,,,,,,,,,,,,,,,,,,,,,,,,,,,,,,,,,,,,,,,,,,,,,,,,,,,,,,,,,,,,,,,,,,,,,,,,,,,,,,,,,,,,,,,,,,,,266.70296654199956,279.4006858270004,,,,,022021,0,2,0,1,0,1,2,0,14,2021_Feb_20_1140,listening_fmri,3.2.4,60.31692793964732,
0,parcelated_audio/22/22_37.ogg,,,,,,,,,0,0,0,0,0,0,0,0,0,0,0,0,,,,,,,,,,,,,0,0,0,0,0,36,36,36,,,,,,,,,,,,,,,,,,,,,,,,,,,,,,,,,,,,,,,,,,,,,,,,,,,,,,,,,,,,,,,,,,,,,,,,,,,,,,,,,,,,,,,,,,,,,,,,,,,,,279.40097112500007,286.5867469929999,,,,,022021,0,2,0,1,0,1,2,0,14,2021_Feb_20_1140,listening_fmri,3.2.4,60.31692793964732,
0,,,,,,,,,,0,0,0,0,0,0,0,0,0,0,0,0,,,,,,,,,,,,,0,0,0,0,,,,,,,,,,,,,,,,,,,,,,,,,,,,,,,,,,,,,,,,,,,,,,,,,,,,,,,,,,,,,,,,,,,,,,,,,,,,,,,,,,,,,,,,,,,,,,,,,,,,,,,,,,,,,,,022021,0,2,0,1,0,1,2,0,14,2021_Feb_20_1140,listening_fmri,3.2.4,60.31692793964732,
0,,,,,,,,,,0,0,0,0,0,0,0,0,0,0,0,0,,,,,,,,,,,,,,,,,,,,,,,,,,,,,,,,,,,,,,286.58713533800073,292.582998975,344.6650039270007,None,,,,,,,,,,,,,,,,,,,,,,,,,,,,,,,,,,,,,,,,,,,,,,,,,,,,,,,,,,,,,,,,,,,,,,,,,,,,,,,,,,350.6664416809999,None,350.6664416809999,None,022021,0,2,0,1,0,1,2,0,14,2021_Feb_20_1140,listening_fmri,3.2.4,60.31692793964732,
0,,,,,,,,,,0,0,0,0,0,0,0,0,,,,,,,,,,,,,,,,,,,,,,,,,,,,,,,,,,,,,,,,,,,,,,,,,,,,,,,,,,,,,,,,,,,,,,,,,,,,,,,,,,,,,,,,,,,,,,,,,,,,,,,,,,,,,,,,,,,,,,,,,,,,,,,,,,,022021,0,2,0,1,0,1,2,0,14,2021_Feb_20_1140,listening_fmri,3.2.4,60.31692793964732,
1,parcelated_audio/24/24_1.ogg,,,,,,,,,0,0,0,0,0,1,1,1,0,0,0,0,,,,,,,,,,,,,0,0,0,0,0,0,0,0,,,,,,,,,,,,,,,,,,,,,,351.6816084309994,None,351.6816084309994,None,6,0.5966468329988857,351.6816084309994,None,351.6816084309994,None,,,,,,,,,,,,,,,,,,,,,,,,,,,,,,,,,,,,,,,,,,,,,,,,,,,,,,,,,,,,,,352.3004023100002,None,6,0.8537160209998547,352.3004023100002,None,295.1080155340005,298.1160268420008,298.1226528349998,308.54042231899984,,,,,022021,0,2,0,1,0,1,2,0,14,2021_Feb_20_1140,listening_fmri,3.2.4,60.31692793964732,
1,parcelated_audio/24/24_2.ogg,,,,,,,,,0,0,0,0,0,1,1,1,0,0,0,0,,,,,,,,,,,,,0,0,0,0,0,1,1,1,,,,,,,,,,,,,,,,,,,,,,,,,,,,,,,,,,,,,,,,,,,,,,,,,,,,,,,,,,,,,,,,,,,,,,,,,,,,,,,,,,,,,,,,,,,,,,,,,,,,,308.54075472000113,314.85499381200134,,,,,022021,0,2,0,1,0,1,2,0,14,2021_Feb_20_1140,listening_fmri,3.2.4,60.31692793964732,
1,parcelated_audio/24/24_3.ogg,,,,,,,,,0,0,0,0,0,1,1,1,0,0,0,0,,,,,,,,,,,,,0,0,0,0,0,2,2,2,,,,,,,,,,,,,,,,,,,,,,,,,,,,,,,,,,,,,,,,,,,,,,,,,,,,,,,,,,,,,,,,,,,,,,,,,,,,,,,,,,,,,,,,,,,,,,,,,,,,,314.8559259470003,326.442835834001,,,,,022021,0,2,0,1,0,1,2,0,14,2021_Feb_20_1140,listening_fmri,3.2.4,60.31692793964732,
1,parcelated_audio/24/24_4.ogg,,,,,,,,,0,0,0,0,0,1,1,1,0,0,0,0,,,,,,,,,,,,,0,0,0,0,0,3,3,3,,,,,,,,,,,,,,,,,,,,,,,,,,,,,,,,,,,,,,,,,,,,,,,,,,,,,,,,,,,,,,,,,,,,,,,,,,,,,,,,,,,,,,,,,,,,,,,,,,,,,326.443168668,333.3457927790005,,,,,022021,0,2,0,1,0,1,2,0,14,2021_Feb_20_1140,listening_fmri,3.2.4,60.31692793964732,
1,parcelated_audio/24/24_5.ogg,,,,,,,,,0,0,0,0,0,1,1,1,0,0,0,0,,,,,,,,,,,,,0,0,0,0,0,4,4,4,,,,,,,,,,,,,,,,,,,,,,,,,,,,,,,,,,,,,,,,,,,,,,,,,,,,,,,,,,,,,,,,,,,,,,,,,,,,,,,,,,,,,,,,,,,,,,,,,,,,,333.3460627579989,338.3152912730002,,,,,022021,0,2,0,1,0,1,2,0,14,2021_Feb_20_1140,listening_fmri,3.2.4,60.31692793964732,
1,parcelated_audio/24/24_6.ogg,,,,,,,,,0,0,0,0,0,1,1,1,0,0,0,0,,,,,,,,,,,,,0,0,0,0,0,5,5,5,,,,,,,,,,,,,,,,,,,,,,,,,,,,,,,,,,,,,,,,,,,,,,,,,,,,,,,,,,,,,,,,,,,,,,,,,,,,,,,,,,,,,,,,,,,,,,,,,,,,,338.3157165849989,345.7736611799992,,,,,022021,0,2,0,1,0,1,2,0,14,2021_Feb_20_1140,listening_fmri,3.2.4,60.31692793964732,
1,parcelated_audio/24/24_7.ogg,,,,,,,,,0,0,0,0,0,1,1,1,0,0,0,0,,,,,,,,,,,,,0,0,0,0,0,6,6,6,,,,,,,,,,,,,,,,,,,,,,,,,,,,,,,,,,,,,,,,,,,,,,,,,,,,,,,,,,,,,,,,,,,,,,,,,,,,,,,,,,,,,,,,,,,,,,,,,,,,,345.7739359879997,350.1637194399991,,,,,022021,0,2,0,1,0,1,2,0,14,2021_Feb_20_1140,listening_fmri,3.2.4,60.31692793964732,
1,parcelated_audio/24/24_8.ogg,,,,,,,,,0,0,0,0,0,1,1,1,0,0,0,0,,,,,,,,,,,,,0,0,0,0,0,7,7,7,,,,,,,,,,,,,,,,,,,,,,,,,,,,,,,,,,,,,,,,,,,,,,,,,,,,,,,,,,,,,,,,,,,,,,,,,,,,,,,,,,,,,,,,,,,,,,,,,,,,,350.1640721590011,356.2161998390002,,,,,022021,0,2,0,1,0,1,2,0,14,2021_Feb_20_1140,listening_fmri,3.2.4,60.31692793964732,
1,parcelated_audio/24/24_9.ogg,,,,,,,,,0,0,0,0,0,1,1,1,0,0,0,0,,,,,,,,,,,,,0,0,0,0,0,8,8,8,,,,,,,,,,,,,,,,,,,,,,,,,,,,,,,,,,,,,,,,,,,,,,,,,,,,,,,,,,,,,,,,,,,,,,,,,,,,,,,,,,,,,,,,,,,,,,,,,,,,,356.21645462499873,360.5466239890011,,,,,022021,0,2,0,1,0,1,2,0,14,2021_Feb_20_1140,listening_fmri,3.2.4,60.31692793964732,
1,parcelated_audio/24/24_10.ogg,,,,,,,,,0,0,0,0,0,1,1,1,0,0,0,0,,,,,,,,,,,,,0,0,0,0,0,9,9,9,,,,,,,,,,,,,,,,,,,,,,,,,,,,,,,,,,,,,,,,,,,,,,,,,,,,,,,,,,,,,,,,,,,,,,,,,,,,,,,,,,,,,,,,,,,,,,,,,,,,,360.54722472199865,364.28028862499923,,,,,022021,0,2,0,1,0,1,2,0,14,2021_Feb_20_1140,listening_fmri,3.2.4,60.31692793964732,
1,parcelated_audio/24/24_11.ogg,,,,,,,,,0,0,0,0,0,1,1,1,0,0,0,0,,,,,,,,,,,,,0,0,0,0,0,10,10,10,,,,,,,,,,,,,,,,,,,,,,,,,,,,,,,,,,,,,,,,,,,,,,,,,,,,,,,,,,,,,,,,,,,,,,,,,,,,,,,,,,,,,,,,,,,,,,,,,,,,,364.28089187799924,374.4991058279993,,,,,022021,0,2,0,1,0,1,2,0,14,2021_Feb_20_1140,listening_fmri,3.2.4,60.31692793964732,
1,parcelated_audio/24/24_12.ogg,,,,,,,,,0,0,0,0,0,1,1,1,0,0,0,0,,,,,,,,,,,,,0,0,0,0,0,11,11,11,,,,,,,,,,,,,,,,,,,,,,,,,,,,,,,,,,,,,,,,,,,,,,,,,,,,,,,,,,,,,,,,,,,,,,,,,,,,,,,,,,,,,,,,,,,,,,,,,,,,,374.499449586001,383.5765471980012,,,,,022021,0,2,0,1,0,1,2,0,14,2021_Feb_20_1140,listening_fmri,3.2.4,60.31692793964732,
1,parcelated_audio/24/24_13.ogg,,,,,,,,,0,0,0,0,0,1,1,1,0,0,0,0,,,,,,,,,,,,,0,0,0,0,0,12,12,12,,,,,,,,,,,,,,,,,,,,,,,,,,,,,,,,,,,,,,,,,,,,,,,,,,,,,,,,,,,,,,,,,,,,,,,,,,,,,,,,,,,,,,,,,,,,,,,,,,,,,383.576821603001,387.54385273500156,,,,,022021,0,2,0,1,0,1,2,0,14,2021_Feb_20_1140,listening_fmri,3.2.4,60.31692793964732,
1,parcelated_audio/24/24_14.ogg,,,,,,,,,0,0,0,0,0,1,1,1,0,0,0,0,,,,,,,,,,,,,0,0,0,0,0,13,13,13,,,,,,,,,,,,,,,,,,,,,,,,,,,,,,,,,,,,,,,,,,,,,,,,,,,,,,,,,,,,,,,,,,,,,,,,,,,,,,,,,,,,,,,,,,,,,,,,,,,,,387.5445742010015,394.9262893510022,,,,,022021,0,2,0,1,0,1,2,0,14,2021_Feb_20_1140,listening_fmri,3.2.4,60.31692793964732,
1,parcelated_audio/24/24_15.ogg,,,,,,,,,0,0,0,0,0,1,1,1,0,0,0,0,,,,,,,,,,,,,0,0,0,0,0,14,14,14,,,,,,,,,,,,,,,,,,,,,,,,,,,,,,,,,,,,,,,,,,,,,,,,,,,,,,,,,,,,,,,,,,,,,,,,,,,,,,,,,,,,,,,,,,,,,,,,,,,,,394.9266109820019,401.46447253000224,,,,,022021,0,2,0,1,0,1,2,0,14,2021_Feb_20_1140,listening_fmri,3.2.4,60.31692793964732,
1,parcelated_audio/24/24_16.ogg,,,,,,,,,0,0,0,0,0,1,1,1,0,0,0,0,,,,,,,,,,,,,0,0,0,0,0,15,15,15,,,,,,,,,,,,,,,,,,,,,,,,,,,,,,,,,,,,,,,,,,,,,,,,,,,,,,,,,,,,,,,,,,,,,,,,,,,,,,,,,,,,,,,,,,,,,,,,,,,,,401.4647619089992,408.63555708900094,,,,,022021,0,2,0,1,0,1,2,0,14,2021_Feb_20_1140,listening_fmri,3.2.4,60.31692793964732,
1,parcelated_audio/24/24_17.ogg,,,,,,,,,0,0,0,0,0,1,1,1,0,0,0,0,,,,,,,,,,,,,0,0,0,0,0,16,16,16,,,,,,,,,,,,,,,,,,,,,,,,,,,,,,,,,,,,,,,,,,,,,,,,,,,,,,,,,,,,,,,,,,,,,,,,,,,,,,,,,,,,,,,,,,,,,,,,,,,,,408.63590663500145,414.6286825579991,,,,,022021,0,2,0,1,0,1,2,0,14,2021_Feb_20_1140,listening_fmri,3.2.4,60.31692793964732,
1,parcelated_audio/24/24_18.ogg,,,,,,,,,0,0,0,0,0,1,1,1,0,0,0,0,,,,,,,,,,,,,0,0,0,0,0,17,17,17,,,,,,,,,,,,,,,,,,,,,,,,,,,,,,,,,,,,,,,,,,,,,,,,,,,,,,,,,,,,,,,,,,,,,,,,,,,,,,,,,,,,,,,,,,,,,,,,,,,,,414.6290345390007,423.0837735269997,,,,,022021,0,2,0,1,0,1,2,0,14,2021_Feb_20_1140,listening_fmri,3.2.4,60.31692793964732,
1,parcelated_audio/24/24_19.ogg,,,,,,,,,0,0,0,0,0,1,1,1,0,0,0,0,,,,,,,,,,,,,0,0,0,0,0,18,18,18,,,,,,,,,,,,,,,,,,,,,,,,,,,,,,,,,,,,,,,,,,,,,,,,,,,,,,,,,,,,,,,,,,,,,,,,,,,,,,,,,,,,,,,,,,,,,,,,,,,,,423.0842890040003,432.73406360300214,,,,,022021,0,2,0,1,0,1,2,0,14,2021_Feb_20_1140,listening_fmri,3.2.4,60.31692793964732,
1,parcelated_audio/24/24_20.ogg,,,,,,,,,0,0,0,0,0,1,1,1,0,0,0,0,,,,,,,,,,,,,0,0,0,0,0,19,19,19,,,,,,,,,,,,,,,,,,,,,,,,,,,,,,,,,,,,,,,,,,,,,,,,,,,,,,,,,,,,,,,,,,,,,,,,,,,,,,,,,,,,,,,,,,,,,,,,,,,,,432.73441924000144,437.2328733430004,,,,,022021,0,2,0,1,0,1,2,0,14,2021_Feb_20_1140,listening_fmri,3.2.4,60.31692793964732,
1,parcelated_audio/24/24_21.ogg,,,,,,,,,0,0,0,0,0,1,1,1,0,0,0,0,,,,,,,,,,,,,0,0,0,0,0,20,20,20,,,,,,,,,,,,,,,,,,,,,,,,,,,,,,,,,,,,,,,,,,,,,,,,,,,,,,,,,,,,,,,,,,,,,,,,,,,,,,,,,,,,,,,,,,,,,,,,,,,,,437.23323499899925,445.249757698999,,,,,022021,0,2,0,1,0,1,2,0,14,2021_Feb_20_1140,listening_fmri,3.2.4,60.31692793964732,
1,parcelated_audio/24/24_22.ogg,,,,,,,,,0,0,0,0,0,1,1,1,0,0,0,0,,,,,,,,,,,,,0,0,0,0,0,21,21,21,,,,,,,,,,,,,,,,,,,,,,,,,,,,,,,,,,,,,,,,,,,,,,,,,,,,,,,,,,,,,,,,,,,,,,,,,,,,,,,,,,,,,,,,,,,,,,,,,,,,,445.2501787620022,455.8440973479992,,,,,022021,0,2,0,1,0,1,2,0,14,2021_Feb_20_1140,listening_fmri,3.2.4,60.31692793964732,
1,parcelated_audio/24/24_23.ogg,,,,,,,,,0,0,0,0,0,1,1,1,0,0,0,0,,,,,,,,,,,,,0,0,0,0,0,22,22,22,,,,,,,,,,,,,,,,,,,,,,,,,,,,,,,,,,,,,,,,,,,,,,,,,,,,,,,,,,,,,,,,,,,,,,,,,,,,,,,,,,,,,,,,,,,,,,,,,,,,,455.8443998219991,466.044961642001,,,,,022021,0,2,0,1,0,1,2,0,14,2021_Feb_20_1140,listening_fmri,3.2.4,60.31692793964732,
1,parcelated_audio/24/24_24.ogg,,,,,,,,,0,0,0,0,0,1,1,1,0,0,0,0,,,,,,,,,,,,,0,0,0,0,0,23,23,23,,,,,,,,,,,,,,,,,,,,,,,,,,,,,,,,,,,,,,,,,,,,,,,,,,,,,,,,,,,,,,,,,,,,,,,,,,,,,,,,,,,,,,,,,,,,,,,,,,,,,466.04541757100014,472.6167551660001,,,,,022021,0,2,0,1,0,1,2,0,14,2021_Feb_20_1140,listening_fmri,3.2.4,60.31692793964732,
1,parcelated_audio/24/24_25.ogg,,,,,,,,,0,0,0,0,0,1,1,1,0,0,0,0,,,,,,,,,,,,,0,0,0,0,0,24,24,24,,,,,,,,,,,,,,,,,,,,,,,,,,,,,,,,,,,,,,,,,,,,,,,,,,,,,,,,,,,,,,,,,,,,,,,,,,,,,,,,,,,,,,,,,,,,,,,,,,,,,472.61710441499963,481.36208800700115,,,,,022021,0,2,0,1,0,1,2,0,14,2021_Feb_20_1140,listening_fmri,3.2.4,60.31692793964732,
1,parcelated_audio/24/24_26.ogg,,,,,,,,,0,0,0,0,0,1,1,1,0,0,0,0,,,,,,,,,,,,,0,0,0,0,0,25,25,25,,,,,,,,,,,,,,,,,,,,,,,,,,,,,,,,,,,,,,,,,,,,,,,,,,,,,,,,,,,,,,,,,,,,,,,,,,,,,,,,,,,,,,,,,,,,,,,,,,,,,481.3624466680012,487.93194538900207,,,,,022021,0,2,0,1,0,1,2,0,14,2021_Feb_20_1140,listening_fmri,3.2.4,60.31692793964732,
1,parcelated_audio/24/24_27.ogg,,,,,,,,,0,0,0,0,0,1,1,1,0,0,0,0,,,,,,,,,,,,,0,0,0,0,0,26,26,26,,,,,,,,,,,,,,,,,,,,,,,,,,,,,,,,,,,,,,,,,,,,,,,,,,,,,,,,,,,,,,,,,,,,,,,,,,,,,,,,,,,,,,,,,,,,,,,,,,,,,487.932361236999,494.0141534020004,,,,,022021,0,2,0,1,0,1,2,0,14,2021_Feb_20_1140,listening_fmri,3.2.4,60.31692793964732,
1,parcelated_audio/24/24_28.ogg,,,,,,,,,0,0,0,0,0,1,1,1,0,0,0,0,,,,,,,,,,,,,0,0,0,0,0,27,27,27,,,,,,,,,,,,,,,,,,,,,,,,,,,,,,,,,,,,,,,,,,,,,,,,,,,,,,,,,,,,,,,,,,,,,,,,,,,,,,,,,,,,,,,,,,,,,,,,,,,,,494.01448010400054,498.5078010569996,,,,,022021,0,2,0,1,0,1,2,0,14,2021_Feb_20_1140,listening_fmri,3.2.4,60.31692793964732,
1,parcelated_audio/24/24_29.ogg,,,,,,,,,0,0,0,0,0,1,1,1,0,0,0,0,,,,,,,,,,,,,0,0,0,0,0,28,28,28,,,,,,,,,,,,,,,,,,,,,,,,,,,,,,,,,,,,,,,,,,,,,,,,,,,,,,,,,,,,,,,,,,,,,,,,,,,,,,,,,,,,,,,,,,,,,,,,,,,,,498.5091264090006,504.8059680260012,,,,,022021,0,2,0,1,0,1,2,0,14,2021_Feb_20_1140,listening_fmri,3.2.4,60.31692793964732,
1,parcelated_audio/24/24_30.ogg,,,,,,,,,0,0,0,0,0,1,1,1,0,0,0,0,,,,,,,,,,,,,0,0,0,0,0,29,29,29,,,,,,,,,,,,,,,,,,,,,,,,,,,,,,,,,,,,,,,,,,,,,,,,,,,,,,,,,,,,,,,,,,,,,,,,,,,,,,,,,,,,,,,,,,,,,,,,,,,,,504.80635550700026,511.06600234600046,,,,,022021,0,2,0,1,0,1,2,0,14,2021_Feb_20_1140,listening_fmri,3.2.4,60.31692793964732,
1,parcelated_audio/24/24_31.ogg,,,,,,,,,0,0,0,0,0,1,1,1,0,0,0,0,,,,,,,,,,,,,0,0,0,0,0,30,30,30,,,,,,,,,,,,,,,,,,,,,,,,,,,,,,,,,,,,,,,,,,,,,,,,,,,,,,,,,,,,,,,,,,,,,,,,,,,,,,,,,,,,,,,,,,,,,,,,,,,,,511.06628030499996,517.7345207750004,,,,,022021,0,2,0,1,0,1,2,0,14,2021_Feb_20_1140,listening_fmri,3.2.4,60.31692793964732,
1,parcelated_audio/24/24_32.ogg,,,,,,,,,0,0,0,0,0,1,1,1,0,0,0,0,,,,,,,,,,,,,0,0,0,0,0,31,31,31,,,,,,,,,,,,,,,,,,,,,,,,,,,,,,,,,,,,,,,,,,,,,,,,,,,,,,,,,,,,,,,,,,,,,,,,,,,,,,,,,,,,,,,,,,,,,,,,,,,,,517.7350152430008,528.5262021669987,,,,,022021,0,2,0,1,0,1,2,0,14,2021_Feb_20_1140,listening_fmri,3.2.4,60.31692793964732,
1,,,,,,,,,,0,0,0,0,0,1,1,1,0,0,0,0,,,,,,,,,,,,,0,0,0,0,,,,,,,,,,,,,,,,,,,,,,,,,,,,,,,,,,,,,,,,,,,,,,,,,,,,,,,,,,,,,,,,,,,,,,,,,,,,,,,,,,,,,,,,,,,,,,,,,,,,,,,,,,,,,,,022021,0,2,0,1,0,1,2,0,14,2021_Feb_20_1140,listening_fmri,3.2.4,60.31692793964732,
1,,,,,,,,,,0,0,0,0,0,1,1,1,0,0,0,0,,,,,,,,,,,,,,,,,,,,,,,,,,,,,,,,,,,,,,528.5267163509998,534.5278700820018,586.6003525120013,None,,,,,,,,,,,,,,,,,,,,,,,,,,,,,,,,,,,,,,,,,,,,,,,,,,,,,,,,,,,,,,,,,,,,,,,,,,,,,,,,,,592.6116102280012,None,592.6116102280012,None,022021,0,2,0,1,0,1,2,0,14,2021_Feb_20_1140,listening_fmri,3.2.4,60.31692793964732,
1,,,,,,,,,,0,0,0,0,0,1,1,1,,,,,,,,,,,,,,,,,,,,,,,,,,,,,,,,,,,,,,,,,,,,,,,,,,,,,,,,,,,,,,,,,,,,,,,,,,,,,,,,,,,,,,,,,,,,,,,,,,,,,,,,,,,,,,,,,,,,,,,,,,,,,,,,,,,022021,0,2,0,1,0,1,2,0,14,2021_Feb_20_1140,listening_fmri,3.2.4,60.31692793964732,
2,,,,,,,,,,0,0,0,0,0,2,2,2,0,0,0,0,0,0,0,0,0,0,0,0,,,,,,,,,,,,,,,,,,,,,,,,,,,,,,,,,,593.6280446559995,None,593.6280446559995,None,1,0.671197541996662,593.6280446559995,None,593.6280446559995,None,594.3174313500003,None,6,0.6877627959984238,594.3174313500003,None,594.3174313500003,None,595.0496151729985,None,595.0496151729985,None,595.0496151729985,None,6,0.9306441090011504,595.0496151729985,None,596.0005616370017,None,6,0.6835568300011801,596.0005616370017,None,596.0005616370017,None,596.8005455770017,None,596.8005455770017,None,596.8005455770017,None,596.8005455770017,None,596.8005455770017,None,596.8005455770017,None,596.8005455770017,None,None,596.8005455770017,None,,,,,,,,,,,,,,,,,,,,,,,,,,,,,,,,,022021,0,2,0,1,0,1,2,0,14,2021_Feb_20_1140,listening_fmri,3.2.4,60.31692793964732,
2,,,,,,,,,,0,0,0,0,0,2,2,2,0,0,0,0,0,0,0,0,,,,,,,,,,,,,,,,,,,,,,,,,,,,,,,,,,,,,,,,,,,,,,,,,,,,,,,,,,,,,,,,,,,,,,,,,,,,,,,,,,,,,,,,,,,614.4441331809994,None,6,0.6501515979980468,614.4441331809994,None,614.4441331809994,None,615.1338235849998,None,615.1338235849998,None,615.1338235849998,None,6,0.5243591420003213,615.1338235849998,None,,,,,,,,,,,,,,,022021,0,2,0,1,0,1,2,0,14,2021_Feb_20_1140,listening_fmri,3.2.4,60.31692793964732,
2,parcelated_audio/13/13_1.ogg,,,,,,,,,0,0,0,0,0,2,2,2,0,0,0,0,,,,,,,,,,,,,0,0,0,0,0,0,0,0,,,,,,,,,,,,,,,,,,,,,,,,,,,,,,,,,,,,,,,,,,,,,,,,,,,,,,,,,,,,,,,,,,,,,,,,,,,,,,,,,,,,,,,,,,,,,615.683430572999,None,6,0.30578059400068014,615.683430572999,None,557.9669943650006,560.9829988080019,560.9887821289994,572.670011102,,,,,022021,0,2,0,1,0,1,2,0,14,2021_Feb_20_1140,listening_fmri,3.2.4,60.31692793964732,
2,parcelated_audio/13/13_2.ogg,,,,,,,,,0,0,0,0,0,2,2,2,0,0,0,0,,,,,,,,,,,,,0,0,0,0,0,1,1,1,,,,,,,,,,,,,,,,,,,,,,,,,,,,,,,,,,,,,,,,,,,,,,,,,,,,,,,,,,,,,,,,,,,,,,,,,,,,,,,,,,,,,,,,,,,,,,,,,,,,,572.6703600500005,578.7740965029989,,,,,022021,0,2,0,1,0,1,2,0,14,2021_Feb_20_1140,listening_fmri,3.2.4,60.31692793964732,
2,parcelated_audio/13/13_3.ogg,,,,,,,,,0,0,0,0,0,2,2,2,0,0,0,0,,,,,,,,,,,,,0,0,0,0,0,2,2,2,,,,,,,,,,,,,,,,,,,,,,,,,,,,,,,,,,,,,,,,,,,,,,,,,,,,,,,,,,,,,,,,,,,,,,,,,,,,,,,,,,,,,,,,,,,,,,,,,,,,,578.7752236810011,587.1369015439996,,,,,022021,0,2,0,1,0,1,2,0,14,2021_Feb_20_1140,listening_fmri,3.2.4,60.31692793964732,
2,parcelated_audio/13/13_4.ogg,,,,,,,,,0,0,0,0,0,2,2,2,0,0,0,0,,,,,,,,,,,,,0,0,0,0,0,3,3,3,,,,,,,,,,,,,,,,,,,,,,,,,,,,,,,,,,,,,,,,,,,,,,,,,,,,,,,,,,,,,,,,,,,,,,,,,,,,,,,,,,,,,,,,,,,,,,,,,,,,,587.1372546579987,597.3737404989988,,,,,022021,0,2,0,1,0,1,2,0,14,2021_Feb_20_1140,listening_fmri,3.2.4,60.31692793964732,
2,parcelated_audio/13/13_5.ogg,,,,,,,,,0,0,0,0,0,2,2,2,0,0,0,0,,,,,,,,,,,,,0,0,0,0,0,4,4,4,,,,,,,,,,,,,,,,,,,,,,,,,,,,,,,,,,,,,,,,,,,,,,,,,,,,,,,,,,,,,,,,,,,,,,,,,,,,,,,,,,,,,,,,,,,,,,,,,,,,,597.374148359002,603.4049735430017,,,,,022021,0,2,0,1,0,1,2,0,14,2021_Feb_20_1140,listening_fmri,3.2.4,60.31692793964732,
2,parcelated_audio/13/13_6.ogg,,,,,,,,,0,0,0,0,0,2,2,2,0,0,0,0,,,,,,,,,,,,,0,0,0,0,0,5,5,5,,,,,,,,,,,,,,,,,,,,,,,,,,,,,,,,,,,,,,,,,,,,,,,,,,,,,,,,,,,,,,,,,,,,,,,,,,,,,,,,,,,,,,,,,,,,,,,,,,,,,603.4053225450007,608.105909326001,,,,,022021,0,2,0,1,0,1,2,0,14,2021_Feb_20_1140,listening_fmri,3.2.4,60.31692793964732,
2,parcelated_audio/13/13_7.ogg,,,,,,,,,0,0,0,0,0,2,2,2,0,0,0,0,,,,,,,,,,,,,0,0,0,0,0,6,6,6,,,,,,,,,,,,,,,,,,,,,,,,,,,,,,,,,,,,,,,,,,,,,,,,,,,,,,,,,,,,,,,,,,,,,,,,,,,,,,,,,,,,,,,,,,,,,,,,,,,,,608.1062246770016,615.7538938629987,,,,,022021,0,2,0,1,0,1,2,0,14,2021_Feb_20_1140,listening_fmri,3.2.4,60.31692793964732,
2,parcelated_audio/13/13_8.ogg,,,,,,,,,0,0,0,0,0,2,2,2,0,0,0,0,,,,,,,,,,,,,0,0,0,0,0,7,7,7,,,,,,,,,,,,,,,,,,,,,,,,,,,,,,,,,,,,,,,,,,,,,,,,,,,,,,,,,,,,,,,,,,,,,,,,,,,,,,,,,,,,,,,,,,,,,,,,,,,,,615.7542297360014,621.0607198729995,,,,,022021,0,2,0,1,0,1,2,0,14,2021_Feb_20_1140,listening_fmri,3.2.4,60.31692793964732,
2,parcelated_audio/13/13_9.ogg,,,,,,,,,0,0,0,0,0,2,2,2,0,0,0,0,,,,,,,,,,,,,0,0,0,0,0,8,8,8,,,,,,,,,,,,,,,,,,,,,,,,,,,,,,,,,,,,,,,,,,,,,,,,,,,,,,,,,,,,,,,,,,,,,,,,,,,,,,,,,,,,,,,,,,,,,,,,,,,,,621.0610844219991,625.6797464920019,,,,,022021,0,2,0,1,0,1,2,0,14,2021_Feb_20_1140,listening_fmri,3.2.4,60.31692793964732,
2,parcelated_audio/13/13_10.ogg,,,,,,,,,0,0,0,0,0,2,2,2,0,0,0,0,,,,,,,,,,,,,0,0,0,0,0,9,9,9,,,,,,,,,,,,,,,,,,,,,,,,,,,,,,,,,,,,,,,,,,,,,,,,,,,,,,,,,,,,,,,,,,,,,,,,,,,,,,,,,,,,,,,,,,,,,,,,,,,,,625.6801179020003,631.4808681760005,,,,,022021,0,2,0,1,0,1,2,0,14,2021_Feb_20_1140,listening_fmri,3.2.4,60.31692793964732,
2,parcelated_audio/13/13_11.ogg,,,,,,,,,0,0,0,0,0,2,2,2,0,0,0,0,,,,,,,,,,,,,0,0,0,0,0,10,10,10,,,,,,,,,,,,,,,,,,,,,,,,,,,,,,,,,,,,,,,,,,,,,,,,,,,,,,,,,,,,,,,,,,,,,,,,,,,,,,,,,,,,,,,,,,,,,,,,,,,,,631.4813329870012,636.0830517530012,,,,,022021,0,2,0,1,0,1,2,0,14,2021_Feb_20_1140,listening_fmri,3.2.4,60.31692793964732,
2,parcelated_audio/13/13_12.ogg,,,,,,,,,0,0,0,0,0,2,2,2,0,0,0,0,,,,,,,,,,,,,0,0,0,0,0,11,11,11,,,,,,,,,,,,,,,,,,,,,,,,,,,,,,,,,,,,,,,,,,,,,,,,,,,,,,,,,,,,,,,,,,,,,,,,,,,,,,,,,,,,,,,,,,,,,,,,,,,,,636.0833394130022,644.5491230799998,,,,,022021,0,2,0,1,0,1,2,0,14,2021_Feb_20_1140,listening_fmri,3.2.4,60.31692793964732,
2,parcelated_audio/13/13_13.ogg,,,,,,,,,0,0,0,0,0,2,2,2,0,0,0,0,,,,,,,,,,,,,0,0,0,0,0,12,12,12,,,,,,,,,,,,,,,,,,,,,,,,,,,,,,,,,,,,,,,,,,,,,,,,,,,,,,,,,,,,,,,,,,,,,,,,,,,,,,,,,,,,,,,,,,,,,,,,,,,,,644.5494415780013,654.4462564759997,,,,,022021,0,2,0,1,0,1,2,0,14,2021_Feb_20_1140,listening_fmri,3.2.4,60.31692793964732,
2,parcelated_audio/13/13_14.ogg,,,,,,,,,0,0,0,0,0,2,2,2,0,0,0,0,,,,,,,,,,,,,0,0,0,0,0,13,13,13,,,,,,,,,,,,,,,,,,,,,,,,,,,,,,,,,,,,,,,,,,,,,,,,,,,,,,,,,,,,,,,,,,,,,,,,,,,,,,,,,,,,,,,,,,,,,,,,,,,,,654.4467331720007,662.6266934890009,,,,,022021,0,2,0,1,0,1,2,0,14,2021_Feb_20_1140,listening_fmri,3.2.4,60.31692793964732,
2,parcelated_audio/13/13_15.ogg,,,,,,,,,0,0,0,0,0,2,2,2,0,0,0,0,,,,,,,,,,,,,0,0,0,0,0,14,14,14,,,,,,,,,,,,,,,,,,,,,,,,,,,,,,,,,,,,,,,,,,,,,,,,,,,,,,,,,,,,,,,,,,,,,,,,,,,,,,,,,,,,,,,,,,,,,,,,,,,,,662.6270747910021,671.3046308439989,,,,,022021,0,2,0,1,0,1,2,0,14,2021_Feb_20_1140,listening_fmri,3.2.4,60.31692793964732,
2,parcelated_audio/13/13_16.ogg,,,,,,,,,0,0,0,0,0,2,2,2,0,0,0,0,,,,,,,,,,,,,0,0,0,0,0,15,15,15,,,,,,,,,,,,,,,,,,,,,,,,,,,,,,,,,,,,,,,,,,,,,,,,,,,,,,,,,,,,,,,,,,,,,,,,,,,,,,,,,,,,,,,,,,,,,,,,,,,,,671.3049227699994,673.6140596020014,,,,,022021,0,2,0,1,0,1,2,0,14,2021_Feb_20_1140,listening_fmri,3.2.4,60.31692793964732,
2,parcelated_audio/13/13_17.ogg,,,,,,,,,0,0,0,0,0,2,2,2,0,0,0,0,,,,,,,,,,,,,0,0,0,0,0,16,16,16,,,,,,,,,,,,,,,,,,,,,,,,,,,,,,,,,,,,,,,,,,,,,,,,,,,,,,,,,,,,,,,,,,,,,,,,,,,,,,,,,,,,,,,,,,,,,,,,,,,,,673.6145265369996,681.184975442,,,,,022021,0,2,0,1,0,1,2,0,14,2021_Feb_20_1140,listening_fmri,3.2.4,60.31692793964732,
2,parcelated_audio/13/13_18.ogg,,,,,,,,,0,0,0,0,0,2,2,2,0,0,0,0,,,,,,,,,,,,,0,0,0,0,0,17,17,17,,,,,,,,,,,,,,,,,,,,,,,,,,,,,,,,,,,,,,,,,,,,,,,,,,,,,,,,,,,,,,,,,,,,,,,,,,,,,,,,,,,,,,,,,,,,,,,,,,,,,681.1853308749996,691.3841526190008,,,,,022021,0,2,0,1,0,1,2,0,14,2021_Feb_20_1140,listening_fmri,3.2.4,60.31692793964732,
2,parcelated_audio/13/13_19.ogg,,,,,,,,,0,0,0,0,0,2,2,2,0,0,0,0,,,,,,,,,,,,,0,0,0,0,0,18,18,18,,,,,,,,,,,,,,,,,,,,,,,,,,,,,,,,,,,,,,,,,,,,,,,,,,,,,,,,,,,,,,,,,,,,,,,,,,,,,,,,,,,,,,,,,,,,,,,,,,,,,691.3845041999994,699.3409361199992,,,,,022021,0,2,0,1,0,1,2,0,14,2021_Feb_20_1140,listening_fmri,3.2.4,60.31692793964732,
2,parcelated_audio/13/13_20.ogg,,,,,,,,,0,0,0,0,0,2,2,2,0,0,0,0,,,,,,,,,,,,,0,0,0,0,0,19,19,19,,,,,,,,,,,,,,,,,,,,,,,,,,,,,,,,,,,,,,,,,,,,,,,,,,,,,,,,,,,,,,,,,,,,,,,,,,,,,,,,,,,,,,,,,,,,,,,,,,,,,699.3413989500004,704.5206111680018,,,,,022021,0,2,0,1,0,1,2,0,14,2021_Feb_20_1140,listening_fmri,3.2.4,60.31692793964732,
2,parcelated_audio/13/13_21.ogg,,,,,,,,,0,0,0,0,0,2,2,2,0,0,0,0,,,,,,,,,,,,,0,0,0,0,0,20,20,20,,,,,,,,,,,,,,,,,,,,,,,,,,,,,,,,,,,,,,,,,,,,,,,,,,,,,,,,,,,,,,,,,,,,,,,,,,,,,,,,,,,,,,,,,,,,,,,,,,,,,704.5209752449991,707.8407025509987,,,,,022021,0,2,0,1,0,1,2,0,14,2021_Feb_20_1140,listening_fmri,3.2.4,60.31692793964732,
2,parcelated_audio/13/13_22.ogg,,,,,,,,,0,0,0,0,0,2,2,2,0,0,0,0,,,,,,,,,,,,,0,0,0,0,0,21,21,21,,,,,,,,,,,,,,,,,,,,,,,,,,,,,,,,,,,,,,,,,,,,,,,,,,,,,,,,,,,,,,,,,,,,,,,,,,,,,,,,,,,,,,,,,,,,,,,,,,,,,707.8411796040018,711.3480404410002,,,,,022021,0,2,0,1,0,1,2,0,14,2021_Feb_20_1140,listening_fmri,3.2.4,60.31692793964732,
2,parcelated_audio/13/13_23.ogg,,,,,,,,,0,0,0,0,0,2,2,2,0,0,0,0,,,,,,,,,,,,,0,0,0,0,0,22,22,22,,,,,,,,,,,,,,,,,,,,,,,,,,,,,,,,,,,,,,,,,,,,,,,,,,,,,,,,,,,,,,,,,,,,,,,,,,,,,,,,,,,,,,,,,,,,,,,,,,,,,711.3484447890005,716.6072637670004,,,,,022021,0,2,0,1,0,1,2,0,14,2021_Feb_20_1140,listening_fmri,3.2.4,60.31692793964732,
2,parcelated_audio/13/13_24.ogg,,,,,,,,,0,0,0,0,0,2,2,2,0,0,0,0,,,,,,,,,,,,,0,0,0,0,0,23,23,23,,,,,,,,,,,,,,,,,,,,,,,,,,,,,,,,,,,,,,,,,,,,,,,,,,,,,,,,,,,,,,,,,,,,,,,,,,,,,,,,,,,,,,,,,,,,,,,,,,,,,716.607615945999,726.3299067209991,,,,,022021,0,2,0,1,0,1,2,0,14,2021_Feb_20_1140,listening_fmri,3.2.4,60.31692793964732,
2,parcelated_audio/13/13_25.ogg,,,,,,,,,0,0,0,0,0,2,2,2,0,0,0,0,,,,,,,,,,,,,0,0,0,0,0,24,24,24,,,,,,,,,,,,,,,,,,,,,,,,,,,,,,,,,,,,,,,,,,,,,,,,,,,,,,,,,,,,,,,,,,,,,,,,,,,,,,,,,,,,,,,,,,,,,,,,,,,,,726.3309212400018,733.6069499580008,,,,,022021,0,2,0,1,0,1,2,0,14,2021_Feb_20_1140,listening_fmri,3.2.4,60.31692793964732,
2,parcelated_audio/13/13_26.ogg,,,,,,,,,0,0,0,0,0,2,2,2,0,0,0,0,,,,,,,,,,,,,0,0,0,0,0,25,25,25,,,,,,,,,,,,,,,,,,,,,,,,,,,,,,,,,,,,,,,,,,,,,,,,,,,,,,,,,,,,,,,,,,,,,,,,,,,,,,,,,,,,,,,,,,,,,,,,,,,,,733.6072916400008,739.7949556259991,,,,,022021,0,2,0,1,0,1,2,0,14,2021_Feb_20_1140,listening_fmri,3.2.4,60.31692793964732,
2,parcelated_audio/13/13_27.ogg,,,,,,,,,0,0,0,0,0,2,2,2,0,0,0,0,,,,,,,,,,,,,0,0,0,0,0,26,26,26,,,,,,,,,,,,,,,,,,,,,,,,,,,,,,,,,,,,,,,,,,,,,,,,,,,,,,,,,,,,,,,,,,,,,,,,,,,,,,,,,,,,,,,,,,,,,,,,,,,,,739.795497891002,745.0382070310006,,,,,022021,0,2,0,1,0,1,2,0,14,2021_Feb_20_1140,listening_fmri,3.2.4,60.31692793964732,
2,parcelated_audio/13/13_28.ogg,,,,,,,,,0,0,0,0,0,2,2,2,0,0,0,0,,,,,,,,,,,,,0,0,0,0,0,27,27,27,,,,,,,,,,,,,,,,,,,,,,,,,,,,,,,,,,,,,,,,,,,,,,,,,,,,,,,,,,,,,,,,,,,,,,,,,,,,,,,,,,,,,,,,,,,,,,,,,,,,,745.0390661290003,750.4756749859989,,,,,022021,0,2,0,1,0,1,2,0,14,2021_Feb_20_1140,listening_fmri,3.2.4,60.31692793964732,
2,parcelated_audio/13/13_29.ogg,,,,,,,,,0,0,0,0,0,2,2,2,0,0,0,0,,,,,,,,,,,,,0,0,0,0,0,28,28,28,,,,,,,,,,,,,,,,,,,,,,,,,,,,,,,,,,,,,,,,,,,,,,,,,,,,,,,,,,,,,,,,,,,,,,,,,,,,,,,,,,,,,,,,,,,,,,,,,,,,,750.4760418340011,753.7632723770002,,,,,022021,0,2,0,1,0,1,2,0,14,2021_Feb_20_1140,listening_fmri,3.2.4,60.31692793964732,
2,parcelated_audio/13/13_30.ogg,,,,,,,,,0,0,0,0,0,2,2,2,0,0,0,0,,,,,,,,,,,,,0,0,0,0,0,29,29,29,,,,,,,,,,,,,,,,,,,,,,,,,,,,,,,,,,,,,,,,,,,,,,,,,,,,,,,,,,,,,,,,,,,,,,,,,,,,,,,,,,,,,,,,,,,,,,,,,,,,,753.763625661999,757.2218713210023,,,,,022021,0,2,0,1,0,1,2,0,14,2021_Feb_20_1140,listening_fmri,3.2.4,60.31692793964732,
2,parcelated_audio/13/13_31.ogg,,,,,,,,,0,0,0,0,0,2,2,2,0,0,0,0,,,,,,,,,,,,,0,0,0,0,0,30,30,30,,,,,,,,,,,,,,,,,,,,,,,,,,,,,,,,,,,,,,,,,,,,,,,,,,,,,,,,,,,,,,,,,,,,,,,,,,,,,,,,,,,,,,,,,,,,,,,,,,,,,757.2223441230017,763.1739439789999,,,,,022021,0,2,0,1,0,1,2,0,14,2021_Feb_20_1140,listening_fmri,3.2.4,60.31692793964732,
2,,,,,,,,,,0,0,0,0,0,2,2,2,0,0,0,0,,,,,,,,,,,,,0,0,0,0,,,,,,,,,,,,,,,,,,,,,,,,,,,,,,,,,,,,,,,,,,,,,,,,,,,,,,,,,,,,,,,,,,,,,,,,,,,,,,,,,,,,,,,,,,,,,,,,,,,,,,,,,,,,,,,022021,0,2,0,1,0,1,2,0,14,2021_Feb_20_1140,listening_fmri,3.2.4,60.31692793964732,
,,,,,,,,,,,,,,,,,,,,,,,,,,,,,,,,,,,,,,,,,,,,,,,,,,,,,,,,,,,763.1744328829991,769.1668780020009,821.2510626200001,None,,,,,,,,,,,,,,,,,,,,,,,,,,,,,,,,,,,,,,,,,,,,,,,,,,,,,,,,,,,,,,,,,,,,,,,,,,,,,,,,,,827.2509294130014,None,827.2509294130014,None,,,,,,,,,,,,,,,
﻿count,audio,trials_14.thisRepN,trials_14.thisTrialN,trials_14.thisN,trials_14.thisIndex,trials_3.thisRepN,trials_3.thisTrialN,trials_3.thisN,trials_3.thisIndex,trials_4.thisRepN,trials_4.thisTrialN,trials_4.thisN,trials_4.thisIndex,trials_6.thisRepN,trials_6.thisTrialN,trials_6.thisN,trials_6.thisIndex,trials_9.thisRepN,trials_9.thisTrialN,trials_9.thisN,trials_9.thisIndex,trials_10.thisRepN,trials_10.thisTrialN,trials_10.thisN,trials_10.thisIndex,trials_11.thisRepN,trials_11.thisTrialN,trials_11.thisN,trials_11.thisIndex,trials_12.thisRepN,trials_12.thisTrialN,trials_12.thisN,trials_12.thisIndex,trials_25.thisRepN,trials_25.thisTrialN,trials_25.thisN,trials_25.thisIndex,trials_15.thisRepN,trials_15.thisTrialN,trials_15.thisN,trials_15.thisIndex,trials_26.thisRepN,trials_26.thisTrialN,trials_26.thisN,trials_26.thisIndex,story_list_block2,action_list_block2,textTrigger.started,textTrigger.stopped,getTrigger.keys,getTrigger.rt,getTrigger.started,getTrigger.stopped,triggerTime,text_76.started,text_76.stopped,text_77.started,text_77.stopped,startWait,endWait,image_23.started,image_23.stopped,text_55.started,text_55.stopped,text_56.started,text_56.stopped,key_resp_2.keys,key_resp_2.rt,key_resp_2.started,key_resp_2.stopped,text_82.started,text_82.stopped,text_57.started,text_57.stopped,key_resp_17.keys,key_resp_17.rt,key_resp_17.started,key_resp_17.stopped,text_83.started,text_83.stopped,text_60.started,text_60.stopped,image_2.started,image_2.stopped,text_58.started,text_58.stopped,key_resp_23.keys,key_resp_23.rt,key_resp_23.started,key_resp_23.stopped,text_62.started,text_62.stopped,key_resp_18.keys,key_resp_18.rt,key_resp_18.started,key_resp_18.stopped,text_84.started,text_84.stopped,question1_2.started,question1_2.stopped,question2_2.started,question2_2.stopped,question3_2.started,question3_2.stopped,question4_2.started,question4_2.stopped,question5_2.started,question5_2.stopped,question6_2.started,question6_2.stopped,image_15.started,image_15.stopped,key_resp.keys,key_resp.started,key_resp.stopped,text_59.started,text_59.stopped,key_resp_19.keys,key_resp_19.rt,key_resp_19.started,key_resp_19.stopped,text_85.started,text_85.stopped,text_61.started,text_61.stopped,image_17.started,image_17.stopped,text_63.started,text_63.stopped,key_resp_24.keys,key_resp_24.rt,key_resp_24.started,key_resp_24.stopped,text_64.started,text_64.stopped,key_resp_20.keys,key_resp_20.rt,key_resp_20.started,key_resp_20.stopped,storyImage_StartTime,storyImage_EndTime,clip_StartTime,clip_EndTime,text_67.started,text_67.stopped,text_68.started,text_68.stopped,participant,sA,sB,lA,lB,block_struct,play_stories,block,behavioral,random_seed,date,expName,psychopyVersion,frameRate,
0,,,,,,,,,,0,0,0,0,0,0,0,0,0,0,0,0,0,0,0,0,0,0,0,0,,,,,,,,,,,,,,,,,[22 24 13 42 44 31 33 11],[2 4 1 2 4 3 1 3],28.2491166180007,None,equal,29.802007185000548,28.2491166180007,None,29.841718018000392,28.2491166180007,None,28.2491166180007,None,0.0004646819998015417,5.998906052000166,58.08370945800016,None,64.08430769200095,None,64.08430769200095,None,6,0.7619671180000296,64.08430769200095,None,64.08430769200095,None,64.86686000500049,None,6,0.6754009719988971,64.86686000500049,None,64.86686000500049,None,65.59938176899959,None,65.59938176899959,None,65.59938176899959,None,6,0.9968899149989738,65.59938176899959,None,66.61606361899976,None,6,0.8020430659998965,66.61606361899976,None,66.61606361899976,None,67.53301227600059,None,67.53301227600059,None,67.53301227600059,None,67.53301227600059,None,67.53301227600059,None,67.53301227600059,None,67.53301227600059,None,None,67.53301227600059,None,,,,,,,,,,,,,,,,,,,,,,,,,,,,,,,,,022021,0,2,0,1,0,1,2,0,14,2021_Feb_20_1140,listening_fmri,3.2.4,60.31692793964732,
0,,,,,,,,,,0,0,0,0,0,0,0,0,0,0,0,0,0,0,0,0,,,,,,,,,,,,,,,,,,,,,,,,,,,,,,,,,,,,,,,,,,,,,,,,,,,,,,,,,,,,,,,,,,,,,,,,,,,,,,,,,,,,,,,,,,,82.9834430610008,None,6,0.5268183869993663,82.9834430610008,None,82.9834430610008,None,83.54965792800067,None,83.54965792800067,None,83.54965792800067,None,6,0.47860213899912196,83.54965792800067,None,,,,,,,,,,,,,,,022021,0,2,0,1,0,1,2,0,14,2021_Feb_20_1140,listening_fmri,3.2.4,60.31692793964732,
0,parcelated_audio/22/22_1.ogg,,,,,,,,,0,0,0,0,0,0,0,0,0,0,0,0,,,,,,,,,,,,,0,0,0,0,0,0,0,0,,,,,,,,,,,,,,,,,,,,,,,,,,,,,,,,,,,,,,,,,,,,,,,,,,,,,,,,,,,,,,,,,,,,,,,,,,,,,,,,,,,,,,,,,,,,,84.05034082800012,None,6,0.31090197500088834,84.05034082800012,None,26.30706482700043,29.316041822999978,29.323060761000306,42.39251779299957,,,,,022021,0,2,0,1,0,1,2,0,14,2021_Feb_20_1140,listening_fmri,3.2.4,60.31692793964732,
0,parcelated_audio/22/22_2.ogg,,,,,,,,,0,0,0,0,0,0,0,0,0,0,0,0,,,,,,,,,,,,,0,0,0,0,0,1,1,1,,,,,,,,,,,,,,,,,,,,,,,,,,,,,,,,,,,,,,,,,,,,,,,,,,,,,,,,,,,,,,,,,,,,,,,,,,,,,,,,,,,,,,,,,,,,,,,,,,,,,42.39334233699992,48.777532611000424,,,,,022021,0,2,0,1,0,1,2,0,14,2021_Feb_20_1140,listening_fmri,3.2.4,60.31692793964732,
0,parcelated_audio/22/22_3.ogg,,,,,,,,,0,0,0,0,0,0,0,0,0,0,0,0,,,,,,,,,,,,,0,0,0,0,0,2,2,2,,,,,,,,,,,,,,,,,,,,,,,,,,,,,,,,,,,,,,,,,,,,,,,,,,,,,,,,,,,,,,,,,,,,,,,,,,,,,,,,,,,,,,,,,,,,,,,,,,,,,48.77784492700084,61.6918106789999,,,,,022021,0,2,0,1,0,1,2,0,14,2021_Feb_20_1140,listening_fmri,3.2.4,60.31692793964732,
0,parcelated_audio/22/22_4.ogg,,,,,,,,,0,0,0,0,0,0,0,0,0,0,0,0,,,,,,,,,,,,,0,0,0,0,0,3,3,3,,,,,,,,,,,,,,,,,,,,,,,,,,,,,,,,,,,,,,,,,,,,,,,,,,,,,,,,,,,,,,,,,,,,,,,,,,,,,,,,,,,,,,,,,,,,,,,,,,,,,61.69216529500045,74.10973358900083,,,,,022021,0,2,0,1,0,1,2,0,14,2021_Feb_20_1140,listening_fmri,3.2.4,60.31692793964732,
0,parcelated_audio/22/22_5.ogg,,,,,,,,,0,0,0,0,0,0,0,0,0,0,0,0,,,,,,,,,,,,,0,0,0,0,0,4,4,4,,,,,,,,,,,,,,,,,,,,,,,,,,,,,,,,,,,,,,,,,,,,,,,,,,,,,,,,,,,,,,,,,,,,,,,,,,,,,,,,,,,,,,,,,,,,,,,,,,,,,74.11009880799975,80.04331822099994,,,,,022021,0,2,0,1,0,1,2,0,14,2021_Feb_20_1140,listening_fmri,3.2.4,60.31692793964732,
0,parcelated_audio/22/22_6.ogg,,,,,,,,,0,0,0,0,0,0,0,0,0,0,0,0,,,,,,,,,,,,,0,0,0,0,0,5,5,5,,,,,,,,,,,,,,,,,,,,,,,,,,,,,,,,,,,,,,,,,,,,,,,,,,,,,,,,,,,,,,,,,,,,,,,,,,,,,,,,,,,,,,,,,,,,,,,,,,,,,80.04374557099982,89.2486753789999,,,,,022021,0,2,0,1,0,1,2,0,14,2021_Feb_20_1140,listening_fmri,3.2.4,60.31692793964732,
0,parcelated_audio/22/22_7.ogg,,,,,,,,,0,0,0,0,0,0,0,0,0,0,0,0,,,,,,,,,,,,,0,0,0,0,0,6,6,6,,,,,,,,,,,,,,,,,,,,,,,,,,,,,,,,,,,,,,,,,,,,,,,,,,,,,,,,,,,,,,,,,,,,,,,,,,,,,,,,,,,,,,,,,,,,,,,,,,,,,89.24902066300092,94.23544515100002,,,,,022021,0,2,0,1,0,1,2,0,14,2021_Feb_20_1140,listening_fmri,3.2.4,60.31692793964732,
0,parcelated_audio/22/22_8.ogg,,,,,,,,,0,0,0,0,0,0,0,0,0,0,0,0,,,,,,,,,,,,,0,0,0,0,0,7,7,7,,,,,,,,,,,,,,,,,,,,,,,,,,,,,,,,,,,,,,,,,,,,,,,,,,,,,,,,,,,,,,,,,,,,,,,,,,,,,,,,,,,,,,,,,,,,,,,,,,,,,94.23574923900014,97.76375726100014,,,,,022021,0,2,0,1,0,1,2,0,14,2021_Feb_20_1140,listening_fmri,3.2.4,60.31692793964732,
0,parcelated_audio/22/22_9.ogg,,,,,,,,,0,0,0,0,0,0,0,0,0,0,0,0,,,,,,,,,,,,,0,0,0,0,0,8,8,8,,,,,,,,,,,,,,,,,,,,,,,,,,,,,,,,,,,,,,,,,,,,,,,,,,,,,,,,,,,,,,,,,,,,,,,,,,,,,,,,,,,,,,,,,,,,,,,,,,,,,97.76411782600007,101.65387993600052,,,,,022021,0,2,0,1,0,1,2,0,14,2021_Feb_20_1140,listening_fmri,3.2.4,60.31692793964732,
0,parcelated_audio/22/22_10.ogg,,,,,,,,,0,0,0,0,0,0,0,0,0,0,0,0,,,,,,,,,,,,,0,0,0,0,0,9,9,9,,,,,,,,,,,,,,,,,,,,,,,,,,,,,,,,,,,,,,,,,,,,,,,,,,,,,,,,,,,,,,,,,,,,,,,,,,,,,,,,,,,,,,,,,,,,,,,,,,,,,101.65430897100123,106.42378885200014,,,,,022021,0,2,0,1,0,1,2,0,14,2021_Feb_20_1140,listening_fmri,3.2.4,60.31692793964732,
0,parcelated_audio/22/22_11.ogg,,,,,,,,,0,0,0,0,0,0,0,0,0,0,0,0,,,,,,,,,,,,,0,0,0,0,0,10,10,10,,,,,,,,,,,,,,,,,,,,,,,,,,,,,,,,,,,,,,,,,,,,,,,,,,,,,,,,,,,,,,,,,,,,,,,,,,,,,,,,,,,,,,,,,,,,,,,,,,,,,106.42414097500114,113.7024378620008,,,,,022021,0,2,0,1,0,1,2,0,14,2021_Feb_20_1140,listening_fmri,3.2.4,60.31692793964732,
0,parcelated_audio/22/22_12.ogg,,,,,,,,,0,0,0,0,0,0,0,0,0,0,0,0,,,,,,,,,,,,,0,0,0,0,0,11,11,11,,,,,,,,,,,,,,,,,,,,,,,,,,,,,,,,,,,,,,,,,,,,,,,,,,,,,,,,,,,,,,,,,,,,,,,,,,,,,,,,,,,,,,,,,,,,,,,,,,,,,113.70345325000017,121.4113002310005,,,,,022021,0,2,0,1,0,1,2,0,14,2021_Feb_20_1140,listening_fmri,3.2.4,60.31692793964732,
0,parcelated_audio/22/22_13.ogg,,,,,,,,,0,0,0,0,0,0,0,0,0,0,0,0,,,,,,,,,,,,,0,0,0,0,0,12,12,12,,,,,,,,,,,,,,,,,,,,,,,,,,,,,,,,,,,,,,,,,,,,,,,,,,,,,,,,,,,,,,,,,,,,,,,,,,,,,,,,,,,,,,,,,,,,,,,,,,,,,121.41241249800078,128.6770139979999,,,,,022021,0,2,0,1,0,1,2,0,14,2021_Feb_20_1140,listening_fmri,3.2.4,60.31692793964732,
0,parcelated_audio/22/22_14.ogg,,,,,,,,,0,0,0,0,0,0,0,0,0,0,0,0,,,,,,,,,,,,,0,0,0,0,0,13,13,13,,,,,,,,,,,,,,,,,,,,,,,,,,,,,,,,,,,,,,,,,,,,,,,,,,,,,,,,,,,,,,,,,,,,,,,,,,,,,,,,,,,,,,,,,,,,,,,,,,,,,128.6775261620005,134.29678102599973,,,,,022021,0,2,0,1,0,1,2,0,14,2021_Feb_20_1140,listening_fmri,3.2.4,60.31692793964732,
0,parcelated_audio/22/22_15.ogg,,,,,,,,,0,0,0,0,0,0,0,0,0,0,0,0,,,,,,,,,,,,,0,0,0,0,0,14,14,14,,,,,,,,,,,,,,,,,,,,,,,,,,,,,,,,,,,,,,,,,,,,,,,,,,,,,,,,,,,,,,,,,,,,,,,,,,,,,,,,,,,,,,,,,,,,,,,,,,,,,134.2971366620004,142.06488551000075,,,,,022021,0,2,0,1,0,1,2,0,14,2021_Feb_20_1140,listening_fmri,3.2.4,60.31692793964732,
0,parcelated_audio/22/22_16.ogg,,,,,,,,,0,0,0,0,0,0,0,0,0,0,0,0,,,,,,,,,,,,,0,0,0,0,0,15,15,15,,,,,,,,,,,,,,,,,,,,,,,,,,,,,,,,,,,,,,,,,,,,,,,,,,,,,,,,,,,,,,,,,,,,,,,,,,,,,,,,,,,,,,,,,,,,,,,,,,,,,142.06523564500094,150.83117894800125,,,,,022021,0,2,0,1,0,1,2,0,14,2021_Feb_20_1140,listening_fmri,3.2.4,60.31692793964732,
0,parcelated_audio/22/22_17.ogg,,,,,,,,,0,0,0,0,0,0,0,0,0,0,0,0,,,,,,,,,,,,,0,0,0,0,0,16,16,16,,,,,,,,,,,,,,,,,,,,,,,,,,,,,,,,,,,,,,,,,,,,,,,,,,,,,,,,,,,,,,,,,,,,,,,,,,,,,,,,,,,,,,,,,,,,,,,,,,,,,150.83165418700082,153.98755623200122,,,,,022021,0,2,0,1,0,1,2,0,14,2021_Feb_20_1140,listening_fmri,3.2.4,60.31692793964732,
0,parcelated_audio/22/22_18.ogg,,,,,,,,,0,0,0,0,0,0,0,0,0,0,0,0,,,,,,,,,,,,,0,0,0,0,0,17,17,17,,,,,,,,,,,,,,,,,,,,,,,,,,,,,,,,,,,,,,,,,,,,,,,,,,,,,,,,,,,,,,,,,,,,,,,,,,,,,,,,,,,,,,,,,,,,,,,,,,,,,153.98793198699968,160.72170181500042,,,,,022021,0,2,0,1,0,1,2,0,14,2021_Feb_20_1140,listening_fmri,3.2.4,60.31692793964732,
0,parcelated_audio/22/22_19.ogg,,,,,,,,,0,0,0,0,0,0,0,0,0,0,0,0,,,,,,,,,,,,,0,0,0,0,0,18,18,18,,,,,,,,,,,,,,,,,,,,,,,,,,,,,,,,,,,,,,,,,,,,,,,,,,,,,,,,,,,,,,,,,,,,,,,,,,,,,,,,,,,,,,,,,,,,,,,,,,,,,160.72197679199962,165.68374223300088,,,,,022021,0,2,0,1,0,1,2,0,14,2021_Feb_20_1140,listening_fmri,3.2.4,60.31692793964732,
0,parcelated_audio/22/22_20.ogg,,,,,,,,,0,0,0,0,0,0,0,0,0,0,0,0,,,,,,,,,,,,,0,0,0,0,0,19,19,19,,,,,,,,,,,,,,,,,,,,,,,,,,,,,,,,,,,,,,,,,,,,,,,,,,,,,,,,,,,,,,,,,,,,,,,,,,,,,,,,,,,,,,,,,,,,,,,,,,,,,165.68466999300108,179.78770977800013,,,,,022021,0,2,0,1,0,1,2,0,14,2021_Feb_20_1140,listening_fmri,3.2.4,60.31692793964732,
0,parcelated_audio/22/22_21.ogg,,,,,,,,,0,0,0,0,0,0,0,0,0,0,0,0,,,,,,,,,,,,,0,0,0,0,0,20,20,20,,,,,,,,,,,,,,,,,,,,,,,,,,,,,,,,,,,,,,,,,,,,,,,,,,,,,,,,,,,,,,,,,,,,,,,,,,,,,,,,,,,,,,,,,,,,,,,,,,,,,179.78799685600097,181.7995379109998,,,,,022021,0,2,0,1,0,1,2,0,14,2021_Feb_20_1140,listening_fmri,3.2.4,60.31692793964732,
0,parcelated_audio/22/22_22.ogg,,,,,,,,,0,0,0,0,0,0,0,0,0,0,0,0,,,,,,,,,,,,,0,0,0,0,0,21,21,21,,,,,,,,,,,,,,,,,,,,,,,,,,,,,,,,,,,,,,,,,,,,,,,,,,,,,,,,,,,,,,,,,,,,,,,,,,,,,,,,,,,,,,,,,,,,,,,,,,,,,181.799967070001,184.9476600350008,,,,,022021,0,2,0,1,0,1,2,0,14,2021_Feb_20_1140,listening_fmri,3.2.4,60.31692793964732,
0,parcelated_audio/22/22_23.ogg,,,,,,,,,0,0,0,0,0,0,0,0,0,0,0,0,,,,,,,,,,,,,0,0,0,0,0,22,22,22,,,,,,,,,,,,,,,,,,,,,,,,,,,,,,,,,,,,,,,,,,,,,,,,,,,,,,,,,,,,,,,,,,,,,,,,,,,,,,,,,,,,,,,,,,,,,,,,,,,,,184.94793327600019,191.4807133200011,,,,,022021,0,2,0,1,0,1,2,0,14,2021_Feb_20_1140,listening_fmri,3.2.4,60.31692793964732,
0,parcelated_audio/22/22_24.ogg,,,,,,,,,0,0,0,0,0,0,0,0,0,0,0,0,,,,,,,,,,,,,0,0,0,0,0,23,23,23,,,,,,,,,,,,,,,,,,,,,,,,,,,,,,,,,,,,,,,,,,,,,,,,,,,,,,,,,,,,,,,,,,,,,,,,,,,,,,,,,,,,,,,,,,,,,,,,,,,,,191.48103713599994,197.2089597560007,,,,,022021,0,2,0,1,0,1,2,0,14,2021_Feb_20_1140,listening_fmri,3.2.4,60.31692793964732,
0,parcelated_audio/22/22_25.ogg,,,,,,,,,0,0,0,0,0,0,0,0,0,0,0,0,,,,,,,,,,,,,0,0,0,0,0,24,24,24,,,,,,,,,,,,,,,,,,,,,,,,,,,,,,,,,,,,,,,,,,,,,,,,,,,,,,,,,,,,,,,,,,,,,,,,,,,,,,,,,,,,,,,,,,,,,,,,,,,,,197.20931161500084,209.9069209930003,,,,,022021,0,2,0,1,0,1,2,0,14,2021_Feb_20_1140,listening_fmri,3.2.4,60.31692793964732,
0,parcelated_audio/22/22_26.ogg,,,,,,,,,0,0,0,0,0,0,0,0,0,0,0,0,,,,,,,,,,,,,0,0,0,0,0,25,25,25,,,,,,,,,,,,,,,,,,,,,,,,,,,,,,,,,,,,,,,,,,,,,,,,,,,,,,,,,,,,,,,,,,,,,,,,,,,,,,,,,,,,,,,,,,,,,,,,,,,,,209.90727299300124,216.64500206900084,,,,,022021,0,2,0,1,0,1,2,0,14,2021_Feb_20_1140,listening_fmri,3.2.4,60.31692793964732,
0,parcelated_audio/22/22_27.ogg,,,,,,,,,0,0,0,0,0,0,0,0,0,0,0,0,,,,,,,,,,,,,0,0,0,0,0,26,26,26,,,,,,,,,,,,,,,,,,,,,,,,,,,,,,,,,,,,,,,,,,,,,,,,,,,,,,,,,,,,,,,,,,,,,,,,,,,,,,,,,,,,,,,,,,,,,,,,,,,,,216.64541668099992,221.03254911800104,,,,,022021,0,2,0,1,0,1,2,0,14,2021_Feb_20_1140,listening_fmri,3.2.4,60.31692793964732,
0,parcelated_audio/22/22_28.ogg,,,,,,,,,0,0,0,0,0,0,0,0,0,0,0,0,,,,,,,,,,,,,0,0,0,0,0,27,27,27,,,,,,,,,,,,,,,,,,,,,,,,,,,,,,,,,,,,,,,,,,,,,,,,,,,,,,,,,,,,,,,,,,,,,,,,,,,,,,,,,,,,,,,,,,,,,,,,,,,,,221.0331049260003,226.77939183300077,,,,,022021,0,2,0,1,0,1,2,0,14,2021_Feb_20_1140,listening_fmri,3.2.4,60.31692793964732,
0,parcelated_audio/22/22_29.ogg,,,,,,,,,0,0,0,0,0,0,0,0,0,0,0,0,,,,,,,,,,,,,0,0,0,0,0,28,28,28,,,,,,,,,,,,,,,,,,,,,,,,,,,,,,,,,,,,,,,,,,,,,,,,,,,,,,,,,,,,,,,,,,,,,,,,,,,,,,,,,,,,,,,,,,,,,,,,,,,,,226.77970974600066,232.4900850970007,,,,,022021,0,2,0,1,0,1,2,0,14,2021_Feb_20_1140,listening_fmri,3.2.4,60.31692793964732,
0,parcelated_audio/22/22_30.ogg,,,,,,,,,0,0,0,0,0,0,0,0,0,0,0,0,,,,,,,,,,,,,0,0,0,0,0,29,29,29,,,,,,,,,,,,,,,,,,,,,,,,,,,,,,,,,,,,,,,,,,,,,,,,,,,,,,,,,,,,,,,,,,,,,,,,,,,,,,,,,,,,,,,,,,,,,,,,,,,,,232.49062916000003,235.2227209720004,,,,,022021,0,2,0,1,0,1,2,0,14,2021_Feb_20_1140,listening_fmri,3.2.4,60.31692793964732,
0,parcelated_audio/22/22_31.ogg,,,,,,,,,0,0,0,0,0,0,0,0,0,0,0,0,,,,,,,,,,,,,0,0,0,0,0,30,30,30,,,,,,,,,,,,,,,,,,,,,,,,,,,,,,,,,,,,,,,,,,,,,,,,,,,,,,,,,,,,,,,,,,,,,,,,,,,,,,,,,,,,,,,,,,,,,,,,,,,,,235.22303646799992,240.3848779050004,,,,,022021,0,2,0,1,0,1,2,0,14,2021_Feb_20_1140,listening_fmri,3.2.4,60.31692793964732,
0,parcelated_audio/22/22_32.ogg,,,,,,,,,0,0,0,0,0,0,0,0,0,0,0,0,,,,,,,,,,,,,0,0,0,0,0,31,31,31,,,,,,,,,,,,,,,,,,,,,,,,,,,,,,,,,,,,,,,,,,,,,,,,,,,,,,,,,,,,,,,,,,,,,,,,,,,,,,,,,,,,,,,,,,,,,,,,,,,,,240.38525010600097,246.7114503190005,,,,,022021,0,2,0,1,0,1,2,0,14,2021_Feb_20_1140,listening_fmri,3.2.4,60.31692793964732,
0,parcelated_audio/22/22_33.ogg,,,,,,,,,0,0,0,0,0,0,0,0,0,0,0,0,,,,,,,,,,,,,0,0,0,0,0,32,32,32,,,,,,,,,,,,,,,,,,,,,,,,,,,,,,,,,,,,,,,,,,,,,,,,,,,,,,,,,,,,,,,,,,,,,,,,,,,,,,,,,,,,,,,,,,,,,,,,,,,,,246.71172322200073,251.15566813100122,,,,,022021,0,2,0,1,0,1,2,0,14,2021_Feb_20_1140,listening_fmri,3.2.4,60.31692793964732,
0,parcelated_audio/22/22_34.ogg,,,,,,,,,0,0,0,0,0,0,0,0,0,0,0,0,,,,,,,,,,,,,0,0,0,0,0,33,33,33,,,,,,,,,,,,,,,,,,,,,,,,,,,,,,,,,,,,,,,,,,,,,,,,,,,,,,,,,,,,,,,,,,,,,,,,,,,,,,,,,,,,,,,,,,,,,,,,,,,,,251.15593924400127,259.2017794910007,,,,,022021,0,2,0,1,0,1,2,0,14,2021_Feb_20_1140,listening_fmri,3.2.4,60.31692793964732,
0,parcelated_audio/22/22_35.ogg,,,,,,,,,0,0,0,0,0,0,0,0,0,0,0,0,,,,,,,,,,,,,0,0,0,0,0,34,34,34,,,,,,,,,,,,,,,,,,,,,,,,,,,,,,,,,,,,,,,,,,,,,,,,,,,,,,,,,,,,,,,,,,,,,,,,,,,,,,,,,,,,,,,,,,,,,,,,,,,,,259.2024017870008,266.7026860599999,,,,,022021,0,2,0,1,0,1,2,0,14,2021_Feb_20_1140,listening_fmri,3.2.4,60.31692793964732,
0,parcelated_audio/22/22_36.ogg,,,,,,,,,0,0,0,0,0,0,0,0,0,0,0,0,,,,,,,,,,,,,0,0,0,0,0,35,35,35,,,,,,,,,,,,,,,,,,,,,,,,,,,,,,,,,,,,,,,,,,,,,,,,,,,,,,,,,,,,,,,,,,,,,,,,,,,,,,,,,,,,,,,,,,,,,,,,,,,,,266.70296654199956,279.4006858270004,,,,,022021,0,2,0,1,0,1,2,0,14,2021_Feb_20_1140,listening_fmri,3.2.4,60.31692793964732,
0,parcelated_audio/22/22_37.ogg,,,,,,,,,0,0,0,0,0,0,0,0,0,0,0,0,,,,,,,,,,,,,0,0,0,0,0,36,36,36,,,,,,,,,,,,,,,,,,,,,,,,,,,,,,,,,,,,,,,,,,,,,,,,,,,,,,,,,,,,,,,,,,,,,,,,,,,,,,,,,,,,,,,,,,,,,,,,,,,,,279.40097112500007,286.5867469929999,,,,,022021,0,2,0,1,0,1,2,0,14,2021_Feb_20_1140,listening_fmri,3.2.4,60.31692793964732,
