instructText,count,trials_5.thisRepN,trials_5.thisTrialN,trials_5.thisN,trials_5.thisIndex,trials_6.thisRepN,trials_6.thisTrialN,trials_6.thisN,trials_6.thisIndex,trials.thisRepN,trials.thisTrialN,trials.thisN,trials.thisIndex,trials_8.thisRepN,trials_8.thisTrialN,trials_8.thisN,trials_8.thisIndex,story_list_block1,action_list_block1,story_list_block2,action_list_block2,key_resp_3.keys,key_resp_3.rt,key_resp_3.started,key_resp_3.stopped,text_13.started,text_13.stopped,text_23.started,text_23.stopped,text_43.started,text_43.stopped,key_resp_11.keys,key_resp_11.rt,key_resp_11.started,key_resp_11.stopped,text_44.started,text_44.stopped,text_53.started,text_53.stopped,image_10.started,image_10.stopped,text_22.started,text_22.stopped,recall,question1_answer,order of question,text_14.started,text_14.stopped,text_15.started,text_15.stopped,image_6.started,image_6.stopped,polygon_3.started,polygon_3.stopped,bottom_line_3.started,bottom_line_3.stopped,right_line_3.started,right_line_3.stopped,left_line_3.started,left_line_3.stopped,question2_answer,text_16.started,text_16.stopped,text_17.started,text_17.stopped,image_7.started,image_7.stopped,polygon_4.started,polygon_4.stopped,bottom_line_4.started,bottom_line_4.stopped,right_line_4.started,right_line_4.stopped,left_line_4.started,left_line_4.stopped,question3_answer,text_18.started,text_18.stopped,text_19.started,text_19.stopped,image_8.started,image_8.stopped,polygon_5.started,polygon_5.stopped,bottom_line_5.started,bottom_line_5.stopped,right_line_5.started,right_line_5.stopped,left_line_5.started,left_line_5.stopped,question4_answer,text_20.started,text_20.stopped,text_21.started,text_21.stopped,image_9.started,image_9.stopped,polygon_6.started,polygon_6.stopped,bottom_line_6.started,bottom_line_6.stopped,right_line_6.started,right_line_6.stopped,left_line_6.started,left_line_6.stopped,question5_answer,text_25.started,text_25.stopped,text_26.started,text_26.stopped,image_11.started,image_11.stopped,polygon_7.started,polygon_7.stopped,bottom_line_7.started,bottom_line_7.stopped,right_line_7.started,right_line_7.stopped,left_line_7.started,left_line_7.stopped,question6_answer,text_27.started,text_27.stopped,text_28.started,text_28.stopped,image_12.started,image_12.stopped,polygon_8.started,polygon_8.stopped,bottom_line_8.started,bottom_line_8.stopped,right_line_8.started,right_line_8.stopped,left_line_8.started,left_line_8.stopped,question7_answer,text_29.started,text_29.stopped,text_30.started,text_30.stopped,image_13.started,image_13.stopped,polygon_9.started,polygon_9.stopped,bottom_line_9.started,bottom_line_9.stopped,right_line_9.started,right_line_9.stopped,left_line_9.started,left_line_9.stopped,question8_answer,text_31.started,text_31.stopped,text_32.started,text_32.stopped,image_14.started,image_14.stopped,polygon_10.started,polygon_10.stopped,bottom_line_10.started,bottom_line_10.stopped,right_line_10.started,right_line_10.stopped,left_line_10.started,left_line_10.stopped,text_36.started,text_36.stopped,participant,sA,sB,lA,lB,block_struct,random_seed,date,expName,psychopyVersion,frameRate,
"In the final part of the experiment, please answer 8 questions about each story.",,0,0,0,0,,,,,,,,,,,,,[43 14 21 32 12 34 23 41],[2 4 3 1 4 1 3 2],[42 33 13 44 22 31 24 11],[4 3 2 4 1 3 1 2],space,19.111837627999194,8.089799708999635,None,8.089799708999635,None,8.089799708999635,None,,,,,,,,,,,,,,,,,,,,,,,,,,,,,,,,,,,,,,,,,,,,,,,,,,,,,,,,,,,,,,,,,,,,,,,,,,,,,,,,,,,,,,,,,,,,,,,,,,,,,,,,,,,,,,,,,,,,,,,,,,,,,,,,,,,,,,,,,,,102221,1,2,0,2,0,40,2021_Oct_22_1619,short_answer,3.2.4,60.15590630366084,
"We did not tell you to think of all or some of these questions during the story, but please do your best to answer them.",,0,1,1,1,,,,,,,,,,,,,,,,,space,5.4246146570003475,27.2391691849989,None,27.2391691849989,None,27.2391691849989,None,,,,,,,,,,,,,,,,,,,,,,,,,,,,,,,,,,,,,,,,,,,,,,,,,,,,,,,,,,,,,,,,,,,,,,,,,,,,,,,,,,,,,,,,,,,,,,,,,,,,,,,,,,,,,,,,,,,,,,,,,,,,,,,,,,,,,,,,,,,102221,1,2,0,2,0,40,2021_Oct_22_1619,short_answer,3.2.4,60.15590630366084,
"Answer as much as you remember, and be specific and concrete in your answers. It is best to try to be as faithful as possible to what the story actually said.
",,0,2,2,2,,,,,,,,,,,,,,,,,space,8.386977784997725,32.70627572800004,None,32.70627572800004,None,32.70627572800004,None,,,,,,,,,,,,,,,,,,,,,,,,,,,,,,,,,,,,,,,,,,,,,,,,,,,,,,,,,,,,,,,,,,,,,,,,,,,,,,,,,,,,,,,,,,,,,,,,,,,,,,,,,,,,,,,,,,,,,,,,,,,,,,,,,,,,,,,,,,,102221,1,2,0,2,0,40,2021_Oct_22_1619,short_answer,3.2.4,60.15590630366084,
"When you have finished typing your answer, hit ‘return’ to submit your answer and move onto the next question. ",,0,3,3,3,,,,,,,,,,,,,,,,,space,5.010514000001422,41.1394540959991,None,41.1394540959991,None,41.1394540959991,None,,,,,,,,,,,,,,,,,,,,,,,,,,,,,,,,,,,,,,,,,,,,,,,,,,,,,,,,,,,,,,,,,,,,,,,,,,,,,,,,,,,,,,,,,,,,,,,,,,,,,,,,,,,,,,,,,,,,,,,,,,,,,,,,,,,,,,,,,,,102221,1,2,0,2,0,40,2021_Oct_22_1619,short_answer,3.2.4,60.15590630366084,
,0,,,,,0,0,0,0,0,0,0,0,,,,,,,,,,,,,,,,,46.18963408399941,None,space,17.778996714998357,46.18963408399941,None,46.18963408399941,None,46.18963408399941,None,64.05699085499873,None,64.05699085499873,None,"Simon pays with his credit card for both of them, it's $30",Guinea fowel or turkey,"[1, 2]",67.70639508299791,None,67.70639508299791,None,67.70639508299791,None,67.70639508299791,None,67.70639508299791,None,67.70639508299791,None,67.70639508299791,None,Isn't this meat cute,82.40655378999872,None,82.40655378999872,None,82.40655378999872,None,82.40655378999872,None,82.40655378999872,None,82.40655378999872,None,82.40655378999872,None,For dinner next week,105.23919358999774,None,105.23919358999774,None,105.23919358999774,None,105.23919358999774,None,105.23919358999774,None,105.23919358999774,None,105.23919358999774,None,3pm,110.95586738099882,None,110.95586738099882,None,110.95586738099882,None,110.95586738099882,None,110.95586738099882,None,110.95586738099882,None,110.95586738099882,None,,118.77234685599979,None,118.77234685599979,None,118.77234685599979,None,118.77234685599979,None,118.77234685599979,None,118.77234685599979,None,118.77234685599979,None,Stuff for kebobs and stuff for some asian dish,125.9059339359992,None,125.9059339359992,None,125.9059339359992,None,125.9059339359992,None,125.9059339359992,None,125.9059339359992,None,125.9059339359992,None,All of them and the 2nd,135.78908642799797,None,135.78908642799797,None,135.78908642799797,None,135.78908642799797,None,135.78908642799797,None,135.78908642799797,None,135.78908642799797,None,"Simon pays with his credit card for both of them, it's $30",143.272490258998,None,143.272490258998,None,143.272490258998,None,143.272490258998,None,143.272490258998,None,143.272490258998,None,143.272490258998,None,,,102221,1,2,0,2,0,40,2021_Oct_22_1619,short_answer,3.2.4,60.15590630366084,
,0,,,,,0,0,0,0,,,,,,,,,,,,,,,,,,,,,,,,,,,,,,,,,,,,,,,,,,,,,,,,,,,,,,,,,,,,,,,,,,,,,,,,,,,,,,,,,,,,,,,,,,,,,,,,,,,,,,,,,,,,,,,,,,,,,,,,,,,,,,,,,,,,,,,,,,,,,,,,,,,,,,,,,,,,,,,102221,1,2,0,2,0,40,2021_Oct_22_1619,short_answer,3.2.4,60.15590630366084,
,1,,,,,0,1,1,1,0,0,0,0,,,,,,,,,,,,,,,,,159.18779883899697,None,space,0.7463415599995642,159.18779883899697,None,159.18779883899697,None,159.18779883899697,None,159.97153703499862,None,159.97153703499862,None,Final exam the folowing tuesday,2 weeks,"[1, 2]",163.20468186799917,None,163.20468186799917,None,163.20468186799917,None,163.20468186799917,None,163.20468186799917,None,163.20468186799917,None,163.20468186799917,None,She is going abroad and wants to focus on that and not deal with a long distance relationship,168.12222371399912,None,168.12222371399912,None,168.12222371399912,None,168.12222371399912,None,168.12222371399912,None,168.12222371399912,None,168.12222371399912,None,"No, they can make it work from a distance, they have a good thing going",180.55564649699954,None,180.55564649699954,None,180.55564649699954,None,180.55564649699954,None,180.55564649699954,None,180.55564649699954,None,180.55564649699954,None,Maria wants her afgan sweater or kashmir sweater ,191.438202344998,None,191.438202344998,None,191.438202344998,None,191.438202344998,None,191.438202344998,None,191.438202344998,None,191.438202344998,None,Grand,205.92127846199946,None,205.92127846199946,None,205.92127846199946,None,205.92127846199946,None,205.92127846199946,None,205.92127846199946,None,205.92127846199946,None,Aristotle and the categories,208.7214436079994,None,208.7214436079994,None,208.7214436079994,None,208.7214436079994,None,208.7214436079994,None,208.7214436079994,None,208.7214436079994,None,Aristotle's thoughts on categories,215.2380806000001,None,215.2380806000001,None,215.2380806000001,None,215.2380806000001,None,215.2380806000001,None,215.2380806000001,None,215.2380806000001,None,Final exam the folowing tuesday,223.1382265329994,None,223.1382265329994,None,223.1382265329994,None,223.1382265329994,None,223.1382265329994,None,223.1382265329994,None,223.1382265329994,None,,,102221,1,2,0,2,0,40,2021_Oct_22_1619,short_answer,3.2.4,60.15590630366084,
,1,,,,,0,1,1,1,,,,,,,,,,,,,,,,,,,,,,,,,,,,,,,,,,,,,,,,,,,,,,,,,,,,,,,,,,,,,,,,,,,,,,,,,,,,,,,,,,,,,,,,,,,,,,,,,,,,,,,,,,,,,,,,,,,,,,,,,,,,,,,,,,,,,,,,,,,,,,,,,,,,,,,,,,,,,,,102221,1,2,0,2,0,40,2021_Oct_22_1619,short_answer,3.2.4,60.15590630366084,
,2,,,,,0,2,2,2,,,,,,,,,,,,,,,,,,,,,,,,,,,,,,,,,,,,,,,,,,,,,,,,,,,,,,,,,,,,,,,,,,,,,,,,,,,,,,,,,,,,,,,,,,,,,,,,,,,,,,,,,,,,,,,,,,,,,,,,,,,,,,,,,,,,,,,,,,,,,,,,,,,,,,,,,,,,,,,102221,1,2,0,2,0,40,2021_Oct_22_1619,short_answer,3.2.4,60.15590630366084,
,3,,,,,0,3,3,3,0,0,0,0,,,,,,,,,,,,,,,,,236.437493772999,None,space,0.7949861550005153,236.437493772999,None,236.437493772999,None,236.437493772999,None,237.27020371899926,None,237.27020371899926,None,Business class 4a,Wine maker and wine distributor,"[1, 2]",238.12098426899684,None,238.12098426899684,None,238.12098426899684,None,238.12098426899684,None,238.12098426899684,None,238.12098426899684,None,238.12098426899684,None,800,247.32058300399876,None,247.32058300399876,None,247.32058300399876,None,247.32058300399876,None,247.32058300399876,None,247.32058300399876,None,247.32058300399876,None,,250.32008231999862,None,250.32008231999862,None,250.32008231999862,None,250.32008231999862,None,250.32008231999862,None,250.32008231999862,None,250.32008231999862,None,Handshake,252.77123265099726,None,252.77123265099726,None,252.77123265099726,None,252.77123265099726,None,252.77123265099726,None,252.77123265099726,None,252.77123265099726,None,,255.97100855600002,None,255.97100855600002,None,255.97100855600002,None,255.97100855600002,None,255.97100855600002,None,255.97100855600002,None,255.97100855600002,None,Replace the bins,259.4043202469984,None,259.4043202469984,None,259.4043202469984,None,259.4043202469984,None,259.4043202469984,None,259.4043202469984,None,259.4043202469984,None,20a ,272.02067570299914,None,272.02067570299914,None,272.02067570299914,None,272.02067570299914,None,272.02067570299914,None,272.02067570299914,None,272.02067570299914,None,Business class 4a,278.0042433439994,None,278.0042433439994,None,278.0042433439994,None,278.0042433439994,None,278.0042433439994,None,278.0042433439994,None,278.0042433439994,None,,,102221,1,2,0,2,0,40,2021_Oct_22_1619,short_answer,3.2.4,60.15590630366084,
,3,,,,,0,3,3,3,,,,,,,,,,,,,,,,,,,,,,,,,,,,,,,,,,,,,,,,,,,,,,,,,,,,,,,,,,,,,,,,,,,,,,,,,,,,,,,,,,,,,,,,,,,,,,,,,,,,,,,,,,,,,,,,,,,,,,,,,,,,,,,,,,,,,,,,,,,,,,,,,,,,,,,,,,,,,,,102221,1,2,0,2,0,40,2021_Oct_22_1619,short_answer,3.2.4,60.15590630366084,
,4,,,,,0,4,4,4,0,0,0,0,,,,,,,,,,,,,,,,,283.4039440549968,None,space,0.8169693680029013,283.4039440549968,None,283.4039440549968,None,283.4039440549968,None,284.27046236099704,None,284.27046236099704,None,Economy different seats 36 and 24,4 months,"[1, 2]",286.77110323799934,None,286.77110323799934,None,286.77110323799934,None,286.77110323799934,None,286.77110323799934,None,286.77110323799934,None,286.77110323799934,None,They're personalities don't mesh,289.52065941499677,None,289.52065941499677,None,289.52065941499677,None,289.52065941499677,None,289.52065941499677,None,289.52065941499677,None,289.52065941499677,None,Not at first,297.87063543399927,None,297.87063543399927,None,297.87063543399927,None,297.87063543399927,None,297.87063543399927,None,297.87063543399927,None,297.87063543399927,None,She wants her beatles posters back and he can't believe she asked,303.7704689949969,None,303.7704689949969,None,303.7704689949969,None,303.7704689949969,None,303.7704689949969,None,303.7704689949969,None,303.7704689949969,None,,314.06947337699967,None,314.06947337699967,None,314.06947337699967,None,314.06947337699967,None,314.06947337699967,None,314.06947337699967,None,314.06947337699967,None,,318.686057996998,None,318.686057996998,None,318.686057996998,None,318.686057996998,None,318.686057996998,None,318.686057996998,None,318.686057996998,None,,327.0366021739974,None,327.0366021739974,None,327.0366021739974,None,327.0366021739974,None,327.0366021739974,None,327.0366021739974,None,327.0366021739974,None,Economy different seats 36 and 24,328.6193672289992,None,328.6193672289992,None,328.6193672289992,None,328.6193672289992,None,328.6193672289992,None,328.6193672289992,None,328.6193672289992,None,,,102221,1,2,0,2,0,40,2021_Oct_22_1619,short_answer,3.2.4,60.15590630366084,
,4,,,,,0,4,4,4,,,,,,,,,,,,,,,,,,,,,,,,,,,,,,,,,,,,,,,,,,,,,,,,,,,,,,,,,,,,,,,,,,,,,,,,,,,,,,,,,,,,,,,,,,,,,,,,,,,,,,,,,,,,,,,,,,,,,,,,,,,,,,,,,,,,,,,,,,,,,,,,,,,,,,,,,,,,,,,102221,1,2,0,2,0,40,2021_Oct_22_1619,short_answer,3.2.4,60.15590630366084,
,5,,,,,0,5,5,5,0,0,0,0,,,,,,,,,,,,,,,,,338.6352937899974,None,space,0.6678312260009989,338.6352937899974,None,338.6352937899974,None,338.6352937899974,None,339.3529465009997,None,339.3529465009997,None,Hug,,"[2, 1]",341.60313562999727,None,341.60313562999727,None,341.60313562999727,None,341.60313562999727,None,341.60313562999727,None,341.60313562999727,None,341.60313562999727,None,Mumification,343.55300511999667,None,343.55300511999667,None,343.55300511999667,None,343.55300511999667,None,343.55300511999667,None,343.55300511999667,None,343.55300511999667,None,Mumification,349.10329468299824,None,349.10329468299824,None,349.10329468299824,None,349.10329468299824,None,349.10329468299824,None,349.10329468299824,None,349.10329468299824,None,First quiz on mumification this friday,352.4363583819977,None,352.4363583819977,None,352.4363583819977,None,352.4363583819977,None,352.4363583819977,None,352.4363583819977,None,352.4363583819977,None,Charlie is in the investment group and alma is a web developer,361.4361380479968,None,361.4361380479968,None,361.4361380479968,None,361.4361380479968,None,361.4361380479968,None,361.4361380479968,None,361.4361380479968,None,"26,000",374.5531147019974,None,374.5531147019974,None,374.5531147019974,None,374.5531147019974,None,374.5531147019974,None,374.5531147019974,None,374.5531147019974,None,,384.25301647000015,None,384.25301647000015,None,384.25301647000015,None,384.25301647000015,None,384.25301647000015,None,384.25301647000015,None,384.25301647000015,None,Hug,386.2190495179966,None,386.2190495179966,None,386.2190495179966,None,386.2190495179966,None,386.2190495179966,None,386.2190495179966,None,386.2190495179966,None,,,102221,1,2,0,2,0,40,2021_Oct_22_1619,short_answer,3.2.4,60.15590630366084,
,5,,,,,0,5,5,5,,,,,,,,,,,,,,,,,,,,,,,,,,,,,,,,,,,,,,,,,,,,,,,,,,,,,,,,,,,,,,,,,,,,,,,,,,,,,,,,,,,,,,,,,,,,,,,,,,,,,,,,,,,,,,,,,,,,,,,,,,,,,,,,,,,,,,,,,,,,,,,,,,,,,,,,,,,,,,,102221,1,2,0,2,0,40,2021_Oct_22_1619,short_answer,3.2.4,60.15590630366084,
,6,,,,,0,6,6,6,,,,,,,,,,,,,,,,,,,,,,,,,,,,,,,,,,,,,,,,,,,,,,,,,,,,,,,,,,,,,,,,,,,,,,,,,,,,,,,,,,,,,,,,,,,,,,,,,,,,,,,,,,,,,,,,,,,,,,,,,,,,,,,,,,,,,,,,,,,,,,,,,,,,,,,,,,,,,,,102221,1,2,0,2,0,40,2021_Oct_22_1619,short_answer,3.2.4,60.15590630366084,
,7,,,,,0,7,7,7,0,0,0,0,,,,,,,,,,,,,,,,,388.8842394869971,None,space,1.0683233400013705,388.8842394869971,None,388.8842394869971,None,388.8842394869971,None,389.9856368919973,None,389.9856368919973,None,Theh both like their food,"Phone, she walks into a wall","[1, 2]",391.91953721999744,None,391.91953721999744,None,391.91953721999744,None,391.91953721999744,None,391.91953721999744,None,391.91953721999744,None,391.91953721999744,None,James asks her if her head still hurts,398.23569219699857,None,398.23569219699857,None,398.23569219699857,None,398.23569219699857,None,398.23569219699857,None,398.23569219699857,None,398.23569219699857,None,That night they are going to a concert of an egyptian musician,407.11830440999984,None,407.11830440999984,None,407.11830440999984,None,407.11830440999984,None,407.11830440999984,None,407.11830440999984,None,407.11830440999984,None,3pm james has to  leave,416.902454021998,None,416.902454021998,None,416.902454021998,None,416.902454021998,None,416.902454021998,None,416.902454021998,None,416.902454021998,None,Like a japanese restaurant,421.5349372009987,None,421.5349372009987,None,421.5349372009987,None,421.5349372009987,None,421.5349372009987,None,421.5349372009987,None,421.5349372009987,None,Japanese,428.05116474199895,None,428.05116474199895,None,428.05116474199895,None,428.05116474199895,None,428.05116474199895,None,428.05116474199895,None,428.05116474199895,None,"She orders a japanese beer and a salmon roll, he orders a vegetable and salmon roll",432.80054506599845,None,432.80054506599845,None,432.80054506599845,None,432.80054506599845,None,432.80054506599845,None,432.80054506599845,None,432.80054506599845,None,Theh both like their food,456.71845494699664,None,456.71845494699664,None,456.71845494699664,None,456.71845494699664,None,456.71845494699664,None,456.71845494699664,None,456.71845494699664,None,,,102221,1,2,0,2,0,40,2021_Oct_22_1619,short_answer,3.2.4,60.15590630366084,
,7,,,,,0,7,7,7,,,,,,,,,,,,,,,,,,,,,,,,,,,,,,,,,,,,,,,,,,,,,,,,,,,,,,,,,,,,,,,,,,,,,,,,,,,,,,,,,,,,,,,,,,,,,,,,,,,,,,,,,,,,,,,,,,,,,,,,,,,,,,,,,,,,,,,,,,,,,,,,,,,,,,,,,,,,,,,102221,1,2,0,2,0,40,2021_Oct_22_1619,short_answer,3.2.4,60.15590630366084,
,8,,,,,0,8,8,8,0,0,0,0,,,,,,,,,,,,,,,,,461.4682278699984,None,space,0.6938996099997894,461.4682278699984,None,461.4682278699984,None,461.4682278699984,None,462.20152221899843,None,462.20152221899843,None,,"She has 35 minutes, he has 3 hours","[2, 1]",464.6518357379973,None,464.6518357379973,None,464.6518357379973,None,464.6518357379973,None,464.6518357379973,None,464.6518357379973,None,464.6518357379973,None,Someone has a lot of metalic objects in front of them,470.5349369229989,None,470.5349369229989,None,470.5349369229989,None,470.5349369229989,None,470.5349369229989,None,470.5349369229989,None,470.5349369229989,None,,478.8850561449981,None,478.8850561449981,None,478.8850561449981,None,478.8850561449981,None,478.8850561449981,None,478.8850561449981,None,478.8850561449981,None,,480.517933633997,None,480.517933633997,None,480.517933633997,None,480.517933633997,None,480.517933633997,None,480.517933633997,None,480.517933633997,None,Her luggage,487.20160095699975,None,487.20160095699975,None,487.20160095699975,None,487.20160095699975,None,487.20160095699975,None,487.20160095699975,None,487.20160095699975,None,Were you/are you a gynmist,495.500732597,None,495.500732597,None,495.500732597,None,495.500732597,None,495.500732597,None,495.500732597,None,495.500732597,None,When they get back from their trips for dinner,503.401847891997,None,503.401847891997,None,503.401847891997,None,503.401847891997,None,503.401847891997,None,503.401847891997,None,503.401847891997,None,,510.0000429929969,None,510.0000429929969,None,510.0000429929969,None,510.0000429929969,None,510.0000429929969,None,510.0000429929969,None,510.0000429929969,None,,,102221,1,2,0,2,0,40,2021_Oct_22_1619,short_answer,3.2.4,60.15590630366084,
,8,,,,,0,8,8,8,,,,,,,,,,,,,,,,,,,,,,,,,,,,,,,,,,,,,,,,,,,,,,,,,,,,,,,,,,,,,,,,,,,,,,,,,,,,,,,,,,,,,,,,,,,,,,,,,,,,,,,,,,,,,,,,,,,,,,,,,,,,,,,,,,,,,,,,,,,,,,,,,,,,,,,,,,,,,,,102221,1,2,0,2,0,40,2021_Oct_22_1619,short_answer,3.2.4,60.15590630366084,
,9,,,,,0,9,9,9,,,,,,,,,,,,,,,,,,,,,,,,,,,,,,,,,,,,,,,,,,,,,,,,,,,,,,,,,,,,,,,,,,,,,,,,,,,,,,,,,,,,,,,,,,,,,,,,,,,,,,,,,,,,,,,,,,,,,,,,,,,,,,,,,,,,,,,,,,,,,,,,,,,,,,,,,,,,,,,102221,1,2,0,2,0,40,2021_Oct_22_1619,short_answer,3.2.4,60.15590630366084,
,10,,,,,0,10,10,10,0,0,0,0,,,,,,,,,,,,,,,,,511.93371182499686,None,space,0.9093132149973826,511.93371182499686,None,511.93371182499686,None,511.93371182499686,None,512.8831693719985,None,512.8831693719985,None,Cat,Big,"[2, 1]",514.1333749789992,None,514.1333749789992,None,514.1333749789992,None,514.1333749789992,None,514.1333749789992,None,514.1333749789992,None,514.1333749789992,None,Pasta,517.1511928399996,None,517.1511928399996,None,517.1511928399996,None,517.1511928399996,None,517.1511928399996,None,517.1511928399996,None,517.1511928399996,None,,519.4512920259986,None,519.4512920259986,None,519.4512920259986,None,519.4512920259986,None,519.4512920259986,None,519.4512920259986,None,519.4512920259986,None,,522.3683834229996,None,522.3683834229996,None,522.3683834229996,None,522.3683834229996,None,522.3683834229996,None,522.3683834229996,None,522.3683834229996,None,4 months,525.5845451979985,None,525.5845451979985,None,525.5845451979985,None,525.5845451979985,None,525.5845451979985,None,525.5845451979985,None,525.5845451979985,None,They argue and bicker too much,529.1008237209971,None,529.1008237209971,None,529.1008237209971,None,529.1008237209971,None,529.1008237209971,None,529.1008237209971,None,529.1008237209971,None,"I think he's okay with it, he agrees they argue too much",535.900629025,None,535.900629025,None,535.900629025,None,535.900629025,None,535.900629025,None,535.900629025,None,535.900629025,None,Cat,548.6511180339985,None,548.6511180339985,None,548.6511180339985,None,548.6511180339985,None,548.6511180339985,None,548.6511180339985,None,548.6511180339985,None,,,102221,1,2,0,2,0,40,2021_Oct_22_1619,short_answer,3.2.4,60.15590630366084,
,10,,,,,0,10,10,10,,,,,,,,,,,,,,,,,,,,,,,,,,,,,,,,,,,,,,,,,,,,,,,,,,,,,,,,,,,,,,,,,,,,,,,,,,,,,,,,,,,,,,,,,,,,,,,,,,,,,,,,,,,,,,,,,,,,,,,,,,,,,,,,,,,,,,,,,,,,,,,,,,,,,,,,,,,,,,,102221,1,2,0,2,0,40,2021_Oct_22_1619,short_answer,3.2.4,60.15590630366084,
,11,,,,,0,11,11,11,0,0,0,0,,,,,,,,,,,,,,,,,552.1168793059987,None,space,0.8365330039996479,552.1168793059987,None,552.1168793059987,None,552.1168793059987,None,552.9997838469972,None,552.9997838469972,None,,Notebook or pen,"[1, 2]",557.6837149940002,None,557.6837149940002,None,557.6837149940002,None,557.6837149940002,None,557.6837149940002,None,557.6837149940002,None,557.6837149940002,None,Are you from la you look familiar,566.5505305309998,None,566.5505305309998,None,566.5505305309998,None,566.5505305309998,None,566.5505305309998,None,566.5505305309998,None,566.5505305309998,None,,572.0168560909988,None,572.0168560909988,None,572.0168560909988,None,572.0168560909988,None,572.0168560909988,None,572.0168560909988,None,572.0168560909988,None,3pm,575.2172596829987,None,575.2172596829987,None,575.2172596829987,None,575.2172596829987,None,575.2172596829987,None,575.2172596829987,None,575.2172596829987,None,,578.150098023998,None,578.150098023998,None,578.150098023998,None,578.150098023998,None,578.150098023998,None,578.150098023998,None,578.150098023998,None,,580.0329436339998,None,580.0329436339998,None,580.0329436339998,None,580.0329436339998,None,580.0329436339998,None,580.0329436339998,None,580.0329436339998,None,,583.8833204869989,None,583.8833204869989,None,583.8833204869989,None,583.8833204869989,None,583.8833204869989,None,583.8833204869989,None,583.8833204869989,None,,585.0331865070002,None,585.0331865070002,None,585.0331865070002,None,585.0331865070002,None,585.0331865070002,None,585.0331865070002,None,585.0331865070002,None,,,102221,1,2,0,2,0,40,2021_Oct_22_1619,short_answer,3.2.4,60.15590630366084,
,11,,,,,0,11,11,11,,,,,,,,,,,,,,,,,,,,,,,,,,,,,,,,,,,,,,,,,,,,,,,,,,,,,,,,,,,,,,,,,,,,,,,,,,,,,,,,,,,,,,,,,,,,,,,,,,,,,,,,,,,,,,,,,,,,,,,,,,,,,,,,,,,,,,,,,,,,,,,,,,,,,,,,,,,,,,,102221,1,2,0,2,0,40,2021_Oct_22_1619,short_answer,3.2.4,60.15590630366084,
,12,,,,,0,12,12,12,0,0,0,0,,,,,,,,,,,,,,,,,587.3492559239967,None,space,0.846294218001276,587.3492559239967,None,587.3492559239967,None,587.3492559239967,None,588.232183655,None,588.232183655,None,First class 2a and 2b,,"[1, 2]",589.2832846919991,None,589.2832846919991,None,589.2832846919991,None,589.2832846919991,None,589.2832846919991,None,589.2832846919991,None,589.2832846919991,None,"1 diamond, silver",594.1826852159975,None,594.1826852159975,None,594.1826852159975,None,594.1826852159975,None,594.1826852159975,None,594.1826852159975,None,594.1826852159975,None,Out of his pocket,601.033781312999,None,601.033781312999,None,601.033781312999,None,601.033781312999,None,601.033781312999,None,601.033781312999,None,601.033781312999,None,Her best friend,607.3992136789966,None,607.3992136789966,None,607.3992136789966,None,607.3992136789966,None,607.3992136789966,None,607.3992136789966,None,607.3992136789966,None,,618.233386644999,None,618.233386644999,None,618.233386644999,None,618.233386644999,None,618.233386644999,None,618.233386644999,None,618.233386644999,None,Someone in front of them has too much metal and she needs to find her laptop in her bag,621.1827232469986,None,621.1827232469986,None,621.1827232469986,None,621.1827232469986,None,621.1827232469986,None,621.1827232469986,None,621.1827232469986,None,,639.4831975649977,None,639.4831975649977,None,639.4831975649977,None,639.4831975649977,None,639.4831975649977,None,639.4831975649977,None,639.4831975649977,None,First class 2a and 2b,640.8829279679994,None,640.8829279679994,None,640.8829279679994,None,640.8829279679994,None,640.8829279679994,None,640.8829279679994,None,640.8829279679994,None,,,102221,1,2,0,2,0,40,2021_Oct_22_1619,short_answer,3.2.4,60.15590630366084,
,12,,,,,0,12,12,12,,,,,,,,,,,,,,,,,,,,,,,,,,,,,,,,,,,,,,,,,,,,,,,,,,,,,,,,,,,,,,,,,,,,,,,,,,,,,,,,,,,,,,,,,,,,,,,,,,,,,,,,,,,,,,,,,,,,,,,,,,,,,,,,,,,,,,,,,,,,,,,,,,,,,,,,,,,,,,,102221,1,2,0,2,0,40,2021_Oct_22_1619,short_answer,3.2.4,60.15590630366084,
,13,,,,,0,13,13,13,,,,,,,,,,,,,,,,,,,,,,,,,,,,,,,,,,,,,,,,,,,,,,,,,,,,,,,,,,,,,,,,,,,,,,,,,,,,,,,,,,,,,,,,,,,,,,,,,,,,,,,,,,,,,,,,,,,,,,,,,,,,,,,,,,,,,,,,,,,,,,,,,,,,,,,,,,,,,,,102221,1,2,0,2,0,40,2021_Oct_22_1619,short_answer,3.2.4,60.15590630366084,
,14,,,,,0,14,14,14,0,0,0,0,,,,,,,,,,,,,,,,,649.5647287579995,None,space,0.6455275530024664,649.5647287579995,None,649.5647287579995,None,649.5647287579995,None,650.2489025109971,None,650.2489025109971,None,,,"[1, 2]",651.0654187829969,None,651.0654187829969,None,651.0654187829969,None,651.0654187829969,None,651.0654187829969,None,651.0654187829969,None,651.0654187829969,None,5 red,653.4822004289999,None,653.4822004289999,None,653.4822004289999,None,653.4822004289999,None,653.4822004289999,None,653.4822004289999,None,653.4822004289999,None,Notebook,655.9825077739988,None,655.9825077739988,None,655.9825077739988,None,655.9825077739988,None,655.9825077739988,None,655.9825077739988,None,655.9825077739988,None,,658.5658971029989,None,658.5658971029989,None,658.5658971029989,None,658.5658971029989,None,658.5658971029989,None,658.5658971029989,None,658.5658971029989,None,"Most beautiful in princeton, large windows and high cielings",661.6490752419995,None,661.6490752419995,None,661.6490752419995,None,661.6490752419995,None,661.6490752419995,None,661.6490752419995,None,661.6490752419995,None,"Intro to chemistry, about the periodic table, how many protons are in sodium",671.4489365019981,None,671.4489365019981,None,671.4489365019981,None,671.4489365019981,None,671.4489365019981,None,671.4489365019981,None,671.4489365019981,None,How many protons are in sodium,689.6653925779974,None,689.6653925779974,None,689.6653925779974,None,689.6653925779974,None,689.6653925779974,None,689.6653925779974,None,689.6653925779974,None,,696.6820566360002,None,696.6820566360002,None,696.6820566360002,None,696.6820566360002,None,696.6820566360002,None,696.6820566360002,None,696.6820566360002,None,,,102221,1,2,0,2,0,40,2021_Oct_22_1619,short_answer,3.2.4,60.15590630366084,
,14,,,,,0,14,14,14,,,,,,,,,,,,,,,,,,,,,,,,,,,,,,,,,,,,,,,,,,,,,,,,,,,,,,,,,,,,,,,,,,,,,,,,,,,,,,,,,,,,,,,,,,,,,,,,,,,,,,,,,,,,,,,,,,,,,,,,,,,,,,,,,,,,,,,,,,,,,,,,,,,,,,,,,,,,,,,102221,1,2,0,2,0,40,2021_Oct_22_1619,short_answer,3.2.4,60.15590630366084,
,15,,,,,0,15,15,15,0,0,0,0,,,,,,,,,,,,,,,,,704.3478551799999,None,space,1.0502727169987338,704.3478551799999,None,704.3478551799999,None,704.3478551799999,None,705.4313844609969,None,705.4313844609969,None,"Does not like it, it tastes fishuy",,"[1, 2]",706.3487341479995,None,706.3487341479995,None,706.3487341479995,None,706.3487341479995,None,706.3487341479995,None,706.3487341479995,None,706.3487341479995,None,He wants to focus on his career,708.8151711259998,None,708.8151711259998,None,708.8151711259998,None,708.8151711259998,None,708.8151711259998,None,708.8151711259998,None,708.8151711259998,None,"No she does not, she can give him space",718.5318157479996,None,718.5318157479996,None,718.5318157479996,None,718.5318157479996,None,718.5318157479996,None,718.5318157479996,None,718.5318157479996,None,,725.9971403469972,None,725.9971403469972,None,725.9971403469972,None,725.9971403469972,None,725.9971403469972,None,725.9971403469972,None,725.9971403469972,None,70s themed with checkered floor,729.3811720839985,None,729.3811720839985,None,729.3811720839985,None,729.3811720839985,None,729.3811720839985,None,729.3811720839985,None,729.3811720839985,None,,736.1813653929967,None,736.1813653929967,None,736.1813653929967,None,736.1813653929967,None,736.1813653929967,None,736.1813653929967,None,736.1813653929967,None,He orders a burger and she ordeers a reuben,737.8485941439976,None,737.8485941439976,None,737.8485941439976,None,737.8485941439976,None,737.8485941439976,None,737.8485941439976,None,737.8485941439976,None,"Does not like it, it tastes fishuy",743.497916475997,None,743.497916475997,None,743.497916475997,None,743.497916475997,None,743.497916475997,None,743.497916475997,None,743.497916475997,None,,,102221,1,2,0,2,0,40,2021_Oct_22_1619,short_answer,3.2.4,60.15590630366084,
,15,,,,,0,15,15,15,,,,,,,,,,,,,,,,,,,,,,,,,,,,,,,,,,,,,,,,,,,,,,,,,,,,,,,,,,,,,,,,,,,,,,,,,,,,,,,,,,,,,,,,,,,,,,,,,,,,,,,,,,,,,,,,,,,,,,,,,,,,,,,,,,,,,,,,,,,,,,,,,,,,,,,,,,,,,,,102221,1,2,0,2,0,40,2021_Oct_22_1619,short_answer,3.2.4,60.15590630366084,
,,,,,,,,,,,,,,0,0,0,0,,,,,,,,,,,,,,,,,,,,,,,,,,,,,,,,,,,,,,,,,,,,,,,,,,,,,,,,,,,,,,,,,,,,,,,,,,,,,,,,,,,,,,,,,,,,,,,,,,,,,,,,,,,,,,,,,,,,,,,,,,,,,,,,,,,,,,,,,,,,,,,,,,,,,749.397554064999,None,102221,1,2,0,2,0,40,2021_Oct_22_1619,short_answer,3.2.4,60.15590630366084,
