count,audio,trials_14.thisRepN,trials_14.thisTrialN,trials_14.thisN,trials_14.thisIndex,trials_3.thisRepN,trials_3.thisTrialN,trials_3.thisN,trials_3.thisIndex,trials_4.thisRepN,trials_4.thisTrialN,trials_4.thisN,trials_4.thisIndex,trials_6.thisRepN,trials_6.thisTrialN,trials_6.thisN,trials_6.thisIndex,trials_9.thisRepN,trials_9.thisTrialN,trials_9.thisN,trials_9.thisIndex,trials_10.thisRepN,trials_10.thisTrialN,trials_10.thisN,trials_10.thisIndex,trials_12.thisRepN,trials_12.thisTrialN,trials_12.thisN,trials_12.thisIndex,trials_25.thisRepN,trials_25.thisTrialN,trials_25.thisN,trials_25.thisIndex,trials_15.thisRepN,trials_15.thisTrialN,trials_15.thisN,trials_15.thisIndex,trials_26.thisRepN,trials_26.thisTrialN,trials_26.thisN,trials_26.thisIndex,trials_11.thisRepN,trials_11.thisTrialN,trials_11.thisN,trials_11.thisIndex,trials_8.thisRepN,trials_8.thisTrialN,trials_8.thisN,trials_8.thisIndex,story_list_block2,action_list_block2,textTrigger.started,textTrigger.stopped,getTrigger.keys,getTrigger.rt,getTrigger.started,getTrigger.stopped,triggerTime,text_76.started,text_76.stopped,text_77.started,text_77.stopped,startWait,endWait,image_23.started,image_23.stopped,text_55.started,text_55.stopped,text_56.started,text_56.stopped,key_resp_2.keys,key_resp_2.rt,key_resp_2.started,key_resp_2.stopped,text_82.started,text_82.stopped,text_64.started,text_64.stopped,key_resp_20.keys,key_resp_20.rt,key_resp_20.started,key_resp_20.stopped,storyImage_StartTime,storyImage_EndTime,clip_StartTime,clip_EndTime,text_67.started,text_67.stopped,text_68.started,text_68.stopped,text_57.started,text_57.stopped,key_resp_17.keys,key_resp_17.rt,key_resp_17.started,key_resp_17.stopped,text_83.started,text_83.stopped,text_60.started,text_60.stopped,image_2.started,image_2.stopped,text_58.started,text_58.stopped,key_resp_23.keys,key_resp_23.rt,key_resp_23.started,key_resp_23.stopped,text_62.started,text_62.stopped,key_resp_18.keys,key_resp_18.rt,key_resp_18.started,key_resp_18.stopped,text_84.started,text_84.stopped,question1_2.started,question1_2.stopped,question2_2.started,question2_2.stopped,question3_2.started,question3_2.stopped,question4_2.started,question4_2.stopped,question5_2.started,question5_2.stopped,question6_2.started,question6_2.stopped,image_15.started,image_15.stopped,key_resp.keys,key_resp.started,key_resp.stopped,text_59.started,text_59.stopped,key_resp_19.keys,key_resp_19.rt,key_resp_19.started,key_resp_19.stopped,text_85.started,text_85.stopped,text_61.started,text_61.stopped,image_17.started,image_17.stopped,text_63.started,text_63.stopped,key_resp_24.keys,key_resp_24.rt,key_resp_24.started,key_resp_24.stopped,text_36.started,text_36.stopped,participant,sA,sB,lA,lB,block_struct,play_stories,block,behavioral,random_seed,date,expName,psychopyVersion,frameRate,
0,parcelated_audio/42/42_1.ogg,,,,,,,,,0,0,0,0,0,0,0,0,0,0,0,0,,,,,,,,,0,0,0,0,0,0,0,0,,,,,,,,,,,,,[42 33 13 44 22 31 24 11],[4 3 2 4 1 3 1 2],18.41056844999912,None,equal,34.34455991300092,18.41056844999912,None,34.369635403001666,18.41056844999912,None,18.41056844999912,None,0.0003600919990276452,6.025585298999431,52.794803108999986,None,58.8100216999992,None,58.8100216999992,None,6,1.1801120460004313,58.8100216999992,None,58.8100216999992,None,60.011100155999884,None,7,2.329934561999835,60.011100155999884,None,9.590244227998483,12.598724495999704,12.606871517999025,20.99944747599875,,,,,,,,,,,,,,,,,,,,,,,,,,,,,,,,,,,,,,,,,,,,,,,,,,,,,,,,,,,,,,,,,,,,102221,1,2,0,2,0,1,2,0,40,2021_Oct_22_1519,listening_fmri,3.2.4,59.9459075704858,
0,parcelated_audio/42/42_2.ogg,,,,,,,,,0,0,0,0,0,0,0,0,0,0,0,0,,,,,,,,,0,0,0,0,0,1,1,1,,,,,,,,,,,,,,,,,,,,,,,,,,,,,,,,,,,,,,,,,,,,,,,,20.9999716659986,33.72260277299938,,,,,,,,,,,,,,,,,,,,,,,,,,,,,,,,,,,,,,,,,,,,,,,,,,,,,,,,,,,,,,,,,,,,102221,1,2,0,2,0,1,2,0,40,2021_Oct_22_1519,listening_fmri,3.2.4,59.9459075704858,
0,parcelated_audio/42/42_3.ogg,,,,,,,,,0,0,0,0,0,0,0,0,0,0,0,0,,,,,,,,,0,0,0,0,0,2,2,2,,,,,,,,,,,,,,,,,,,,,,,,,,,,,,,,,,,,,,,,,,,,,,,,33.722928179999144,44.11705987200003,,,,,,,,,,,,,,,,,,,,,,,,,,,,,,,,,,,,,,,,,,,,,,,,,,,,,,,,,,,,,,,,,,,,102221,1,2,0,2,0,1,2,0,40,2021_Oct_22_1519,listening_fmri,3.2.4,59.9459075704858,
0,parcelated_audio/42/42_4.ogg,,,,,,,,,0,0,0,0,0,0,0,0,0,0,0,0,,,,,,,,,0,0,0,0,0,3,3,3,,,,,,,,,,,,,,,,,,,,,,,,,,,,,,,,,,,,,,,,,,,,,,,,44.11733066399938,57.82456346099934,,,,,,,,,,,,,,,,,,,,,,,,,,,,,,,,,,,,,,,,,,,,,,,,,,,,,,,,,,,,,,,,,,,,102221,1,2,0,2,0,1,2,0,40,2021_Oct_22_1519,listening_fmri,3.2.4,59.9459075704858,
0,parcelated_audio/42/42_5.ogg,,,,,,,,,0,0,0,0,0,0,0,0,0,0,0,0,,,,,,,,,0,0,0,0,0,4,4,4,,,,,,,,,,,,,,,,,,,,,,,,,,,,,,,,,,,,,,,,,,,,,,,,57.82483599999978,69.27908773299896,,,,,,,,,,,,,,,,,,,,,,,,,,,,,,,,,,,,,,,,,,,,,,,,,,,,,,,,,,,,,,,,,,,,102221,1,2,0,2,0,1,2,0,40,2021_Oct_22_1519,listening_fmri,3.2.4,59.9459075704858,
0,parcelated_audio/42/42_6.ogg,,,,,,,,,0,0,0,0,0,0,0,0,0,0,0,0,,,,,,,,,0,0,0,0,0,5,5,5,,,,,,,,,,,,,,,,,,,,,,,,,,,,,,,,,,,,,,,,,,,,,,,,69.27953632999925,75.7768226929984,,,,,,,,,,,,,,,,,,,,,,,,,,,,,,,,,,,,,,,,,,,,,,,,,,,,,,,,,,,,,,,,,,,,102221,1,2,0,2,0,1,2,0,40,2021_Oct_22_1519,listening_fmri,3.2.4,59.9459075704858,
0,parcelated_audio/42/42_7.ogg,,,,,,,,,0,0,0,0,0,0,0,0,0,0,0,0,,,,,,,,,0,0,0,0,0,6,6,6,,,,,,,,,,,,,,,,,,,,,,,,,,,,,,,,,,,,,,,,,,,,,,,,75.77725264999935,80.96058715199979,,,,,,,,,,,,,,,,,,,,,,,,,,,,,,,,,,,,,,,,,,,,,,,,,,,,,,,,,,,,,,,,,,,,102221,1,2,0,2,0,1,2,0,40,2021_Oct_22_1519,listening_fmri,3.2.4,59.9459075704858,
0,parcelated_audio/42/42_8.ogg,,,,,,,,,0,0,0,0,0,0,0,0,0,0,0,0,,,,,,,,,0,0,0,0,0,7,7,7,,,,,,,,,,,,,,,,,,,,,,,,,,,,,,,,,,,,,,,,,,,,,,,,80.96102865699868,84.11732427099923,,,,,,,,,,,,,,,,,,,,,,,,,,,,,,,,,,,,,,,,,,,,,,,,,,,,,,,,,,,,,,,,,,,,102221,1,2,0,2,0,1,2,0,40,2021_Oct_22_1519,listening_fmri,3.2.4,59.9459075704858,
0,parcelated_audio/42/42_9.ogg,,,,,,,,,0,0,0,0,0,0,0,0,0,0,0,0,,,,,,,,,0,0,0,0,0,8,8,8,,,,,,,,,,,,,,,,,,,,,,,,,,,,,,,,,,,,,,,,,,,,,,,,84.11759429799895,92.66999257299904,,,,,,,,,,,,,,,,,,,,,,,,,,,,,,,,,,,,,,,,,,,,,,,,,,,,,,,,,,,,,,,,,,,,102221,1,2,0,2,0,1,2,0,40,2021_Oct_22_1519,listening_fmri,3.2.4,59.9459075704858,
0,parcelated_audio/42/42_10.ogg,,,,,,,,,0,0,0,0,0,0,0,0,0,0,0,0,,,,,,,,,0,0,0,0,0,9,9,9,,,,,,,,,,,,,,,,,,,,,,,,,,,,,,,,,,,,,,,,,,,,,,,,92.67039178499908,97.00245364599868,,,,,,,,,,,,,,,,,,,,,,,,,,,,,,,,,,,,,,,,,,,,,,,,,,,,,,,,,,,,,,,,,,,,102221,1,2,0,2,0,1,2,0,40,2021_Oct_22_1519,listening_fmri,3.2.4,59.9459075704858,
0,parcelated_audio/42/42_11.ogg,,,,,,,,,0,0,0,0,0,0,0,0,0,0,0,0,,,,,,,,,0,0,0,0,0,10,10,10,,,,,,,,,,,,,,,,,,,,,,,,,,,,,,,,,,,,,,,,,,,,,,,,97.00274793299832,102.00263205999909,,,,,,,,,,,,,,,,,,,,,,,,,,,,,,,,,,,,,,,,,,,,,,,,,,,,,,,,,,,,,,,,,,,,102221,1,2,0,2,0,1,2,0,40,2021_Oct_22_1519,listening_fmri,3.2.4,59.9459075704858,
0,parcelated_audio/42/42_12.ogg,,,,,,,,,0,0,0,0,0,0,0,0,0,0,0,0,,,,,,,,,0,0,0,0,0,11,11,11,,,,,,,,,,,,,,,,,,,,,,,,,,,,,,,,,,,,,,,,,,,,,,,,102.00303713999892,107.97153299099955,,,,,,,,,,,,,,,,,,,,,,,,,,,,,,,,,,,,,,,,,,,,,,,,,,,,,,,,,,,,,,,,,,,,102221,1,2,0,2,0,1,2,0,40,2021_Oct_22_1519,listening_fmri,3.2.4,59.9459075704858,
0,parcelated_audio/42/42_13.ogg,,,,,,,,,0,0,0,0,0,0,0,0,0,0,0,0,,,,,,,,,0,0,0,0,0,12,12,12,,,,,,,,,,,,,,,,,,,,,,,,,,,,,,,,,,,,,,,,,,,,,,,,107.97188400899904,115.13663246799842,,,,,,,,,,,,,,,,,,,,,,,,,,,,,,,,,,,,,,,,,,,,,,,,,,,,,,,,,,,,,,,,,,,,102221,1,2,0,2,0,1,2,0,40,2021_Oct_22_1519,listening_fmri,3.2.4,59.9459075704858,
0,parcelated_audio/42/42_14.ogg,,,,,,,,,0,0,0,0,0,0,0,0,0,0,0,0,,,,,,,,,0,0,0,0,0,13,13,13,,,,,,,,,,,,,,,,,,,,,,,,,,,,,,,,,,,,,,,,,,,,,,,,115.13711658699867,119.84897315299895,,,,,,,,,,,,,,,,,,,,,,,,,,,,,,,,,,,,,,,,,,,,,,,,,,,,,,,,,,,,,,,,,,,,102221,1,2,0,2,0,1,2,0,40,2021_Oct_22_1519,listening_fmri,3.2.4,59.9459075704858,
0,parcelated_audio/42/42_15.ogg,,,,,,,,,0,0,0,0,0,0,0,0,0,0,0,0,,,,,,,,,0,0,0,0,0,14,14,14,,,,,,,,,,,,,,,,,,,,,,,,,,,,,,,,,,,,,,,,,,,,,,,,119.84953874099847,125.69566537899846,,,,,,,,,,,,,,,,,,,,,,,,,,,,,,,,,,,,,,,,,,,,,,,,,,,,,,,,,,,,,,,,,,,,102221,1,2,0,2,0,1,2,0,40,2021_Oct_22_1519,listening_fmri,3.2.4,59.9459075704858,
0,parcelated_audio/42/42_16.ogg,,,,,,,,,0,0,0,0,0,0,0,0,0,0,0,0,,,,,,,,,0,0,0,0,0,15,15,15,,,,,,,,,,,,,,,,,,,,,,,,,,,,,,,,,,,,,,,,,,,,,,,,125.69601359499939,131.26175098899876,,,,,,,,,,,,,,,,,,,,,,,,,,,,,,,,,,,,,,,,,,,,,,,,,,,,,,,,,,,,,,,,,,,,102221,1,2,0,2,0,1,2,0,40,2021_Oct_22_1519,listening_fmri,3.2.4,59.9459075704858,
0,parcelated_audio/42/42_17.ogg,,,,,,,,,0,0,0,0,0,0,0,0,0,0,0,0,,,,,,,,,0,0,0,0,0,16,16,16,,,,,,,,,,,,,,,,,,,,,,,,,,,,,,,,,,,,,,,,,,,,,,,,131.2623108959997,140.93580743599887,,,,,,,,,,,,,,,,,,,,,,,,,,,,,,,,,,,,,,,,,,,,,,,,,,,,,,,,,,,,,,,,,,,,102221,1,2,0,2,0,1,2,0,40,2021_Oct_22_1519,listening_fmri,3.2.4,59.9459075704858,
0,parcelated_audio/42/42_18.ogg,,,,,,,,,0,0,0,0,0,0,0,0,0,0,0,0,,,,,,,,,0,0,0,0,0,17,17,17,,,,,,,,,,,,,,,,,,,,,,,,,,,,,,,,,,,,,,,,,,,,,,,,140.93616015999942,146.36731101499936,,,,,,,,,,,,,,,,,,,,,,,,,,,,,,,,,,,,,,,,,,,,,,,,,,,,,,,,,,,,,,,,,,,,102221,1,2,0,2,0,1,2,0,40,2021_Oct_22_1519,listening_fmri,3.2.4,59.9459075704858,
0,parcelated_audio/42/42_19.ogg,,,,,,,,,0,0,0,0,0,0,0,0,0,0,0,0,,,,,,,,,0,0,0,0,0,18,18,18,,,,,,,,,,,,,,,,,,,,,,,,,,,,,,,,,,,,,,,,,,,,,,,,146.3684265719985,155.51238000899866,,,,,,,,,,,,,,,,,,,,,,,,,,,,,,,,,,,,,,,,,,,,,,,,,,,,,,,,,,,,,,,,,,,,102221,1,2,0,2,0,1,2,0,40,2021_Oct_22_1519,listening_fmri,3.2.4,59.9459075704858,
0,parcelated_audio/42/42_20.ogg,,,,,,,,,0,0,0,0,0,0,0,0,0,0,0,0,,,,,,,,,0,0,0,0,0,19,19,19,,,,,,,,,,,,,,,,,,,,,,,,,,,,,,,,,,,,,,,,,,,,,,,,155.51273101699917,160.160107108999,,,,,,,,,,,,,,,,,,,,,,,,,,,,,,,,,,,,,,,,,,,,,,,,,,,,,,,,,,,,,,,,,,,,102221,1,2,0,2,0,1,2,0,40,2021_Oct_22_1519,listening_fmri,3.2.4,59.9459075704858,
0,parcelated_audio/42/42_21.ogg,,,,,,,,,0,0,0,0,0,0,0,0,0,0,0,0,,,,,,,,,0,0,0,0,0,20,20,20,,,,,,,,,,,,,,,,,,,,,,,,,,,,,,,,,,,,,,,,,,,,,,,,160.16053420099888,170.06592655099848,,,,,,,,,,,,,,,,,,,,,,,,,,,,,,,,,,,,,,,,,,,,,,,,,,,,,,,,,,,,,,,,,,,,102221,1,2,0,2,0,1,2,0,40,2021_Oct_22_1519,listening_fmri,3.2.4,59.9459075704858,
0,parcelated_audio/42/42_22.ogg,,,,,,,,,0,0,0,0,0,0,0,0,0,0,0,0,,,,,,,,,0,0,0,0,0,21,21,21,,,,,,,,,,,,,,,,,,,,,,,,,,,,,,,,,,,,,,,,,,,,,,,,170.06620104799913,174.83142544399743,,,,,,,,,,,,,,,,,,,,,,,,,,,,,,,,,,,,,,,,,,,,,,,,,,,,,,,,,,,,,,,,,,,,102221,1,2,0,2,0,1,2,0,40,2021_Oct_22_1519,listening_fmri,3.2.4,59.9459075704858,
0,parcelated_audio/42/42_23.ogg,,,,,,,,,0,0,0,0,0,0,0,0,0,0,0,0,,,,,,,,,0,0,0,0,0,22,22,22,,,,,,,,,,,,,,,,,,,,,,,,,,,,,,,,,,,,,,,,,,,,,,,,174.8317591419982,181.0593937529993,,,,,,,,,,,,,,,,,,,,,,,,,,,,,,,,,,,,,,,,,,,,,,,,,,,,,,,,,,,,,,,,,,,,102221,1,2,0,2,0,1,2,0,40,2021_Oct_22_1519,listening_fmri,3.2.4,59.9459075704858,
0,parcelated_audio/42/42_24.ogg,,,,,,,,,0,0,0,0,0,0,0,0,0,0,0,0,,,,,,,,,0,0,0,0,0,23,23,23,,,,,,,,,,,,,,,,,,,,,,,,,,,,,,,,,,,,,,,,,,,,,,,,181.05967051699918,189.51100496099752,,,,,,,,,,,,,,,,,,,,,,,,,,,,,,,,,,,,,,,,,,,,,,,,,,,,,,,,,,,,,,,,,,,,102221,1,2,0,2,0,1,2,0,40,2021_Oct_22_1519,listening_fmri,3.2.4,59.9459075704858,
0,parcelated_audio/42/42_25.ogg,,,,,,,,,0,0,0,0,0,0,0,0,0,0,0,0,,,,,,,,,0,0,0,0,0,24,24,24,,,,,,,,,,,,,,,,,,,,,,,,,,,,,,,,,,,,,,,,,,,,,,,,189.51130919099887,195.72618738500023,,,,,,,,,,,,,,,,,,,,,,,,,,,,,,,,,,,,,,,,,,,,,,,,,,,,,,,,,,,,,,,,,,,,102221,1,2,0,2,0,1,2,0,40,2021_Oct_22_1519,listening_fmri,3.2.4,59.9459075704858,
0,parcelated_audio/42/42_26.ogg,,,,,,,,,0,0,0,0,0,0,0,0,0,0,0,0,,,,,,,,,0,0,0,0,0,25,25,25,,,,,,,,,,,,,,,,,,,,,,,,,,,,,,,,,,,,,,,,,,,,,,,,195.72646205300043,201.62740220200067,,,,,,,,,,,,,,,,,,,,,,,,,,,,,,,,,,,,,,,,,,,,,,,,,,,,,,,,,,,,,,,,,,,,102221,1,2,0,2,0,1,2,0,40,2021_Oct_22_1519,listening_fmri,3.2.4,59.9459075704858,
0,parcelated_audio/42/42_27.ogg,,,,,,,,,0,0,0,0,0,0,0,0,0,0,0,0,,,,,,,,,0,0,0,0,0,26,26,26,,,,,,,,,,,,,,,,,,,,,,,,,,,,,,,,,,,,,,,,,,,,,,,,201.62775309199787,209.30430154499845,,,,,,,,,,,,,,,,,,,,,,,,,,,,,,,,,,,,,,,,,,,,,,,,,,,,,,,,,,,,,,,,,,,,102221,1,2,0,2,0,1,2,0,40,2021_Oct_22_1519,listening_fmri,3.2.4,59.9459075704858,
0,parcelated_audio/42/42_28.ogg,,,,,,,,,0,0,0,0,0,0,0,0,0,0,0,0,,,,,,,,,0,0,0,0,0,27,27,27,,,,,,,,,,,,,,,,,,,,,,,,,,,,,,,,,,,,,,,,,,,,,,,,209.3045738740002,214.96034320000035,,,,,,,,,,,,,,,,,,,,,,,,,,,,,,,,,,,,,,,,,,,,,,,,,,,,,,,,,,,,,,,,,,,,102221,1,2,0,2,0,1,2,0,40,2021_Oct_22_1519,listening_fmri,3.2.4,59.9459075704858,
0,parcelated_audio/42/42_29.ogg,,,,,,,,,0,0,0,0,0,0,0,0,0,0,0,0,,,,,,,,,0,0,0,0,0,28,28,28,,,,,,,,,,,,,,,,,,,,,,,,,,,,,,,,,,,,,,,,,,,,,,,,214.9606598120008,221.84658770699752,,,,,,,,,,,,,,,,,,,,,,,,,,,,,,,,,,,,,,,,,,,,,,,,,,,,,,,,,,,,,,,,,,,,102221,1,2,0,2,0,1,2,0,40,2021_Oct_22_1519,listening_fmri,3.2.4,59.9459075704858,
0,parcelated_audio/42/42_30.ogg,,,,,,,,,0,0,0,0,0,0,0,0,0,0,0,0,,,,,,,,,0,0,0,0,0,29,29,29,,,,,,,,,,,,,,,,,,,,,,,,,,,,,,,,,,,,,,,,,,,,,,,,221.84701552499973,232.73238755900093,,,,,,,,,,,,,,,,,,,,,,,,,,,,,,,,,,,,,,,,,,,,,,,,,,,,,,,,,,,,,,,,,,,,102221,1,2,0,2,0,1,2,0,40,2021_Oct_22_1519,listening_fmri,3.2.4,59.9459075704858,
0,parcelated_audio/42/42_31.ogg,,,,,,,,,0,0,0,0,0,0,0,0,0,0,0,0,,,,,,,,,0,0,0,0,0,30,30,30,,,,,,,,,,,,,,,,,,,,,,,,,,,,,,,,,,,,,,,,,,,,,,,,232.73283731799893,238.92872878900016,,,,,,,,,,,,,,,,,,,,,,,,,,,,,,,,,,,,,,,,,,,,,,,,,,,,,,,,,,,,,,,,,,,,102221,1,2,0,2,0,1,2,0,40,2021_Oct_22_1519,listening_fmri,3.2.4,59.9459075704858,
0,parcelated_audio/42/42_32.ogg,,,,,,,,,0,0,0,0,0,0,0,0,0,0,0,0,,,,,,,,,0,0,0,0,0,31,31,31,,,,,,,,,,,,,,,,,,,,,,,,,,,,,,,,,,,,,,,,,,,,,,,,238.92925621999893,247.0943258949992,,,,,,,,,,,,,,,,,,,,,,,,,,,,,,,,,,,,,,,,,,,,,,,,,,,,,,,,,,,,,,,,,,,,102221,1,2,0,2,0,1,2,0,40,2021_Oct_22_1519,listening_fmri,3.2.4,59.9459075704858,
0,parcelated_audio/42/42_33.ogg,,,,,,,,,0,0,0,0,0,0,0,0,0,0,0,0,,,,,,,,,0,0,0,0,0,32,32,32,,,,,,,,,,,,,,,,,,,,,,,,,,,,,,,,,,,,,,,,,,,,,,,,247.0946741480002,254.14749545099767,,,,,,,,,,,,,,,,,,,,,,,,,,,,,,,,,,,,,,,,,,,,,,,,,,,,,,,,,,,,,,,,,,,,102221,1,2,0,2,0,1,2,0,40,2021_Oct_22_1519,listening_fmri,3.2.4,59.9459075704858,
0,parcelated_audio/42/42_34.ogg,,,,,,,,,0,0,0,0,0,0,0,0,0,0,0,0,,,,,,,,,0,0,0,0,0,33,33,33,,,,,,,,,,,,,,,,,,,,,,,,,,,,,,,,,,,,,,,,,,,,,,,,254.1480122440007,264.85360536499866,,,,,,,,,,,,,,,,,,,,,,,,,,,,,,,,,,,,,,,,,,,,,,,,,,,,,,,,,,,,,,,,,,,,102221,1,2,0,2,0,1,2,0,40,2021_Oct_22_1519,listening_fmri,3.2.4,59.9459075704858,
0,parcelated_audio/42/42_35.ogg,,,,,,,,,0,0,0,0,0,0,0,0,0,0,0,0,,,,,,,,,0,0,0,0,0,34,34,34,,,,,,,,,,,,,,,,,,,,,,,,,,,,,,,,,,,,,,,,,,,,,,,,264.8540635669997,274.61769682500017,,,,,,,,,,,,,,,,,,,,,,,,,,,,,,,,,,,,,,,,,,,,,,,,,,,,,,,,,,,,,,,,,,,,102221,1,2,0,2,0,1,2,0,40,2021_Oct_22_1519,listening_fmri,3.2.4,59.9459075704858,
0,,,,,,,,,,0,0,0,0,0,0,0,0,0,0,0,0,,,,,,,,,0,0,0,0,,,,,,,,,,,,,,,,,,,,,,,,,,,,,,,,,,,,,,,,,,,,,,,,,,,,,,,,,,,,,,,,,,,,,,,,,,,,,,,,,,,,,,,,,,,,,,,,,,,,,,,,,,,,,,,,,,,,,,,,,102221,1,2,0,2,0,1,2,0,40,2021_Oct_22_1519,listening_fmri,3.2.4,59.9459075704858,
0,,,,,,,,,,0,0,0,0,0,0,0,0,0,0,0,0,,,,,,,,,,,,,,,,,,,,,,,,,,,,,,,,,,,,,,,,,,274.6181768899987,280.6048163819978,327.3903274389995,None,,,,,,,,,,,,,,,,,,,,,333.38447305299997,None,333.38447305299997,None,,,,,,,,,,,,,,,,,,,,,,,,,,,,,,,,,,,,,,,,,,,,,,,,,,,,,,,,,,,,,,,,102221,1,2,0,2,0,1,2,0,40,2021_Oct_22_1519,listening_fmri,3.2.4,59.9459075704858,
0,,,,,,,,,,0,0,0,0,0,0,0,0,,,,,,,,,,,,,,,,,,,,,,,,,,,,,,,,,,,,,,,,,,,,,,,,,,,,,,,,,,,,,,,,,,,,,,,,,,,,,,,,,,,,,,,,,,,,,,,,,,,,,,,,,,,,,,,,,,,,,,,,,,,,,,,,,,,,,,,,,102221,1,2,0,2,0,1,2,0,40,2021_Oct_22_1519,listening_fmri,3.2.4,59.9459075704858,
1,,,,,,,,,,0,0,0,0,0,1,1,1,,,,,,,,,,,,,,,,,,,,,,,,,,,,,,,,,,,,,,,,,,,,,,,,,,,,,,,,,,,,,,,,,,,,,,,,,,,,,,,,,,,,,,,,,,,,,,,,,,,,,,,,,,,,,,,,,,,,,,,,,,,,,,,,,,,,,,,,,102221,1,2,0,2,0,1,2,0,40,2021_Oct_22_1519,listening_fmri,3.2.4,59.9459075704858,
2,,,,,,,,,,0,0,0,0,0,2,2,2,0,0,0,0,0,0,0,0,,,,,,,,,,,,,,,,,0,0,0,0,,,,,,,,,,,,,,,,,,,,,,334.390900325001,None,334.390900325001,None,6,0.5202196009995532,334.390900325001,None,334.390900325001,None,,,,,,,,,,,,,,,334.9405378529991,None,6,0.7095465120000881,334.9405378529991,None,334.9405378529991,None,335.689689756,None,335.689689756,None,335.689689756,None,6,0.7122718489990802,335.689689756,None,336.43428950100133,None,6,0.6427257290015405,336.43428950100133,None,336.43428950100133,None,337.191092426001,None,337.191092426001,None,337.191092426001,None,337.191092426001,None,337.191092426001,None,337.191092426001,None,337.191092426001,None,None,337.191092426001,None,,,,,,,,,,,,,,,,,,,,,102221,1,2,0,2,0,1,2,0,40,2021_Oct_22_1519,listening_fmri,3.2.4,59.9459075704858,
2,,,,,,,,,,0,0,0,0,0,2,2,2,0,0,0,0,0,0,0,0,,,,,,,,,,,,,,,,,1,0,1,0,,,,,,,,,,,,,,,,,,,,,,,,,,,,,,,,,,,,,,,,,,,,,,,,,,,,,,354.4847741449994,None,354.4847741449994,None,354.4847741449994,None,6,0.3293751720011642,354.4847741449994,None,354.8347951190008,None,6,0.3473427230019297,354.8347951190008,None,354.8347951190008,None,355.2668737620006,None,355.2668737620006,None,355.2668737620006,None,355.2668737620006,None,355.2668737620006,None,355.2668737620006,None,355.2668737620006,None,None,355.2668737620006,None,,,,,,,,,,,,,,,,,,,,,102221,1,2,0,2,0,1,2,0,40,2021_Oct_22_1519,listening_fmri,3.2.4,59.9459075704858,
2,,,,,,,,,,0,0,0,0,0,2,2,2,0,0,0,0,0,0,0,0,,,,,,,,,,,,,,,,,,,,,,,,,,,,,,,,,,,,,,,,,,,,,,,,,,,,,,,,,,,,,,,,,,,,,,,,,,,,,,,,,,,,,,,,,,,,,,,,,,,,,,,,,,,,,375.98454354299975,None,6,0.6886236280006415,375.98454354299975,None,375.98454354299975,None,376.71753006400104,None,376.71753006400104,None,376.71753006400104,None,6,0.47059638599967,376.71753006400104,None,,,102221,1,2,0,2,0,1,2,0,40,2021_Oct_22_1519,listening_fmri,3.2.4,59.9459075704858,
2,parcelated_audio/13/13_1.ogg,,,,,,,,,0,0,0,0,0,2,2,2,0,0,0,0,,,,,,,,,0,0,0,0,0,0,0,0,,,,,,,,,,,,,,,,,,,,,,,,,,,,,,,,,,,,,,,,377.2175732169999,None,6,0.7095707439984835,377.2175732169999,None,325.20255308799824,328.21579932799796,328.22387740499835,339.91272668199963,,,,,,,,,,,,,,,,,,,,,,,,,,,,,,,,,,,,,,,,,,,,,,,,,,,,,,,,,,,,,,,,,,,,102221,1,2,0,2,0,1,2,0,40,2021_Oct_22_1519,listening_fmri,3.2.4,59.9459075704858,
2,parcelated_audio/13/13_2.ogg,,,,,,,,,0,0,0,0,0,2,2,2,0,0,0,0,,,,,,,,,0,0,0,0,0,1,1,1,,,,,,,,,,,,,,,,,,,,,,,,,,,,,,,,,,,,,,,,,,,,,,,,339.91373496899905,346.01612740699784,,,,,,,,,,,,,,,,,,,,,,,,,,,,,,,,,,,,,,,,,,,,,,,,,,,,,,,,,,,,,,,,,,,,102221,1,2,0,2,0,1,2,0,40,2021_Oct_22_1519,listening_fmri,3.2.4,59.9459075704858,
2,parcelated_audio/13/13_3.ogg,,,,,,,,,0,0,0,0,0,2,2,2,0,0,0,0,,,,,,,,,0,0,0,0,0,2,2,2,,,,,,,,,,,,,,,,,,,,,,,,,,,,,,,,,,,,,,,,,,,,,,,,346.01647032599794,354.37047603099927,,,,,,,,,,,,,,,,,,,,,,,,,,,,,,,,,,,,,,,,,,,,,,,,,,,,,,,,,,,,,,,,,,,,102221,1,2,0,2,0,1,2,0,40,2021_Oct_22_1519,listening_fmri,3.2.4,59.9459075704858,
2,parcelated_audio/13/13_4.ogg,,,,,,,,,0,0,0,0,0,2,2,2,0,0,0,0,,,,,,,,,0,0,0,0,0,3,3,3,,,,,,,,,,,,,,,,,,,,,,,,,,,,,,,,,,,,,,,,,,,,,,,,354.37165803699827,364.6114844859985,,,,,,,,,,,,,,,,,,,,,,,,,,,,,,,,,,,,,,,,,,,,,,,,,,,,,,,,,,,,,,,,,,,,102221,1,2,0,2,0,1,2,0,40,2021_Oct_22_1519,listening_fmri,3.2.4,59.9459075704858,
2,parcelated_audio/13/13_5.ogg,,,,,,,,,0,0,0,0,0,2,2,2,0,0,0,0,,,,,,,,,0,0,0,0,0,4,4,4,,,,,,,,,,,,,,,,,,,,,,,,,,,,,,,,,,,,,,,,,,,,,,,,364.61184072299875,370.64894495800036,,,,,,,,,,,,,,,,,,,,,,,,,,,,,,,,,,,,,,,,,,,,,,,,,,,,,,,,,,,,,,,,,,,,102221,1,2,0,2,0,1,2,0,40,2021_Oct_22_1519,listening_fmri,3.2.4,59.9459075704858,
2,parcelated_audio/13/13_6.ogg,,,,,,,,,0,0,0,0,0,2,2,2,0,0,0,0,,,,,,,,,0,0,0,0,0,5,5,5,,,,,,,,,,,,,,,,,,,,,,,,,,,,,,,,,,,,,,,,,,,,,,,,370.6494024229978,375.34223274399847,,,,,,,,,,,,,,,,,,,,,,,,,,,,,,,,,,,,,,,,,,,,,,,,,,,,,,,,,,,,,,,,,,,,102221,1,2,0,2,0,1,2,0,40,2021_Oct_22_1519,listening_fmri,3.2.4,59.9459075704858,
2,parcelated_audio/13/13_7.ogg,,,,,,,,,0,0,0,0,0,2,2,2,0,0,0,0,,,,,,,,,0,0,0,0,0,6,6,6,,,,,,,,,,,,,,,,,,,,,,,,,,,,,,,,,,,,,,,,,,,,,,,,375.3425863140001,382.98647729599907,,,,,,,,,,,,,,,,,,,,,,,,,,,,,,,,,,,,,,,,,,,,,,,,,,,,,,,,,,,,,,,,,,,,102221,1,2,0,2,0,1,2,0,40,2021_Oct_22_1519,listening_fmri,3.2.4,59.9459075704858,
2,parcelated_audio/13/13_8.ogg,,,,,,,,,0,0,0,0,0,2,2,2,0,0,0,0,,,,,,,,,0,0,0,0,0,7,7,7,,,,,,,,,,,,,,,,,,,,,,,,,,,,,,,,,,,,,,,,,,,,,,,,382.98682459599877,388.277734665,,,,,,,,,,,,,,,,,,,,,,,,,,,,,,,,,,,,,,,,,,,,,,,,,,,,,,,,,,,,,,,,,,,,102221,1,2,0,2,0,1,2,0,40,2021_Oct_22_1519,listening_fmri,3.2.4,59.9459075704858,
2,parcelated_audio/13/13_9.ogg,,,,,,,,,0,0,0,0,0,2,2,2,0,0,0,0,,,,,,,,,0,0,0,0,0,8,8,8,,,,,,,,,,,,,,,,,,,,,,,,,,,,,,,,,,,,,,,,,,,,,,,,388.2780895219985,392.879693805,,,,,,,,,,,,,,,,,,,,,,,,,,,,,,,,,,,,,,,,,,,,,,,,,,,,,,,,,,,,,,,,,,,,102221,1,2,0,2,0,1,2,0,40,2021_Oct_22_1519,listening_fmri,3.2.4,59.9459075704858,
2,parcelated_audio/13/13_10.ogg,,,,,,,,,0,0,0,0,0,2,2,2,0,0,0,0,,,,,,,,,0,0,0,0,0,9,9,9,,,,,,,,,,,,,,,,,,,,,,,,,,,,,,,,,,,,,,,,,,,,,,,,392.8800451339994,398.67762523499914,,,,,,,,,,,,,,,,,,,,,,,,,,,,,,,,,,,,,,,,,,,,,,,,,,,,,,,,,,,,,,,,,,,,102221,1,2,0,2,0,1,2,0,40,2021_Oct_22_1519,listening_fmri,3.2.4,59.9459075704858,
2,parcelated_audio/13/13_11.ogg,,,,,,,,,0,0,0,0,0,2,2,2,0,0,0,0,,,,,,,,,0,0,0,0,0,10,10,10,,,,,,,,,,,,,,,,,,,,,,,,,,,,,,,,,,,,,,,,,,,,,,,,398.6780719249982,403.189793567999,,,,,,,,,,,,,,,,,,,,,,,,,,,,,,,,,,,,,,,,,,,,,,,,,,,,,,,,,,,,,,,,,,,,102221,1,2,0,2,0,1,2,0,40,2021_Oct_22_1519,listening_fmri,3.2.4,59.9459075704858,
2,parcelated_audio/13/13_12.ogg,,,,,,,,,0,0,0,0,0,2,2,2,0,0,0,0,,,,,,,,,0,0,0,0,0,11,11,11,,,,,,,,,,,,,,,,,,,,,,,,,,,,,,,,,,,,,,,,,,,,,,,,403.19025940199936,411.75415931399766,,,,,,,,,,,,,,,,,,,,,,,,,,,,,,,,,,,,,,,,,,,,,,,,,,,,,,,,,,,,,,,,,,,,102221,1,2,0,2,0,1,2,0,40,2021_Oct_22_1519,listening_fmri,3.2.4,59.9459075704858,
2,parcelated_audio/13/13_13.ogg,,,,,,,,,0,0,0,0,0,2,2,2,0,0,0,0,,,,,,,,,0,0,0,0,0,12,12,12,,,,,,,,,,,,,,,,,,,,,,,,,,,,,,,,,,,,,,,,,,,,,,,,411.75448550299916,421.64253948199985,,,,,,,,,,,,,,,,,,,,,,,,,,,,,,,,,,,,,,,,,,,,,,,,,,,,,,,,,,,,,,,,,,,,102221,1,2,0,2,0,1,2,0,40,2021_Oct_22_1519,listening_fmri,3.2.4,59.9459075704858,
2,parcelated_audio/13/13_14.ogg,,,,,,,,,0,0,0,0,0,2,2,2,0,0,0,0,,,,,,,,,0,0,0,0,0,13,13,13,,,,,,,,,,,,,,,,,,,,,,,,,,,,,,,,,,,,,,,,,,,,,,,,421.64290380199964,429.8173129399984,,,,,,,,,,,,,,,,,,,,,,,,,,,,,,,,,,,,,,,,,,,,,,,,,,,,,,,,,,,,,,,,,,,,102221,1,2,0,2,0,1,2,0,40,2021_Oct_22_1519,listening_fmri,3.2.4,59.9459075704858,
2,parcelated_audio/13/13_15.ogg,,,,,,,,,0,0,0,0,0,2,2,2,0,0,0,0,,,,,,,,,0,0,0,0,0,14,14,14,,,,,,,,,,,,,,,,,,,,,,,,,,,,,,,,,,,,,,,,,,,,,,,,429.8176868320006,438.4972937599996,,,,,,,,,,,,,,,,,,,,,,,,,,,,,,,,,,,,,,,,,,,,,,,,,,,,,,,,,,,,,,,,,,,,102221,1,2,0,2,0,1,2,0,40,2021_Oct_22_1519,listening_fmri,3.2.4,59.9459075704858,
2,parcelated_audio/13/13_16.ogg,,,,,,,,,0,0,0,0,0,2,2,2,0,0,0,0,,,,,,,,,0,0,0,0,0,15,15,15,,,,,,,,,,,,,,,,,,,,,,,,,,,,,,,,,,,,,,,,,,,,,,,,438.4979228459997,440.8164972630002,,,,,,,,,,,,,,,,,,,,,,,,,,,,,,,,,,,,,,,,,,,,,,,,,,,,,,,,,,,,,,,,,,,,102221,1,2,0,2,0,1,2,0,40,2021_Oct_22_1519,listening_fmri,3.2.4,59.9459075704858,
2,parcelated_audio/13/13_17.ogg,,,,,,,,,0,0,0,0,0,2,2,2,0,0,0,0,,,,,,,,,0,0,0,0,0,16,16,16,,,,,,,,,,,,,,,,,,,,,,,,,,,,,,,,,,,,,,,,,,,,,,,,440.81681175599806,448.3962174740009,,,,,,,,,,,,,,,,,,,,,,,,,,,,,,,,,,,,,,,,,,,,,,,,,,,,,,,,,,,,,,,,,,,,102221,1,2,0,2,0,1,2,0,40,2021_Oct_22_1519,listening_fmri,3.2.4,59.9459075704858,
2,parcelated_audio/13/13_18.ogg,,,,,,,,,0,0,0,0,0,2,2,2,0,0,0,0,,,,,,,,,0,0,0,0,0,17,17,17,,,,,,,,,,,,,,,,,,,,,,,,,,,,,,,,,,,,,,,,,,,,,,,,448.39647197500017,458.5873307789989,,,,,,,,,,,,,,,,,,,,,,,,,,,,,,,,,,,,,,,,,,,,,,,,,,,,,,,,,,,,,,,,,,,,102221,1,2,0,2,0,1,2,0,40,2021_Oct_22_1519,listening_fmri,3.2.4,59.9459075704858,
2,parcelated_audio/13/13_19.ogg,,,,,,,,,0,0,0,0,0,2,2,2,0,0,0,0,,,,,,,,,0,0,0,0,0,18,18,18,,,,,,,,,,,,,,,,,,,,,,,,,,,,,,,,,,,,,,,,,,,,,,,,458.5876099540001,466.53628666999793,,,,,,,,,,,,,,,,,,,,,,,,,,,,,,,,,,,,,,,,,,,,,,,,,,,,,,,,,,,,,,,,,,,,102221,1,2,0,2,0,1,2,0,40,2021_Oct_22_1519,listening_fmri,3.2.4,59.9459075704858,
2,parcelated_audio/13/13_20.ogg,,,,,,,,,0,0,0,0,0,2,2,2,0,0,0,0,,,,,,,,,0,0,0,0,0,19,19,19,,,,,,,,,,,,,,,,,,,,,,,,,,,,,,,,,,,,,,,,,,,,,,,,466.53655561900086,471.7043271149996,,,,,,,,,,,,,,,,,,,,,,,,,,,,,,,,,,,,,,,,,,,,,,,,,,,,,,,,,,,,,,,,,,,,102221,1,2,0,2,0,1,2,0,40,2021_Oct_22_1519,listening_fmri,3.2.4,59.9459075704858,
2,parcelated_audio/13/13_21.ogg,,,,,,,,,0,0,0,0,0,2,2,2,0,0,0,0,,,,,,,,,0,0,0,0,0,20,20,20,,,,,,,,,,,,,,,,,,,,,,,,,,,,,,,,,,,,,,,,,,,,,,,,471.7046290299986,475.0166483449975,,,,,,,,,,,,,,,,,,,,,,,,,,,,,,,,,,,,,,,,,,,,,,,,,,,,,,,,,,,,,,,,,,,,102221,1,2,0,2,0,1,2,0,40,2021_Oct_22_1519,listening_fmri,3.2.4,59.9459075704858,
2,parcelated_audio/13/13_22.ogg,,,,,,,,,0,0,0,0,0,2,2,2,0,0,0,0,,,,,,,,,0,0,0,0,0,21,21,21,,,,,,,,,,,,,,,,,,,,,,,,,,,,,,,,,,,,,,,,,,,,,,,,475.017014183999,478.43113460399763,,,,,,,,,,,,,,,,,,,,,,,,,,,,,,,,,,,,,,,,,,,,,,,,,,,,,,,,,,,,,,,,,,,,102221,1,2,0,2,0,1,2,0,40,2021_Oct_22_1519,listening_fmri,3.2.4,59.9459075704858,
2,parcelated_audio/13/13_23.ogg,,,,,,,,,0,0,0,0,0,2,2,2,0,0,0,0,,,,,,,,,0,0,0,0,0,22,22,22,,,,,,,,,,,,,,,,,,,,,,,,,,,,,,,,,,,,,,,,,,,,,,,,478.4315371320008,483.690447727,,,,,,,,,,,,,,,,,,,,,,,,,,,,,,,,,,,,,,,,,,,,,,,,,,,,,,,,,,,,,,,,,,,,102221,1,2,0,2,0,1,2,0,40,2021_Oct_22_1519,listening_fmri,3.2.4,59.9459075704858,
2,parcelated_audio/13/13_24.ogg,,,,,,,,,0,0,0,0,0,2,2,2,0,0,0,0,,,,,,,,,0,0,0,0,0,23,23,23,,,,,,,,,,,,,,,,,,,,,,,,,,,,,,,,,,,,,,,,,,,,,,,,483.6907203929986,493.4063154609976,,,,,,,,,,,,,,,,,,,,,,,,,,,,,,,,,,,,,,,,,,,,,,,,,,,,,,,,,,,,,,,,,,,,102221,1,2,0,2,0,1,2,0,40,2021_Oct_22_1519,listening_fmri,3.2.4,59.9459075704858,
2,parcelated_audio/13/13_25.ogg,,,,,,,,,0,0,0,0,0,2,2,2,0,0,0,0,,,,,,,,,0,0,0,0,0,24,24,24,,,,,,,,,,,,,,,,,,,,,,,,,,,,,,,,,,,,,,,,,,,,,,,,493.4066813819991,500.68576884999857,,,,,,,,,,,,,,,,,,,,,,,,,,,,,,,,,,,,,,,,,,,,,,,,,,,,,,,,,,,,,,,,,,,,102221,1,2,0,2,0,1,2,0,40,2021_Oct_22_1519,listening_fmri,3.2.4,59.9459075704858,
2,parcelated_audio/13/13_26.ogg,,,,,,,,,0,0,0,0,0,2,2,2,0,0,0,0,,,,,,,,,0,0,0,0,0,25,25,25,,,,,,,,,,,,,,,,,,,,,,,,,,,,,,,,,,,,,,,,,,,,,,,,500.6861212849981,506.8874316199981,,,,,,,,,,,,,,,,,,,,,,,,,,,,,,,,,,,,,,,,,,,,,,,,,,,,,,,,,,,,,,,,,,,,102221,1,2,0,2,0,1,2,0,40,2021_Oct_22_1519,listening_fmri,3.2.4,59.9459075704858,
2,parcelated_audio/13/13_27.ogg,,,,,,,,,0,0,0,0,0,2,2,2,0,0,0,0,,,,,,,,,0,0,0,0,0,26,26,26,,,,,,,,,,,,,,,,,,,,,,,,,,,,,,,,,,,,,,,,,,,,,,,,506.8877214489985,512.1264423879984,,,,,,,,,,,,,,,,,,,,,,,,,,,,,,,,,,,,,,,,,,,,,,,,,,,,,,,,,,,,,,,,,,,,102221,1,2,0,2,0,1,2,0,40,2021_Oct_22_1519,listening_fmri,3.2.4,59.9459075704858,
2,parcelated_audio/13/13_28.ogg,,,,,,,,,0,0,0,0,0,2,2,2,0,0,0,0,,,,,,,,,0,0,0,0,0,27,27,27,,,,,,,,,,,,,,,,,,,,,,,,,,,,,,,,,,,,,,,,,,,,,,,,512.1267793189982,517.555217404999,,,,,,,,,,,,,,,,,,,,,,,,,,,,,,,,,,,,,,,,,,,,,,,,,,,,,,,,,,,,,,,,,,,,102221,1,2,0,2,0,1,2,0,40,2021_Oct_22_1519,listening_fmri,3.2.4,59.9459075704858,
2,parcelated_audio/13/13_29.ogg,,,,,,,,,0,0,0,0,0,2,2,2,0,0,0,0,,,,,,,,,0,0,0,0,0,28,28,28,,,,,,,,,,,,,,,,,,,,,,,,,,,,,,,,,,,,,,,,,,,,,,,,517.5555021149994,520.8443463269978,,,,,,,,,,,,,,,,,,,,,,,,,,,,,,,,,,,,,,,,,,,,,,,,,,,,,,,,,,,,,,,,,,,,102221,1,2,0,2,0,1,2,0,40,2021_Oct_22_1519,listening_fmri,3.2.4,59.9459075704858,
2,parcelated_audio/13/13_30.ogg,,,,,,,,,0,0,0,0,0,2,2,2,0,0,0,0,,,,,,,,,0,0,0,0,0,29,29,29,,,,,,,,,,,,,,,,,,,,,,,,,,,,,,,,,,,,,,,,,,,,,,,,520.8447525409974,524.3152886179996,,,,,,,,,,,,,,,,,,,,,,,,,,,,,,,,,,,,,,,,,,,,,,,,,,,,,,,,,,,,,,,,,,,,102221,1,2,0,2,0,1,2,0,40,2021_Oct_22_1519,listening_fmri,3.2.4,59.9459075704858,
2,parcelated_audio/13/13_31.ogg,,,,,,,,,0,0,0,0,0,2,2,2,0,0,0,0,,,,,,,,,0,0,0,0,0,30,30,30,,,,,,,,,,,,,,,,,,,,,,,,,,,,,,,,,,,,,,,,,,,,,,,,524.315631671001,530.2714337319994,,,,,,,,,,,,,,,,,,,,,,,,,,,,,,,,,,,,,,,,,,,,,,,,,,,,,,,,,,,,,,,,,,,,102221,1,2,0,2,0,1,2,0,40,2021_Oct_22_1519,listening_fmri,3.2.4,59.9459075704858,
2,,,,,,,,,,0,0,0,0,0,2,2,2,0,0,0,0,,,,,,,,,0,0,0,0,,,,,,,,,,,,,,,,,,,,,,,,,,,,,,,,,,,,,,,,,,,,,,,,,,,,,,,,,,,,,,,,,,,,,,,,,,,,,,,,,,,,,,,,,,,,,,,,,,,,,,,,,,,,,,,,,,,,,,,,,102221,1,2,0,2,0,1,2,0,40,2021_Oct_22_1519,listening_fmri,3.2.4,59.9459075704858,
2,,,,,,,,,,0,0,0,0,0,2,2,2,0,0,0,0,,,,,,,,,,,,,,,,,,,,,,,,,,,,,,,,,,,,,,,,,,530.2718136349977,536.2662309799998,583.0515997969997,None,,,,,,,,,,,,,,,,,,,,,589.0515951089983,None,589.0515951089983,None,,,,,,,,,,,,,,,,,,,,,,,,,,,,,,,,,,,,,,,,,,,,,,,,,,,,,,,,,,,,,,,,102221,1,2,0,2,0,1,2,0,40,2021_Oct_22_1519,listening_fmri,3.2.4,59.9459075704858,
2,,,,,,,,,,0,0,0,0,0,2,2,2,,,,,,,,,,,,,,,,,,,,,,,,,,,,,,,,,,,,,,,,,,,,,,,,,,,,,,,,,,,,,,,,,,,,,,,,,,,,,,,,,,,,,,,,,,,,,,,,,,,,,,,,,,,,,,,,,,,,,,,,,,,,,,,,,,,,,,,,,102221,1,2,0,2,0,1,2,0,40,2021_Oct_22_1519,listening_fmri,3.2.4,59.9459075704858,
3,parcelated_audio/44/44_1.ogg,,,,,,,,,0,0,0,0,0,3,3,3,0,0,0,0,,,,,,,,,0,0,0,0,0,0,0,0,,,,,,,,,,,,,,,,,,,,,,,,,,,,,,590.0675460519997,None,590.0675460519997,None,6,0.6204642939992482,590.0675460519997,None,590.0675460519997,None,590.718054899,None,6,0.6700580739998259,590.718054899,None,538.6427209899994,541.6495999479994,541.657372652,549.5715889179992,,,,,,,,,,,,,,,,,,,,,,,,,,,,,,,,,,,,,,,,,,,,,,,,,,,,,,,,,,,,,,,,,,,,102221,1,2,0,2,0,1,2,0,40,2021_Oct_22_1519,listening_fmri,3.2.4,59.9459075704858,
3,parcelated_audio/44/44_2.ogg,,,,,,,,,0,0,0,0,0,3,3,3,0,0,0,0,,,,,,,,,0,0,0,0,0,1,1,1,,,,,,,,,,,,,,,,,,,,,,,,,,,,,,,,,,,,,,,,,,,,,,,,549.5720615809987,558.6958142609983,,,,,,,,,,,,,,,,,,,,,,,,,,,,,,,,,,,,,,,,,,,,,,,,,,,,,,,,,,,,,,,,,,,,102221,1,2,0,2,0,1,2,0,40,2021_Oct_22_1519,listening_fmri,3.2.4,59.9459075704858,
3,parcelated_audio/44/44_3.ogg,,,,,,,,,0,0,0,0,0,3,3,3,0,0,0,0,,,,,,,,,0,0,0,0,0,2,2,2,,,,,,,,,,,,,,,,,,,,,,,,,,,,,,,,,,,,,,,,,,,,,,,,558.696085784999,564.1322874750003,,,,,,,,,,,,,,,,,,,,,,,,,,,,,,,,,,,,,,,,,,,,,,,,,,,,,,,,,,,,,,,,,,,,102221,1,2,0,2,0,1,2,0,40,2021_Oct_22_1519,listening_fmri,3.2.4,59.9459075704858,
3,parcelated_audio/44/44_4.ogg,,,,,,,,,0,0,0,0,0,3,3,3,0,0,0,0,,,,,,,,,0,0,0,0,0,3,3,3,,,,,,,,,,,,,,,,,,,,,,,,,,,,,,,,,,,,,,,,,,,,,,,,564.1333663549995,569.2105836839983,,,,,,,,,,,,,,,,,,,,,,,,,,,,,,,,,,,,,,,,,,,,,,,,,,,,,,,,,,,,,,,,,,,,102221,1,2,0,2,0,1,2,0,40,2021_Oct_22_1519,listening_fmri,3.2.4,59.9459075704858,
3,parcelated_audio/44/44_5.ogg,,,,,,,,,0,0,0,0,0,3,3,3,0,0,0,0,,,,,,,,,0,0,0,0,0,4,4,4,,,,,,,,,,,,,,,,,,,,,,,,,,,,,,,,,,,,,,,,,,,,,,,,569.2108598849991,575.4494381250006,,,,,,,,,,,,,,,,,,,,,,,,,,,,,,,,,,,,,,,,,,,,,,,,,,,,,,,,,,,,,,,,,,,,102221,1,2,0,2,0,1,2,0,40,2021_Oct_22_1519,listening_fmri,3.2.4,59.9459075704858,
3,parcelated_audio/44/44_6.ogg,,,,,,,,,0,0,0,0,0,3,3,3,0,0,0,0,,,,,,,,,0,0,0,0,0,5,5,5,,,,,,,,,,,,,,,,,,,,,,,,,,,,,,,,,,,,,,,,,,,,,,,,575.4497156649995,582.4072637499994,,,,,,,,,,,,,,,,,,,,,,,,,,,,,,,,,,,,,,,,,,,,,,,,,,,,,,,,,,,,,,,,,,,,102221,1,2,0,2,0,1,2,0,40,2021_Oct_22_1519,listening_fmri,3.2.4,59.9459075704858,
3,parcelated_audio/44/44_7.ogg,,,,,,,,,0,0,0,0,0,3,3,3,0,0,0,0,,,,,,,,,0,0,0,0,0,6,6,6,,,,,,,,,,,,,,,,,,,,,,,,,,,,,,,,,,,,,,,,,,,,,,,,582.407550003998,588.4301504110008,,,,,,,,,,,,,,,,,,,,,,,,,,,,,,,,,,,,,,,,,,,,,,,,,,,,,,,,,,,,,,,,,,,,102221,1,2,0,2,0,1,2,0,40,2021_Oct_22_1519,listening_fmri,3.2.4,59.9459075704858,
3,parcelated_audio/44/44_8.ogg,,,,,,,,,0,0,0,0,0,3,3,3,0,0,0,0,,,,,,,,,0,0,0,0,0,7,7,7,,,,,,,,,,,,,,,,,,,,,,,,,,,,,,,,,,,,,,,,,,,,,,,,588.4305602659988,592.6968367000009,,,,,,,,,,,,,,,,,,,,,,,,,,,,,,,,,,,,,,,,,,,,,,,,,,,,,,,,,,,,,,,,,,,,102221,1,2,0,2,0,1,2,0,40,2021_Oct_22_1519,listening_fmri,3.2.4,59.9459075704858,
3,parcelated_audio/44/44_9.ogg,,,,,,,,,0,0,0,0,0,3,3,3,0,0,0,0,,,,,,,,,0,0,0,0,0,8,8,8,,,,,,,,,,,,,,,,,,,,,,,,,,,,,,,,,,,,,,,,,,,,,,,,592.6971443180009,596.3872702279987,,,,,,,,,,,,,,,,,,,,,,,,,,,,,,,,,,,,,,,,,,,,,,,,,,,,,,,,,,,,,,,,,,,,102221,1,2,0,2,0,1,2,0,40,2021_Oct_22_1519,listening_fmri,3.2.4,59.9459075704858,
3,parcelated_audio/44/44_10.ogg,,,,,,,,,0,0,0,0,0,3,3,3,0,0,0,0,,,,,,,,,0,0,0,0,0,9,9,9,,,,,,,,,,,,,,,,,,,,,,,,,,,,,,,,,,,,,,,,,,,,,,,,596.3875229410005,606.5100312670002,,,,,,,,,,,,,,,,,,,,,,,,,,,,,,,,,,,,,,,,,,,,,,,,,,,,,,,,,,,,,,,,,,,,102221,1,2,0,2,0,1,2,0,40,2021_Oct_22_1519,listening_fmri,3.2.4,59.9459075704858,
3,parcelated_audio/44/44_11.ogg,,,,,,,,,0,0,0,0,0,3,3,3,0,0,0,0,,,,,,,,,0,0,0,0,0,10,10,10,,,,,,,,,,,,,,,,,,,,,,,,,,,,,,,,,,,,,,,,,,,,,,,,606.5103370789984,610.0620115489983,,,,,,,,,,,,,,,,,,,,,,,,,,,,,,,,,,,,,,,,,,,,,,,,,,,,,,,,,,,,,,,,,,,,102221,1,2,0,2,0,1,2,0,40,2021_Oct_22_1519,listening_fmri,3.2.4,59.9459075704858,
3,parcelated_audio/44/44_12.ogg,,,,,,,,,0,0,0,0,0,3,3,3,0,0,0,0,,,,,,,,,0,0,0,0,0,11,11,11,,,,,,,,,,,,,,,,,,,,,,,,,,,,,,,,,,,,,,,,,,,,,,,,610.0624307949984,620.644310923999,,,,,,,,,,,,,,,,,,,,,,,,,,,,,,,,,,,,,,,,,,,,,,,,,,,,,,,,,,,,,,,,,,,,102221,1,2,0,2,0,1,2,0,40,2021_Oct_22_1519,listening_fmri,3.2.4,59.9459075704858,
3,parcelated_audio/44/44_13.ogg,,,,,,,,,0,0,0,0,0,3,3,3,0,0,0,0,,,,,,,,,0,0,0,0,0,12,12,12,,,,,,,,,,,,,,,,,,,,,,,,,,,,,,,,,,,,,,,,,,,,,,,,620.6446751019976,627.8133273819985,,,,,,,,,,,,,,,,,,,,,,,,,,,,,,,,,,,,,,,,,,,,,,,,,,,,,,,,,,,,,,,,,,,,102221,1,2,0,2,0,1,2,0,40,2021_Oct_22_1519,listening_fmri,3.2.4,59.9459075704858,
3,parcelated_audio/44/44_14.ogg,,,,,,,,,0,0,0,0,0,3,3,3,0,0,0,0,,,,,,,,,0,0,0,0,0,13,13,13,,,,,,,,,,,,,,,,,,,,,,,,,,,,,,,,,,,,,,,,,,,,,,,,627.813696483001,634.1312173119986,,,,,,,,,,,,,,,,,,,,,,,,,,,,,,,,,,,,,,,,,,,,,,,,,,,,,,,,,,,,,,,,,,,,102221,1,2,0,2,0,1,2,0,40,2021_Oct_22_1519,listening_fmri,3.2.4,59.9459075704858,
3,parcelated_audio/44/44_15.ogg,,,,,,,,,0,0,0,0,0,3,3,3,0,0,0,0,,,,,,,,,0,0,0,0,0,14,14,14,,,,,,,,,,,,,,,,,,,,,,,,,,,,,,,,,,,,,,,,,,,,,,,,634.1314910389992,638.2061453030001,,,,,,,,,,,,,,,,,,,,,,,,,,,,,,,,,,,,,,,,,,,,,,,,,,,,,,,,,,,,,,,,,,,,102221,1,2,0,2,0,1,2,0,40,2021_Oct_22_1519,listening_fmri,3.2.4,59.9459075704858,
3,parcelated_audio/44/44_16.ogg,,,,,,,,,0,0,0,0,0,3,3,3,0,0,0,0,,,,,,,,,0,0,0,0,0,15,15,15,,,,,,,,,,,,,,,,,,,,,,,,,,,,,,,,,,,,,,,,,,,,,,,,638.2064254010002,642.2225014979995,,,,,,,,,,,,,,,,,,,,,,,,,,,,,,,,,,,,,,,,,,,,,,,,,,,,,,,,,,,,,,,,,,,,102221,1,2,0,2,0,1,2,0,40,2021_Oct_22_1519,listening_fmri,3.2.4,59.9459075704858,
3,parcelated_audio/44/44_17.ogg,,,,,,,,,0,0,0,0,0,3,3,3,0,0,0,0,,,,,,,,,0,0,0,0,0,16,16,16,,,,,,,,,,,,,,,,,,,,,,,,,,,,,,,,,,,,,,,,,,,,,,,,642.2229453399996,650.6877397559983,,,,,,,,,,,,,,,,,,,,,,,,,,,,,,,,,,,,,,,,,,,,,,,,,,,,,,,,,,,,,,,,,,,,102221,1,2,0,2,0,1,2,0,40,2021_Oct_22_1519,listening_fmri,3.2.4,59.9459075704858,
3,parcelated_audio/44/44_18.ogg,,,,,,,,,0,0,0,0,0,3,3,3,0,0,0,0,,,,,,,,,0,0,0,0,0,17,17,17,,,,,,,,,,,,,,,,,,,,,,,,,,,,,,,,,,,,,,,,,,,,,,,,650.688089102001,660.5167124729996,,,,,,,,,,,,,,,,,,,,,,,,,,,,,,,,,,,,,,,,,,,,,,,,,,,,,,,,,,,,,,,,,,,,102221,1,2,0,2,0,1,2,0,40,2021_Oct_22_1519,listening_fmri,3.2.4,59.9459075704858,
3,parcelated_audio/44/44_19.ogg,,,,,,,,,0,0,0,0,0,3,3,3,0,0,0,0,,,,,,,,,0,0,0,0,0,18,18,18,,,,,,,,,,,,,,,,,,,,,,,,,,,,,,,,,,,,,,,,,,,,,,,,660.5170631990004,671.4887470709982,,,,,,,,,,,,,,,,,,,,,,,,,,,,,,,,,,,,,,,,,,,,,,,,,,,,,,,,,,,,,,,,,,,,102221,1,2,0,2,0,1,2,0,40,2021_Oct_22_1519,listening_fmri,3.2.4,59.9459075704858,
3,parcelated_audio/44/44_20.ogg,,,,,,,,,0,0,0,0,0,3,3,3,0,0,0,0,,,,,,,,,0,0,0,0,0,19,19,19,,,,,,,,,,,,,,,,,,,,,,,,,,,,,,,,,,,,,,,,,,,,,,,,671.4890972770008,679.7041898429998,,,,,,,,,,,,,,,,,,,,,,,,,,,,,,,,,,,,,,,,,,,,,,,,,,,,,,,,,,,,,,,,,,,,102221,1,2,0,2,0,1,2,0,40,2021_Oct_22_1519,listening_fmri,3.2.4,59.9459075704858,
3,parcelated_audio/44/44_21.ogg,,,,,,,,,0,0,0,0,0,3,3,3,0,0,0,0,,,,,,,,,0,0,0,0,0,20,20,20,,,,,,,,,,,,,,,,,,,,,,,,,,,,,,,,,,,,,,,,,,,,,,,,679.7046147479996,688.6142062379986,,,,,,,,,,,,,,,,,,,,,,,,,,,,,,,,,,,,,,,,,,,,,,,,,,,,,,,,,,,,,,,,,,,,102221,1,2,0,2,0,1,2,0,40,2021_Oct_22_1519,listening_fmri,3.2.4,59.9459075704858,
3,parcelated_audio/44/44_22.ogg,,,,,,,,,0,0,0,0,0,3,3,3,0,0,0,0,,,,,,,,,0,0,0,0,0,21,21,21,,,,,,,,,,,,,,,,,,,,,,,,,,,,,,,,,,,,,,,,,,,,,,,,688.614584392999,693.5338848779975,,,,,,,,,,,,,,,,,,,,,,,,,,,,,,,,,,,,,,,,,,,,,,,,,,,,,,,,,,,,,,,,,,,,102221,1,2,0,2,0,1,2,0,40,2021_Oct_22_1519,listening_fmri,3.2.4,59.9459075704858,
3,parcelated_audio/44/44_23.ogg,,,,,,,,,0,0,0,0,0,3,3,3,0,0,0,0,,,,,,,,,0,0,0,0,0,22,22,22,,,,,,,,,,,,,,,,,,,,,,,,,,,,,,,,,,,,,,,,,,,,,,,,693.5341568999975,700.178439760999,,,,,,,,,,,,,,,,,,,,,,,,,,,,,,,,,,,,,,,,,,,,,,,,,,,,,,,,,,,,,,,,,,,,102221,1,2,0,2,0,1,2,0,40,2021_Oct_22_1519,listening_fmri,3.2.4,59.9459075704858,
3,parcelated_audio/44/44_24.ogg,,,,,,,,,0,0,0,0,0,3,3,3,0,0,0,0,,,,,,,,,0,0,0,0,0,23,23,23,,,,,,,,,,,,,,,,,,,,,,,,,,,,,,,,,,,,,,,,,,,,,,,,700.1789052469976,708.9102369920001,,,,,,,,,,,,,,,,,,,,,,,,,,,,,,,,,,,,,,,,,,,,,,,,,,,,,,,,,,,,,,,,,,,,102221,1,2,0,2,0,1,2,0,40,2021_Oct_22_1519,listening_fmri,3.2.4,59.9459075704858,
3,parcelated_audio/44/44_25.ogg,,,,,,,,,0,0,0,0,0,3,3,3,0,0,0,0,,,,,,,,,0,0,0,0,0,24,24,24,,,,,,,,,,,,,,,,,,,,,,,,,,,,,,,,,,,,,,,,,,,,,,,,708.9111122680006,715.2141377119988,,,,,,,,,,,,,,,,,,,,,,,,,,,,,,,,,,,,,,,,,,,,,,,,,,,,,,,,,,,,,,,,,,,,102221,1,2,0,2,0,1,2,0,40,2021_Oct_22_1519,listening_fmri,3.2.4,59.9459075704858,
3,parcelated_audio/44/44_26.ogg,,,,,,,,,0,0,0,0,0,3,3,3,0,0,0,0,,,,,,,,,0,0,0,0,0,25,25,25,,,,,,,,,,,,,,,,,,,,,,,,,,,,,,,,,,,,,,,,,,,,,,,,715.2144664389998,720.0673813190006,,,,,,,,,,,,,,,,,,,,,,,,,,,,,,,,,,,,,,,,,,,,,,,,,,,,,,,,,,,,,,,,,,,,102221,1,2,0,2,0,1,2,0,40,2021_Oct_22_1519,listening_fmri,3.2.4,59.9459075704858,
3,parcelated_audio/44/44_27.ogg,,,,,,,,,0,0,0,0,0,3,3,3,0,0,0,0,,,,,,,,,0,0,0,0,0,26,26,26,,,,,,,,,,,,,,,,,,,,,,,,,,,,,,,,,,,,,,,,,,,,,,,,720.0676748719998,727.0513260619991,,,,,,,,,,,,,,,,,,,,,,,,,,,,,,,,,,,,,,,,,,,,,,,,,,,,,,,,,,,,,,,,,,,,102221,1,2,0,2,0,1,2,0,40,2021_Oct_22_1519,listening_fmri,3.2.4,59.9459075704858,
3,parcelated_audio/44/44_28.ogg,,,,,,,,,0,0,0,0,0,3,3,3,0,0,0,0,,,,,,,,,0,0,0,0,0,27,27,27,,,,,,,,,,,,,,,,,,,,,,,,,,,,,,,,,,,,,,,,,,,,,,,,727.0515991539978,738.318533368998,,,,,,,,,,,,,,,,,,,,,,,,,,,,,,,,,,,,,,,,,,,,,,,,,,,,,,,,,,,,,,,,,,,,102221,1,2,0,2,0,1,2,0,40,2021_Oct_22_1519,listening_fmri,3.2.4,59.9459075704858,
3,,,,,,,,,,0,0,0,0,0,3,3,3,0,0,0,0,,,,,,,,,0,0,0,0,,,,,,,,,,,,,,,,,,,,,,,,,,,,,,,,,,,,,,,,,,,,,,,,,,,,,,,,,,,,,,,,,,,,,,,,,,,,,,,,,,,,,,,,,,,,,,,,,,,,,,,,,,,,,,,,,,,,,,,,,102221,1,2,0,2,0,1,2,0,40,2021_Oct_22_1519,listening_fmri,3.2.4,59.9459075704858,
3,,,,,,,,,,0,0,0,0,0,3,3,3,0,0,0,0,,,,,,,,,,,,,,,,,,,,,,,,,,,,,,,,,,,,,,,,,,738.3189041799997,744.3156523389989,791.101562322001,None,,,,,,,,,,,,,,,,,,,,,797.1015846910013,None,797.1015846910013,None,,,,,,,,,,,,,,,,,,,,,,,,,,,,,,,,,,,,,,,,,,,,,,,,,,,,,,,,,,,,,,,,102221,1,2,0,2,0,1,2,0,40,2021_Oct_22_1519,listening_fmri,3.2.4,59.9459075704858,
3,,,,,,,,,,0,0,0,0,0,3,3,3,,,,,,,,,,,,,,,,,,,,,,,,,,,,,,,,,,,,,,,,,,,,,,,,,,,,,,,,,,,,,,,,,,,,,,,,,,,,,,,,,,,,,,,,,,,,,,,,,,,,,,,,,,,,,,,,,,,,,,,,,,,,,,,,,,,,,,,,,102221,1,2,0,2,0,1,2,0,40,2021_Oct_22_1519,listening_fmri,3.2.4,59.9459075704858,
4,,,,,,,,,,0,0,0,0,0,4,4,4,0,0,0,0,0,0,0,0,,,,,,,,,,,,,,,,,0,0,0,0,,,,,,,,,,,,,,,,,,,,,,798.1180195900015,None,798.1180195900015,None,7,0.8381297810010437,798.1180195900015,None,798.1180195900015,None,,,,,,,,,,,,,,,798.9841831500016,None,7,0.48480266600017785,798.9841831500016,None,798.9841831500016,None,799.518669658999,None,799.518669658999,None,799.518669658999,None,7,0.6094620599978953,799.518669658999,None,800.1513064770006,None,7,0.5627743610020843,800.1513064770006,None,800.1513064770006,None,800.817285811001,None,800.817285811001,None,800.817285811001,None,800.817285811001,None,800.817285811001,None,800.817285811001,None,800.817285811001,None,None,800.817285811001,None,,,,,,,,,,,,,,,,,,,,,102221,1,2,0,2,0,1,2,0,40,2021_Oct_22_1519,listening_fmri,3.2.4,59.9459075704858,
4,,,,,,,,,,0,0,0,0,0,4,4,4,0,0,0,0,0,0,0,0,,,,,,,,,,,,,,,,,,,,,,,,,,,,,,,,,,,,,,,,,,,,,,,,,,,,,,,,,,,,,,,,,,,,,,,,,,,,,,,,,,,,,,,,,,,,,,,,,,,,,,,,,,,,,819.5177030679988,None,7,0.8683848009968642,819.5177030679988,None,819.5177030679988,None,820.4508047829986,None,820.4508047829986,None,820.4508047829986,None,7,0.7883168549997208,820.4508047829986,None,,,102221,1,2,0,2,0,1,2,0,40,2021_Oct_22_1519,listening_fmri,3.2.4,59.9459075704858,
4,parcelated_audio/22/22_1.ogg,,,,,,,,,0,0,0,0,0,4,4,4,0,0,0,0,,,,,,,,,0,0,0,0,0,0,0,0,,,,,,,,,,,,,,,,,,,,,,,,,,,,,,,,,,,,,,,,821.2677264490012,None,7,0.47330204999889247,821.2677264490012,None,768.9900698099991,771.9991898119988,772.0048542299992,785.0513352870003,,,,,,,,,,,,,,,,,,,,,,,,,,,,,,,,,,,,,,,,,,,,,,,,,,,,,,,,,,,,,,,,,,,,102221,1,2,0,2,0,1,2,0,40,2021_Oct_22_1519,listening_fmri,3.2.4,59.9459075704858,
4,parcelated_audio/22/22_2.ogg,,,,,,,,,0,0,0,0,0,4,4,4,0,0,0,0,,,,,,,,,0,0,0,0,0,1,1,1,,,,,,,,,,,,,,,,,,,,,,,,,,,,,,,,,,,,,,,,,,,,,,,,785.0523457819982,791.4223086589991,,,,,,,,,,,,,,,,,,,,,,,,,,,,,,,,,,,,,,,,,,,,,,,,,,,,,,,,,,,,,,,,,,,,102221,1,2,0,2,0,1,2,0,40,2021_Oct_22_1519,listening_fmri,3.2.4,59.9459075704858,
4,parcelated_audio/22/22_3.ogg,,,,,,,,,0,0,0,0,0,4,4,4,0,0,0,0,,,,,,,,,0,0,0,0,0,2,2,2,,,,,,,,,,,,,,,,,,,,,,,,,,,,,,,,,,,,,,,,,,,,,,,,791.4236204129993,804.3477621839993,,,,,,,,,,,,,,,,,,,,,,,,,,,,,,,,,,,,,,,,,,,,,,,,,,,,,,,,,,,,,,,,,,,,102221,1,2,0,2,0,1,2,0,40,2021_Oct_22_1519,listening_fmri,3.2.4,59.9459075704858,
4,parcelated_audio/22/22_4.ogg,,,,,,,,,0,0,0,0,0,4,4,4,0,0,0,0,,,,,,,,,0,0,0,0,0,3,3,3,,,,,,,,,,,,,,,,,,,,,,,,,,,,,,,,,,,,,,,,,,,,,,,,804.3481117699994,816.7517271239994,,,,,,,,,,,,,,,,,,,,,,,,,,,,,,,,,,,,,,,,,,,,,,,,,,,,,,,,,,,,,,,,,,,,102221,1,2,0,2,0,1,2,0,40,2021_Oct_22_1519,listening_fmri,3.2.4,59.9459075704858,
4,parcelated_audio/22/22_5.ogg,,,,,,,,,0,0,0,0,0,4,4,4,0,0,0,0,,,,,,,,,0,0,0,0,0,4,4,4,,,,,,,,,,,,,,,,,,,,,,,,,,,,,,,,,,,,,,,,,,,,,,,,816.7522365719997,822.6890163239987,,,,,,,,,,,,,,,,,,,,,,,,,,,,,,,,,,,,,,,,,,,,,,,,,,,,,,,,,,,,,,,,,,,,102221,1,2,0,2,0,1,2,0,40,2021_Oct_22_1519,listening_fmri,3.2.4,59.9459075704858,
4,parcelated_audio/22/22_6.ogg,,,,,,,,,0,0,0,0,0,4,4,4,0,0,0,0,,,,,,,,,0,0,0,0,0,5,5,5,,,,,,,,,,,,,,,,,,,,,,,,,,,,,,,,,,,,,,,,,,,,,,,,822.6893684959978,831.8941177839988,,,,,,,,,,,,,,,,,,,,,,,,,,,,,,,,,,,,,,,,,,,,,,,,,,,,,,,,,,,,,,,,,,,,102221,1,2,0,2,0,1,2,0,40,2021_Oct_22_1519,listening_fmri,3.2.4,59.9459075704858,
4,parcelated_audio/22/22_7.ogg,,,,,,,,,0,0,0,0,0,4,4,4,0,0,0,0,,,,,,,,,0,0,0,0,0,6,6,6,,,,,,,,,,,,,,,,,,,,,,,,,,,,,,,,,,,,,,,,,,,,,,,,831.894468511,836.9696801969985,,,,,,,,,,,,,,,,,,,,,,,,,,,,,,,,,,,,,,,,,,,,,,,,,,,,,,,,,,,,,,,,,,,,102221,1,2,0,2,0,1,2,0,40,2021_Oct_22_1519,listening_fmri,3.2.4,59.9459075704858,
4,parcelated_audio/22/22_8.ogg,,,,,,,,,0,0,0,0,0,4,4,4,0,0,0,0,,,,,,,,,0,0,0,0,0,7,7,7,,,,,,,,,,,,,,,,,,,,,,,,,,,,,,,,,,,,,,,,,,,,,,,,836.9700335429989,840.4964070479982,,,,,,,,,,,,,,,,,,,,,,,,,,,,,,,,,,,,,,,,,,,,,,,,,,,,,,,,,,,,,,,,,,,,102221,1,2,0,2,0,1,2,0,40,2021_Oct_22_1519,listening_fmri,3.2.4,59.9459075704858,
4,parcelated_audio/22/22_9.ogg,,,,,,,,,0,0,0,0,0,4,4,4,0,0,0,0,,,,,,,,,0,0,0,0,0,8,8,8,,,,,,,,,,,,,,,,,,,,,,,,,,,,,,,,,,,,,,,,,,,,,,,,840.4967676259985,844.3873342029983,,,,,,,,,,,,,,,,,,,,,,,,,,,,,,,,,,,,,,,,,,,,,,,,,,,,,,,,,,,,,,,,,,,,102221,1,2,0,2,0,1,2,0,40,2021_Oct_22_1519,listening_fmri,3.2.4,59.9459075704858,
4,parcelated_audio/22/22_10.ogg,,,,,,,,,0,0,0,0,0,4,4,4,0,0,0,0,,,,,,,,,0,0,0,0,0,9,9,9,,,,,,,,,,,,,,,,,,,,,,,,,,,,,,,,,,,,,,,,,,,,,,,,844.3876679819987,849.1519984339975,,,,,,,,,,,,,,,,,,,,,,,,,,,,,,,,,,,,,,,,,,,,,,,,,,,,,,,,,,,,,,,,,,,,102221,1,2,0,2,0,1,2,0,40,2021_Oct_22_1519,listening_fmri,3.2.4,59.9459075704858,
4,parcelated_audio/22/22_11.ogg,,,,,,,,,0,0,0,0,0,4,4,4,0,0,0,0,,,,,,,,,0,0,0,0,0,10,10,10,,,,,,,,,,,,,,,,,,,,,,,,,,,,,,,,,,,,,,,,,,,,,,,,849.1523872399994,856.4364084599983,,,,,,,,,,,,,,,,,,,,,,,,,,,,,,,,,,,,,,,,,,,,,,,,,,,,,,,,,,,,,,,,,,,,102221,1,2,0,2,0,1,2,0,40,2021_Oct_22_1519,listening_fmri,3.2.4,59.9459075704858,
4,parcelated_audio/22/22_12.ogg,,,,,,,,,0,0,0,0,0,4,4,4,0,0,0,0,,,,,,,,,0,0,0,0,0,11,11,11,,,,,,,,,,,,,,,,,,,,,,,,,,,,,,,,,,,,,,,,,,,,,,,,856.4366984679982,864.1514565439975,,,,,,,,,,,,,,,,,,,,,,,,,,,,,,,,,,,,,,,,,,,,,,,,,,,,,,,,,,,,,,,,,,,,102221,1,2,0,2,0,1,2,0,40,2021_Oct_22_1519,listening_fmri,3.2.4,59.9459075704858,
4,parcelated_audio/22/22_13.ogg,,,,,,,,,0,0,0,0,0,4,4,4,0,0,0,0,,,,,,,,,0,0,0,0,0,12,12,12,,,,,,,,,,,,,,,,,,,,,,,,,,,,,,,,,,,,,,,,,,,,,,,,864.1517348829984,871.4152420489991,,,,,,,,,,,,,,,,,,,,,,,,,,,,,,,,,,,,,,,,,,,,,,,,,,,,,,,,,,,,,,,,,,,,102221,1,2,0,2,0,1,2,0,40,2021_Oct_22_1519,listening_fmri,3.2.4,59.9459075704858,
4,parcelated_audio/22/22_14.ogg,,,,,,,,,0,0,0,0,0,4,4,4,0,0,0,0,,,,,,,,,0,0,0,0,0,13,13,13,,,,,,,,,,,,,,,,,,,,,,,,,,,,,,,,,,,,,,,,,,,,,,,,871.4155168990001,877.0352440469978,,,,,,,,,,,,,,,,,,,,,,,,,,,,,,,,,,,,,,,,,,,,,,,,,,,,,,,,,,,,,,,,,,,,102221,1,2,0,2,0,1,2,0,40,2021_Oct_22_1519,listening_fmri,3.2.4,59.9459075704858,
4,parcelated_audio/22/22_15.ogg,,,,,,,,,0,0,0,0,0,4,4,4,0,0,0,0,,,,,,,,,0,0,0,0,0,14,14,14,,,,,,,,,,,,,,,,,,,,,,,,,,,,,,,,,,,,,,,,,,,,,,,,877.0357393159975,884.8060673029977,,,,,,,,,,,,,,,,,,,,,,,,,,,,,,,,,,,,,,,,,,,,,,,,,,,,,,,,,,,,,,,,,,,,102221,1,2,0,2,0,1,2,0,40,2021_Oct_22_1519,listening_fmri,3.2.4,59.9459075704858,
4,parcelated_audio/22/22_16.ogg,,,,,,,,,0,0,0,0,0,4,4,4,0,0,0,0,,,,,,,,,0,0,0,0,0,15,15,15,,,,,,,,,,,,,,,,,,,,,,,,,,,,,,,,,,,,,,,,,,,,,,,,884.8063397689984,893.470056143,,,,,,,,,,,,,,,,,,,,,,,,,,,,,,,,,,,,,,,,,,,,,,,,,,,,,,,,,,,,,,,,,,,,102221,1,2,0,2,0,1,2,0,40,2021_Oct_22_1519,listening_fmri,3.2.4,59.9459075704858,
4,parcelated_audio/22/22_17.ogg,,,,,,,,,0,0,0,0,0,4,4,4,0,0,0,0,,,,,,,,,0,0,0,0,0,16,16,16,,,,,,,,,,,,,,,,,,,,,,,,,,,,,,,,,,,,,,,,,,,,,,,,893.4705337499981,896.6298510899978,,,,,,,,,,,,,,,,,,,,,,,,,,,,,,,,,,,,,,,,,,,,,,,,,,,,,,,,,,,,,,,,,,,,102221,1,2,0,2,0,1,2,0,40,2021_Oct_22_1519,listening_fmri,3.2.4,59.9459075704858,
4,parcelated_audio/22/22_18.ogg,,,,,,,,,0,0,0,0,0,4,4,4,0,0,0,0,,,,,,,,,0,0,0,0,0,17,17,17,,,,,,,,,,,,,,,,,,,,,,,,,,,,,,,,,,,,,,,,,,,,,,,,896.6301258919993,903.3608738160001,,,,,,,,,,,,,,,,,,,,,,,,,,,,,,,,,,,,,,,,,,,,,,,,,,,,,,,,,,,,,,,,,,,,102221,1,2,0,2,0,1,2,0,40,2021_Oct_22_1519,listening_fmri,3.2.4,59.9459075704858,
4,parcelated_audio/22/22_19.ogg,,,,,,,,,0,0,0,0,0,4,4,4,0,0,0,0,,,,,,,,,0,0,0,0,0,18,18,18,,,,,,,,,,,,,,,,,,,,,,,,,,,,,,,,,,,,,,,,,,,,,,,,903.3611502659987,908.3340569719985,,,,,,,,,,,,,,,,,,,,,,,,,,,,,,,,,,,,,,,,,,,,,,,,,,,,,,,,,,,,,,,,,,,,102221,1,2,0,2,0,1,2,0,40,2021_Oct_22_1519,listening_fmri,3.2.4,59.9459075704858,
4,parcelated_audio/22/22_20.ogg,,,,,,,,,0,0,0,0,0,4,4,4,0,0,0,0,,,,,,,,,0,0,0,0,0,19,19,19,,,,,,,,,,,,,,,,,,,,,,,,,,,,,,,,,,,,,,,,,,,,,,,,908.334506490999,922.4723122949981,,,,,,,,,,,,,,,,,,,,,,,,,,,,,,,,,,,,,,,,,,,,,,,,,,,,,,,,,,,,,,,,,,,,102221,1,2,0,2,0,1,2,0,40,2021_Oct_22_1519,listening_fmri,3.2.4,59.9459075704858,
4,parcelated_audio/22/22_21.ogg,,,,,,,,,0,0,0,0,0,4,4,4,0,0,0,0,,,,,,,,,0,0,0,0,0,20,20,20,,,,,,,,,,,,,,,,,,,,,,,,,,,,,,,,,,,,,,,,,,,,,,,,922.4725844109998,924.5797332269976,,,,,,,,,,,,,,,,,,,,,,,,,,,,,,,,,,,,,,,,,,,,,,,,,,,,,,,,,,,,,,,,,,,,102221,1,2,0,2,0,1,2,0,40,2021_Oct_22_1519,listening_fmri,3.2.4,59.9459075704858,
4,parcelated_audio/22/22_22.ogg,,,,,,,,,0,0,0,0,0,4,4,4,0,0,0,0,,,,,,,,,0,0,0,0,0,21,21,21,,,,,,,,,,,,,,,,,,,,,,,,,,,,,,,,,,,,,,,,,,,,,,,,924.5800869710001,927.7392275019993,,,,,,,,,,,,,,,,,,,,,,,,,,,,,,,,,,,,,,,,,,,,,,,,,,,,,,,,,,,,,,,,,,,,102221,1,2,0,2,0,1,2,0,40,2021_Oct_22_1519,listening_fmri,3.2.4,59.9459075704858,
4,parcelated_audio/22/22_23.ogg,,,,,,,,,0,0,0,0,0,4,4,4,0,0,0,0,,,,,,,,,0,0,0,0,0,22,22,22,,,,,,,,,,,,,,,,,,,,,,,,,,,,,,,,,,,,,,,,,,,,,,,,927.7396319459986,934.2648850160003,,,,,,,,,,,,,,,,,,,,,,,,,,,,,,,,,,,,,,,,,,,,,,,,,,,,,,,,,,,,,,,,,,,,102221,1,2,0,2,0,1,2,0,40,2021_Oct_22_1519,listening_fmri,3.2.4,59.9459075704858,
4,parcelated_audio/22/22_24.ogg,,,,,,,,,0,0,0,0,0,4,4,4,0,0,0,0,,,,,,,,,0,0,0,0,0,23,23,23,,,,,,,,,,,,,,,,,,,,,,,,,,,,,,,,,,,,,,,,,,,,,,,,934.2653983079981,940.0032276220008,,,,,,,,,,,,,,,,,,,,,,,,,,,,,,,,,,,,,,,,,,,,,,,,,,,,,,,,,,,,,,,,,,,,102221,1,2,0,2,0,1,2,0,40,2021_Oct_22_1519,listening_fmri,3.2.4,59.9459075704858,
4,parcelated_audio/22/22_25.ogg,,,,,,,,,0,0,0,0,0,4,4,4,0,0,0,0,,,,,,,,,0,0,0,0,0,24,24,24,,,,,,,,,,,,,,,,,,,,,,,,,,,,,,,,,,,,,,,,,,,,,,,,940.0037323539982,952.7916098460009,,,,,,,,,,,,,,,,,,,,,,,,,,,,,,,,,,,,,,,,,,,,,,,,,,,,,,,,,,,,,,,,,,,,102221,1,2,0,2,0,1,2,0,40,2021_Oct_22_1519,listening_fmri,3.2.4,59.9459075704858,
4,parcelated_audio/22/22_26.ogg,,,,,,,,,0,0,0,0,0,4,4,4,0,0,0,0,,,,,,,,,0,0,0,0,0,25,25,25,,,,,,,,,,,,,,,,,,,,,,,,,,,,,,,,,,,,,,,,,,,,,,,,952.7919616350009,959.5183595519993,,,,,,,,,,,,,,,,,,,,,,,,,,,,,,,,,,,,,,,,,,,,,,,,,,,,,,,,,,,,,,,,,,,,102221,1,2,0,2,0,1,2,0,40,2021_Oct_22_1519,listening_fmri,3.2.4,59.9459075704858,
4,parcelated_audio/22/22_27.ogg,,,,,,,,,0,0,0,0,0,4,4,4,0,0,0,0,,,,,,,,,0,0,0,0,0,26,26,26,,,,,,,,,,,,,,,,,,,,,,,,,,,,,,,,,,,,,,,,,,,,,,,,959.5189044699982,963.9161005919996,,,,,,,,,,,,,,,,,,,,,,,,,,,,,,,,,,,,,,,,,,,,,,,,,,,,,,,,,,,,,,,,,,,,102221,1,2,0,2,0,1,2,0,40,2021_Oct_22_1519,listening_fmri,3.2.4,59.9459075704858,
4,parcelated_audio/22/22_28.ogg,,,,,,,,,0,0,0,0,0,4,4,4,0,0,0,0,,,,,,,,,0,0,0,0,0,27,27,27,,,,,,,,,,,,,,,,,,,,,,,,,,,,,,,,,,,,,,,,,,,,,,,,963.916377491998,969.6670159899986,,,,,,,,,,,,,,,,,,,,,,,,,,,,,,,,,,,,,,,,,,,,,,,,,,,,,,,,,,,,,,,,,,,,102221,1,2,0,2,0,1,2,0,40,2021_Oct_22_1519,listening_fmri,3.2.4,59.9459075704858,
4,parcelated_audio/22/22_29.ogg,,,,,,,,,0,0,0,0,0,4,4,4,0,0,0,0,,,,,,,,,0,0,0,0,0,28,28,28,,,,,,,,,,,,,,,,,,,,,,,,,,,,,,,,,,,,,,,,,,,,,,,,969.667290076999,975.3766236269985,,,,,,,,,,,,,,,,,,,,,,,,,,,,,,,,,,,,,,,,,,,,,,,,,,,,,,,,,,,,,,,,,,,,102221,1,2,0,2,0,1,2,0,40,2021_Oct_22_1519,listening_fmri,3.2.4,59.9459075704858,
4,parcelated_audio/22/22_30.ogg,,,,,,,,,0,0,0,0,0,4,4,4,0,0,0,0,,,,,,,,,0,0,0,0,0,29,29,29,,,,,,,,,,,,,,,,,,,,,,,,,,,,,,,,,,,,,,,,,,,,,,,,975.3769805029988,978.0917745769984,,,,,,,,,,,,,,,,,,,,,,,,,,,,,,,,,,,,,,,,,,,,,,,,,,,,,,,,,,,,,,,,,,,,102221,1,2,0,2,0,1,2,0,40,2021_Oct_22_1519,listening_fmri,3.2.4,59.9459075704858,
4,parcelated_audio/22/22_31.ogg,,,,,,,,,0,0,0,0,0,4,4,4,0,0,0,0,,,,,,,,,0,0,0,0,0,30,30,30,,,,,,,,,,,,,,,,,,,,,,,,,,,,,,,,,,,,,,,,,,,,,,,,978.0921253470005,983.2353289700004,,,,,,,,,,,,,,,,,,,,,,,,,,,,,,,,,,,,,,,,,,,,,,,,,,,,,,,,,,,,,,,,,,,,102221,1,2,0,2,0,1,2,0,40,2021_Oct_22_1519,listening_fmri,3.2.4,59.9459075704858,
4,parcelated_audio/22/22_32.ogg,,,,,,,,,0,0,0,0,0,4,4,4,0,0,0,0,,,,,,,,,0,0,0,0,0,31,31,31,,,,,,,,,,,,,,,,,,,,,,,,,,,,,,,,,,,,,,,,,,,,,,,,983.2357482619991,989.555606078,,,,,,,,,,,,,,,,,,,,,,,,,,,,,,,,,,,,,,,,,,,,,,,,,,,,,,,,,,,,,,,,,,,,102221,1,2,0,2,0,1,2,0,40,2021_Oct_22_1519,listening_fmri,3.2.4,59.9459075704858,
4,parcelated_audio/22/22_33.ogg,,,,,,,,,0,0,0,0,0,4,4,4,0,0,0,0,,,,,,,,,0,0,0,0,0,32,32,32,,,,,,,,,,,,,,,,,,,,,,,,,,,,,,,,,,,,,,,,,,,,,,,,989.5559590839985,993.9929577949988,,,,,,,,,,,,,,,,,,,,,,,,,,,,,,,,,,,,,,,,,,,,,,,,,,,,,,,,,,,,,,,,,,,,102221,1,2,0,2,0,1,2,0,40,2021_Oct_22_1519,listening_fmri,3.2.4,59.9459075704858,
4,parcelated_audio/22/22_34.ogg,,,,,,,,,0,0,0,0,0,4,4,4,0,0,0,0,,,,,,,,,0,0,0,0,0,33,33,33,,,,,,,,,,,,,,,,,,,,,,,,,,,,,,,,,,,,,,,,,,,,,,,,993.9933608219981,1002.1358602949986,,,,,,,,,,,,,,,,,,,,,,,,,,,,,,,,,,,,,,,,,,,,,,,,,,,,,,,,,,,,,,,,,,,,102221,1,2,0,2,0,1,2,0,40,2021_Oct_22_1519,listening_fmri,3.2.4,59.9459075704858,
4,parcelated_audio/22/22_35.ogg,,,,,,,,,0,0,0,0,0,4,4,4,0,0,0,0,,,,,,,,,0,0,0,0,0,34,34,34,,,,,,,,,,,,,,,,,,,,,,,,,,,,,,,,,,,,,,,,,,,,,,,,1002.1362144310006,1009.6525435490003,,,,,,,,,,,,,,,,,,,,,,,,,,,,,,,,,,,,,,,,,,,,,,,,,,,,,,,,,,,,,,,,,,,,102221,1,2,0,2,0,1,2,0,40,2021_Oct_22_1519,listening_fmri,3.2.4,59.9459075704858,
4,parcelated_audio/22/22_36.ogg,,,,,,,,,0,0,0,0,0,4,4,4,0,0,0,0,,,,,,,,,0,0,0,0,0,35,35,35,,,,,,,,,,,,,,,,,,,,,,,,,,,,,,,,,,,,,,,,,,,,,,,,1009.6529014139996,1022.3526489420001,,,,,,,,,,,,,,,,,,,,,,,,,,,,,,,,,,,,,,,,,,,,,,,,,,,,,,,,,,,,,,,,,,,,102221,1,2,0,2,0,1,2,0,40,2021_Oct_22_1519,listening_fmri,3.2.4,59.9459075704858,
4,parcelated_audio/22/22_37.ogg,,,,,,,,,0,0,0,0,0,4,4,4,0,0,0,0,,,,,,,,,0,0,0,0,0,36,36,36,,,,,,,,,,,,,,,,,,,,,,,,,,,,,,,,,,,,,,,,,,,,,,,,1022.3532080839977,1029.5364698049998,,,,,,,,,,,,,,,,,,,,,,,,,,,,,,,,,,,,,,,,,,,,,,,,,,,,,,,,,,,,,,,,,,,,102221,1,2,0,2,0,1,2,0,40,2021_Oct_22_1519,listening_fmri,3.2.4,59.9459075704858,
4,,,,,,,,,,0,0,0,0,0,4,4,4,0,0,0,0,,,,,,,,,0,0,0,0,,,,,,,,,,,,,,,,,,,,,,,,,,,,,,,,,,,,,,,,,,,,,,,,,,,,,,,,,,,,,,,,,,,,,,,,,,,,,,,,,,,,,,,,,,,,,,,,,,,,,,,,,,,,,,,,,,,,,,,,,102221,1,2,0,2,0,1,2,0,40,2021_Oct_22_1519,listening_fmri,3.2.4,59.9459075704858,
4,,,,,,,,,,0,0,0,0,0,4,4,4,0,0,0,0,,,,,,,,,,,,,,,,,,,,,,,,,,,,,,,,,,,,,,,,,,1029.5369876529985,1035.5292851550003,1082.3142876460006,None,,,,,,,,,,,,,,,,,,,,,1088.313752850001,None,1088.313752850001,None,,,,,,,,,,,,,,,,,,,,,,,,,,,,,,,,,,,,,,,,,,,,,,,,,,,,,,,,,,,,,,,,102221,1,2,0,2,0,1,2,0,40,2021_Oct_22_1519,listening_fmri,3.2.4,59.9459075704858,
4,,,,,,,,,,0,0,0,0,0,4,4,4,,,,,,,,,,,,,,,,,,,,,,,,,,,,,,,,,,,,,,,,,,,,,,,,,,,,,,,,,,,,,,,,,,,,,,,,,,,,,,,,,,,,,,,,,,,,,,,,,,,,,,,,,,,,,,,,,,,,,,,,,,,,,,,,,,,,,,,,,102221,1,2,0,2,0,1,2,0,40,2021_Oct_22_1519,listening_fmri,3.2.4,59.9459075704858,
5,,,,,,,,,,0,0,0,0,0,5,5,5,,,,,,,,,,,,,,,,,,,,,,,,,,,,,,,,,,,,,,,,,,,,,,,,,,,,,,,,,,,,,,,,,,,,,,,,,,,,,,,,,,,,,,,,,,,,,,,,,,,,,,,,,,,,,,,,,,,,,,,,,,,,,,,,,,,,,,,,,102221,1,2,0,2,0,1,2,0,40,2021_Oct_22_1519,listening_fmri,3.2.4,59.9459075704858,
6,,,,,,,,,,0,0,0,0,0,6,6,6,0,0,0,0,0,0,0,0,,,,,,,,,,,,,,,,,0,0,0,0,,,,,,,,,,,,,,,,,,,,,,1089.347398490001,None,1089.347398490001,None,6,0.5116852250030206,1089.347398490001,None,1089.347398490001,None,,,,,,,,,,,,,,,1089.885317291999,None,6,0.6237035839985765,1089.885317291999,None,1089.885317291999,None,1090.5477031599985,None,1090.5477031599985,None,1090.5477031599985,None,6,0.6522972630009463,1090.5477031599985,None,1091.2306138329986,None,6,0.6025456200004555,1091.2306138329986,None,1091.2306138329986,None,1091.9145568329986,None,1091.9145568329986,None,1091.9145568329986,None,1091.9145568329986,None,1091.9145568329986,None,1091.9145568329986,None,1091.9145568329986,None,None,1091.9145568329986,None,,,,,,,,,,,,,,,,,,,,,102221,1,2,0,2,0,1,2,0,40,2021_Oct_22_1519,listening_fmri,3.2.4,59.9459075704858,
6,,,,,,,,,,0,0,0,0,0,6,6,6,0,0,0,0,0,0,0,0,,,,,,,,,,,,,,,,,,,,,,,,,,,,,,,,,,,,,,,,,,,,,,,,,,,,,,,,,,,,,,,,,,,,,,,,,,,,,,,,,,,,,,,,,,,,,,,,,,,,,,,,,,,,,1105.4802734859986,None,6,2.1097916109974904,1105.4802734859986,None,1105.4802734859986,None,1107.631025579998,None,1107.631025579998,None,1107.631025579998,None,6,0.34912301899748854,1107.631025579998,None,,,102221,1,2,0,2,0,1,2,0,40,2021_Oct_22_1519,listening_fmri,3.2.4,59.9459075704858,
6,parcelated_audio/24/24_1.ogg,,,,,,,,,0,0,0,0,0,6,6,6,0,0,0,0,,,,,,,,,0,0,0,0,0,0,0,0,,,,,,,,,,,,,,,,,,,,,,,,,,,,,,,,,,,,,,,,1108.0022142240014,None,6,0.9809314830017684,1108.0022142240014,None,1056.2514689960008,1059.2620801730009,1059.267463952001,1069.694407922998,,,,,,,,,,,,,,,,,,,,,,,,,,,,,,,,,,,,,,,,,,,,,,,,,,,,,,,,,,,,,,,,,,,,102221,1,2,0,2,0,1,2,0,40,2021_Oct_22_1519,listening_fmri,3.2.4,59.9459075704858,
6,parcelated_audio/24/24_2.ogg,,,,,,,,,0,0,0,0,0,6,6,6,0,0,0,0,,,,,,,,,0,0,0,0,0,1,1,1,,,,,,,,,,,,,,,,,,,,,,,,,,,,,,,,,,,,,,,,,,,,,,,,1069.6948267379994,1076.0142495189975,,,,,,,,,,,,,,,,,,,,,,,,,,,,,,,,,,,,,,,,,,,,,,,,,,,,,,,,,,,,,,,,,,,,102221,1,2,0,2,0,1,2,0,40,2021_Oct_22_1519,listening_fmri,3.2.4,59.9459075704858,
6,parcelated_audio/24/24_3.ogg,,,,,,,,,0,0,0,0,0,6,6,6,0,0,0,0,,,,,,,,,0,0,0,0,0,2,2,2,,,,,,,,,,,,,,,,,,,,,,,,,,,,,,,,,,,,,,,,,,,,,,,,1076.0146310870005,1087.6140053399977,,,,,,,,,,,,,,,,,,,,,,,,,,,,,,,,,,,,,,,,,,,,,,,,,,,,,,,,,,,,,,,,,,,,102221,1,2,0,2,0,1,2,0,40,2021_Oct_22_1519,listening_fmri,3.2.4,59.9459075704858,
6,parcelated_audio/24/24_4.ogg,,,,,,,,,0,0,0,0,0,6,6,6,0,0,0,0,,,,,,,,,0,0,0,0,0,3,3,3,,,,,,,,,,,,,,,,,,,,,,,,,,,,,,,,,,,,,,,,,,,,,,,,1087.6143555380004,1094.5075318380004,,,,,,,,,,,,,,,,,,,,,,,,,,,,,,,,,,,,,,,,,,,,,,,,,,,,,,,,,,,,,,,,,,,,102221,1,2,0,2,0,1,2,0,40,2021_Oct_22_1519,listening_fmri,3.2.4,59.9459075704858,
6,parcelated_audio/24/24_5.ogg,,,,,,,,,0,0,0,0,0,6,6,6,0,0,0,0,,,,,,,,,0,0,0,0,0,4,4,4,,,,,,,,,,,,,,,,,,,,,,,,,,,,,,,,,,,,,,,,,,,,,,,,1094.5078776619994,1099.4753422110007,,,,,,,,,,,,,,,,,,,,,,,,,,,,,,,,,,,,,,,,,,,,,,,,,,,,,,,,,,,,,,,,,,,,102221,1,2,0,2,0,1,2,0,40,2021_Oct_22_1519,listening_fmri,3.2.4,59.9459075704858,
6,parcelated_audio/24/24_6.ogg,,,,,,,,,0,0,0,0,0,6,6,6,0,0,0,0,,,,,,,,,0,0,0,0,0,5,5,5,,,,,,,,,,,,,,,,,,,,,,,,,,,,,,,,,,,,,,,,,,,,,,,,1099.4761613339979,1106.9324814409993,,,,,,,,,,,,,,,,,,,,,,,,,,,,,,,,,,,,,,,,,,,,,,,,,,,,,,,,,,,,,,,,,,,,102221,1,2,0,2,0,1,2,0,40,2021_Oct_22_1519,listening_fmri,3.2.4,59.9459075704858,
6,parcelated_audio/24/24_7.ogg,,,,,,,,,0,0,0,0,0,6,6,6,0,0,0,0,,,,,,,,,0,0,0,0,0,6,6,6,,,,,,,,,,,,,,,,,,,,,,,,,,,,,,,,,,,,,,,,,,,,,,,,1106.9329359980002,1111.3132164790004,,,,,,,,,,,,,,,,,,,,,,,,,,,,,,,,,,,,,,,,,,,,,,,,,,,,,,,,,,,,,,,,,,,,102221,1,2,0,2,0,1,2,0,40,2021_Oct_22_1519,listening_fmri,3.2.4,59.9459075704858,
6,parcelated_audio/24/24_8.ogg,,,,,,,,,0,0,0,0,0,6,6,6,0,0,0,0,,,,,,,,,0,0,0,0,0,7,7,7,,,,,,,,,,,,,,,,,,,,,,,,,,,,,,,,,,,,,,,,,,,,,,,,1111.3134678089991,1117.3673295609988,,,,,,,,,,,,,,,,,,,,,,,,,,,,,,,,,,,,,,,,,,,,,,,,,,,,,,,,,,,,,,,,,,,,102221,1,2,0,2,0,1,2,0,40,2021_Oct_22_1519,listening_fmri,3.2.4,59.9459075704858,
6,parcelated_audio/24/24_9.ogg,,,,,,,,,0,0,0,0,0,6,6,6,0,0,0,0,,,,,,,,,0,0,0,0,0,8,8,8,,,,,,,,,,,,,,,,,,,,,,,,,,,,,,,,,,,,,,,,,,,,,,,,1117.367729518999,1121.6983700499986,,,,,,,,,,,,,,,,,,,,,,,,,,,,,,,,,,,,,,,,,,,,,,,,,,,,,,,,,,,,,,,,,,,,102221,1,2,0,2,0,1,2,0,40,2021_Oct_22_1519,listening_fmri,3.2.4,59.9459075704858,
6,parcelated_audio/24/24_10.ogg,,,,,,,,,0,0,0,0,0,6,6,6,0,0,0,0,,,,,,,,,0,0,0,0,0,9,9,9,,,,,,,,,,,,,,,,,,,,,,,,,,,,,,,,,,,,,,,,,,,,,,,,1121.6986412980004,1125.433186197999,,,,,,,,,,,,,,,,,,,,,,,,,,,,,,,,,,,,,,,,,,,,,,,,,,,,,,,,,,,,,,,,,,,,102221,1,2,0,2,0,1,2,0,40,2021_Oct_22_1519,listening_fmri,3.2.4,59.9459075704858,
6,parcelated_audio/24/24_11.ogg,,,,,,,,,0,0,0,0,0,6,6,6,0,0,0,0,,,,,,,,,0,0,0,0,0,10,10,10,,,,,,,,,,,,,,,,,,,,,,,,,,,,,,,,,,,,,,,,,,,,,,,,1125.4334618879984,1135.5570984939986,,,,,,,,,,,,,,,,,,,,,,,,,,,,,,,,,,,,,,,,,,,,,,,,,,,,,,,,,,,,,,,,,,,,102221,1,2,0,2,0,1,2,0,40,2021_Oct_22_1519,listening_fmri,3.2.4,59.9459075704858,
6,parcelated_audio/24/24_12.ogg,,,,,,,,,0,0,0,0,0,6,6,6,0,0,0,0,,,,,,,,,0,0,0,0,0,11,11,11,,,,,,,,,,,,,,,,,,,,,,,,,,,,,,,,,,,,,,,,,,,,,,,,1135.5574527690005,1144.7305297540006,,,,,,,,,,,,,,,,,,,,,,,,,,,,,,,,,,,,,,,,,,,,,,,,,,,,,,,,,,,,,,,,,,,,102221,1,2,0,2,0,1,2,0,40,2021_Oct_22_1519,listening_fmri,3.2.4,59.9459075704858,
6,parcelated_audio/24/24_13.ogg,,,,,,,,,0,0,0,0,0,6,6,6,0,0,0,0,,,,,,,,,0,0,0,0,0,12,12,12,,,,,,,,,,,,,,,,,,,,,,,,,,,,,,,,,,,,,,,,,,,,,,,,1144.7308833509996,1148.7075527380002,,,,,,,,,,,,,,,,,,,,,,,,,,,,,,,,,,,,,,,,,,,,,,,,,,,,,,,,,,,,,,,,,,,,102221,1,2,0,2,0,1,2,0,40,2021_Oct_22_1519,listening_fmri,3.2.4,59.9459075704858,
6,parcelated_audio/24/24_14.ogg,,,,,,,,,0,0,0,0,0,6,6,6,0,0,0,0,,,,,,,,,0,0,0,0,0,13,13,13,,,,,,,,,,,,,,,,,,,,,,,,,,,,,,,,,,,,,,,,,,,,,,,,1148.7078727259977,1156.094278086999,,,,,,,,,,,,,,,,,,,,,,,,,,,,,,,,,,,,,,,,,,,,,,,,,,,,,,,,,,,,,,,,,,,,102221,1,2,0,2,0,1,2,0,40,2021_Oct_22_1519,listening_fmri,3.2.4,59.9459075704858,
6,parcelated_audio/24/24_15.ogg,,,,,,,,,0,0,0,0,0,6,6,6,0,0,0,0,,,,,,,,,0,0,0,0,0,14,14,14,,,,,,,,,,,,,,,,,,,,,,,,,,,,,,,,,,,,,,,,,,,,,,,,1156.0947414369984,1162.6400447380001,,,,,,,,,,,,,,,,,,,,,,,,,,,,,,,,,,,,,,,,,,,,,,,,,,,,,,,,,,,,,,,,,,,,102221,1,2,0,2,0,1,2,0,40,2021_Oct_22_1519,listening_fmri,3.2.4,59.9459075704858,
6,parcelated_audio/24/24_16.ogg,,,,,,,,,0,0,0,0,0,6,6,6,0,0,0,0,,,,,,,,,0,0,0,0,0,15,15,15,,,,,,,,,,,,,,,,,,,,,,,,,,,,,,,,,,,,,,,,,,,,,,,,1162.6403242390006,1169.8206427090008,,,,,,,,,,,,,,,,,,,,,,,,,,,,,,,,,,,,,,,,,,,,,,,,,,,,,,,,,,,,,,,,,,,,102221,1,2,0,2,0,1,2,0,40,2021_Oct_22_1519,listening_fmri,3.2.4,59.9459075704858,
6,parcelated_audio/24/24_17.ogg,,,,,,,,,0,0,0,0,0,6,6,6,0,0,0,0,,,,,,,,,0,0,0,0,0,16,16,16,,,,,,,,,,,,,,,,,,,,,,,,,,,,,,,,,,,,,,,,,,,,,,,,1169.8209742020008,1175.9178198619993,,,,,,,,,,,,,,,,,,,,,,,,,,,,,,,,,,,,,,,,,,,,,,,,,,,,,,,,,,,,,,,,,,,,102221,1,2,0,2,0,1,2,0,40,2021_Oct_22_1519,listening_fmri,3.2.4,59.9459075704858,
6,parcelated_audio/24/24_18.ogg,,,,,,,,,0,0,0,0,0,6,6,6,0,0,0,0,,,,,,,,,0,0,0,0,0,17,17,17,,,,,,,,,,,,,,,,,,,,,,,,,,,,,,,,,,,,,,,,,,,,,,,,1175.9182414299976,1184.3683870299974,,,,,,,,,,,,,,,,,,,,,,,,,,,,,,,,,,,,,,,,,,,,,,,,,,,,,,,,,,,,,,,,,,,,102221,1,2,0,2,0,1,2,0,40,2021_Oct_22_1519,listening_fmri,3.2.4,59.9459075704858,
6,parcelated_audio/24/24_19.ogg,,,,,,,,,0,0,0,0,0,6,6,6,0,0,0,0,,,,,,,,,0,0,0,0,0,18,18,18,,,,,,,,,,,,,,,,,,,,,,,,,,,,,,,,,,,,,,,,,,,,,,,,1184.3688152959985,1194.0113008160006,,,,,,,,,,,,,,,,,,,,,,,,,,,,,,,,,,,,,,,,,,,,,,,,,,,,,,,,,,,,,,,,,,,,102221,1,2,0,2,0,1,2,0,40,2021_Oct_22_1519,listening_fmri,3.2.4,59.9459075704858,
6,parcelated_audio/24/24_20.ogg,,,,,,,,,0,0,0,0,0,6,6,6,0,0,0,0,,,,,,,,,0,0,0,0,0,19,19,19,,,,,,,,,,,,,,,,,,,,,,,,,,,,,,,,,,,,,,,,,,,,,,,,1194.0116010479978,1198.495107546998,,,,,,,,,,,,,,,,,,,,,,,,,,,,,,,,,,,,,,,,,,,,,,,,,,,,,,,,,,,,,,,,,,,,102221,1,2,0,2,0,1,2,0,40,2021_Oct_22_1519,listening_fmri,3.2.4,59.9459075704858,
6,parcelated_audio/24/24_21.ogg,,,,,,,,,0,0,0,0,0,6,6,6,0,0,0,0,,,,,,,,,0,0,0,0,0,20,20,20,,,,,,,,,,,,,,,,,,,,,,,,,,,,,,,,,,,,,,,,,,,,,,,,1198.4953809809995,1206.5233699109995,,,,,,,,,,,,,,,,,,,,,,,,,,,,,,,,,,,,,,,,,,,,,,,,,,,,,,,,,,,,,,,,,,,,102221,1,2,0,2,0,1,2,0,40,2021_Oct_22_1519,listening_fmri,3.2.4,59.9459075704858,
6,parcelated_audio/24/24_22.ogg,,,,,,,,,0,0,0,0,0,6,6,6,0,0,0,0,,,,,,,,,0,0,0,0,0,21,21,21,,,,,,,,,,,,,,,,,,,,,,,,,,,,,,,,,,,,,,,,,,,,,,,,1206.5236885999984,1217.1187003140003,,,,,,,,,,,,,,,,,,,,,,,,,,,,,,,,,,,,,,,,,,,,,,,,,,,,,,,,,,,,,,,,,,,,102221,1,2,0,2,0,1,2,0,40,2021_Oct_22_1519,listening_fmri,3.2.4,59.9459075704858,
6,parcelated_audio/24/24_23.ogg,,,,,,,,,0,0,0,0,0,6,6,6,0,0,0,0,,,,,,,,,0,0,0,0,0,22,22,22,,,,,,,,,,,,,,,,,,,,,,,,,,,,,,,,,,,,,,,,,,,,,,,,1217.1189843799984,1227.312284574,,,,,,,,,,,,,,,,,,,,,,,,,,,,,,,,,,,,,,,,,,,,,,,,,,,,,,,,,,,,,,,,,,,,102221,1,2,0,2,0,1,2,0,40,2021_Oct_22_1519,listening_fmri,3.2.4,59.9459075704858,
6,parcelated_audio/24/24_24.ogg,,,,,,,,,0,0,0,0,0,6,6,6,0,0,0,0,,,,,,,,,0,0,0,0,0,23,23,23,,,,,,,,,,,,,,,,,,,,,,,,,,,,,,,,,,,,,,,,,,,,,,,,1227.312559228998,1233.881205941998,,,,,,,,,,,,,,,,,,,,,,,,,,,,,,,,,,,,,,,,,,,,,,,,,,,,,,,,,,,,,,,,,,,,102221,1,2,0,2,0,1,2,0,40,2021_Oct_22_1519,listening_fmri,3.2.4,59.9459075704858,
6,parcelated_audio/24/24_25.ogg,,,,,,,,,0,0,0,0,0,6,6,6,0,0,0,0,,,,,,,,,0,0,0,0,0,24,24,24,,,,,,,,,,,,,,,,,,,,,,,,,,,,,,,,,,,,,,,,,,,,,,,,1233.8816952359994,1242.6427066449978,,,,,,,,,,,,,,,,,,,,,,,,,,,,,,,,,,,,,,,,,,,,,,,,,,,,,,,,,,,,,,,,,,,,102221,1,2,0,2,0,1,2,0,40,2021_Oct_22_1519,listening_fmri,3.2.4,59.9459075704858,
6,parcelated_audio/24/24_26.ogg,,,,,,,,,0,0,0,0,0,6,6,6,0,0,0,0,,,,,,,,,0,0,0,0,0,25,25,25,,,,,,,,,,,,,,,,,,,,,,,,,,,,,,,,,,,,,,,,,,,,,,,,1242.6430596239989,1249.205742653001,,,,,,,,,,,,,,,,,,,,,,,,,,,,,,,,,,,,,,,,,,,,,,,,,,,,,,,,,,,,,,,,,,,,102221,1,2,0,2,0,1,2,0,40,2021_Oct_22_1519,listening_fmri,3.2.4,59.9459075704858,
6,parcelated_audio/24/24_27.ogg,,,,,,,,,0,0,0,0,0,6,6,6,0,0,0,0,,,,,,,,,0,0,0,0,0,26,26,26,,,,,,,,,,,,,,,,,,,,,,,,,,,,,,,,,,,,,,,,,,,,,,,,1249.2061882540002,1255.3796235519985,,,,,,,,,,,,,,,,,,,,,,,,,,,,,,,,,,,,,,,,,,,,,,,,,,,,,,,,,,,,,,,,,,,,102221,1,2,0,2,0,1,2,0,40,2021_Oct_22_1519,listening_fmri,3.2.4,59.9459075704858,
6,parcelated_audio/24/24_28.ogg,,,,,,,,,0,0,0,0,0,6,6,6,0,0,0,0,,,,,,,,,0,0,0,0,0,27,27,27,,,,,,,,,,,,,,,,,,,,,,,,,,,,,,,,,,,,,,,,,,,,,,,,1255.3799784900002,1259.8796571059975,,,,,,,,,,,,,,,,,,,,,,,,,,,,,,,,,,,,,,,,,,,,,,,,,,,,,,,,,,,,,,,,,,,,102221,1,2,0,2,0,1,2,0,40,2021_Oct_22_1519,listening_fmri,3.2.4,59.9459075704858,
6,parcelated_audio/24/24_29.ogg,,,,,,,,,0,0,0,0,0,6,6,6,0,0,0,0,,,,,,,,,0,0,0,0,0,28,28,28,,,,,,,,,,,,,,,,,,,,,,,,,,,,,,,,,,,,,,,,,,,,,,,,1259.880103517,1266.1706735939988,,,,,,,,,,,,,,,,,,,,,,,,,,,,,,,,,,,,,,,,,,,,,,,,,,,,,,,,,,,,,,,,,,,,102221,1,2,0,2,0,1,2,0,40,2021_Oct_22_1519,listening_fmri,3.2.4,59.9459075704858,
6,parcelated_audio/24/24_30.ogg,,,,,,,,,0,0,0,0,0,6,6,6,0,0,0,0,,,,,,,,,0,0,0,0,0,29,29,29,,,,,,,,,,,,,,,,,,,,,,,,,,,,,,,,,,,,,,,,,,,,,,,,1266.1710256839979,1272.4268639479997,,,,,,,,,,,,,,,,,,,,,,,,,,,,,,,,,,,,,,,,,,,,,,,,,,,,,,,,,,,,,,,,,,,,102221,1,2,0,2,0,1,2,0,40,2021_Oct_22_1519,listening_fmri,3.2.4,59.9459075704858,
6,parcelated_audio/24/24_31.ogg,,,,,,,,,0,0,0,0,0,6,6,6,0,0,0,0,,,,,,,,,0,0,0,0,0,30,30,30,,,,,,,,,,,,,,,,,,,,,,,,,,,,,,,,,,,,,,,,,,,,,,,,1272.427217100998,1279.0887111060001,,,,,,,,,,,,,,,,,,,,,,,,,,,,,,,,,,,,,,,,,,,,,,,,,,,,,,,,,,,,,,,,,,,,102221,1,2,0,2,0,1,2,0,40,2021_Oct_22_1519,listening_fmri,3.2.4,59.9459075704858,
6,parcelated_audio/24/24_32.ogg,,,,,,,,,0,0,0,0,0,6,6,6,0,0,0,0,,,,,,,,,0,0,0,0,0,31,31,31,,,,,,,,,,,,,,,,,,,,,,,,,,,,,,,,,,,,,,,,,,,,,,,,1279.0890580999985,1289.8749378569992,,,,,,,,,,,,,,,,,,,,,,,,,,,,,,,,,,,,,,,,,,,,,,,,,,,,,,,,,,,,,,,,,,,,102221,1,2,0,2,0,1,2,0,40,2021_Oct_22_1519,listening_fmri,3.2.4,59.9459075704858,
6,,,,,,,,,,0,0,0,0,0,6,6,6,0,0,0,0,,,,,,,,,0,0,0,0,,,,,,,,,,,,,,,,,,,,,,,,,,,,,,,,,,,,,,,,,,,,,,,,,,,,,,,,,,,,,,,,,,,,,,,,,,,,,,,,,,,,,,,,,,,,,,,,,,,,,,,,,,,,,,,,,,,,,,,,,102221,1,2,0,2,0,1,2,0,40,2021_Oct_22_1519,listening_fmri,3.2.4,59.9459075704858,
6,,,,,,,,,,0,0,0,0,0,6,6,6,0,0,0,0,,,,,,,,,,,,,,,,,,,,,,,,,,,,,,,,,,,,,,,,,,1289.8754181059994,1295.8672365269995,1342.6523425570012,None,,,,,,,,,,,,,,,,,,,,,1348.6530283069987,None,1348.6530283069987,None,,,,,,,,,,,,,,,,,,,,,,,,,,,,,,,,,,,,,,,,,,,,,,,,,,,,,,,,,,,,,,,,102221,1,2,0,2,0,1,2,0,40,2021_Oct_22_1519,listening_fmri,3.2.4,59.9459075704858,
6,,,,,,,,,,0,0,0,0,0,6,6,6,,,,,,,,,,,,,,,,,,,,,,,,,,,,,,,,,,,,,,,,,,,,,,,,,,,,,,,,,,,,,,,,,,,,,,,,,,,,,,,,,,,,,,,,,,,,,,,,,,,,,,,,,,,,,,,,,,,,,,,,,,,,,,,,,,,,,,,,,102221,1,2,0,2,0,1,2,0,40,2021_Oct_22_1519,listening_fmri,3.2.4,59.9459075704858,
7,,,,,,,,,,0,0,0,0,0,7,7,7,0,0,0,0,0,0,0,0,,,,,,,,,,,,,,,,,0,0,0,0,,,,,,,,,,,,,,,,,,,,,,1349.6769525150012,None,1349.6769525150012,None,7,0.8451857330001076,1349.6769525150012,None,1349.6769525150012,None,,,,,,,,,,,,,,,1350.5524322769998,None,7,0.6136912200017832,1350.5524322769998,None,1350.5524322769998,None,1351.2026726799995,None,1351.2026726799995,None,1351.2026726799995,None,7,0.643456726000295,1351.2026726799995,None,1351.8692571579995,None,7,0.5168885650018638,1351.8692571579995,None,1351.8692571579995,None,1352.4604314300013,None,1352.4604314300013,None,1352.4604314300013,None,1352.4604314300013,None,1352.4604314300013,None,1352.4604314300013,None,1352.4604314300013,None,None,1352.4604314300013,None,,,,,,,,,,,,,,,,,,,,,102221,1,2,0,2,0,1,2,0,40,2021_Oct_22_1519,listening_fmri,3.2.4,59.9459075704858,
7,,,,,,,,,,0,0,0,0,0,7,7,7,0,0,0,0,0,0,0,0,,,,,,,,,,,,,,,,,,,,,,,,,,,,,,,,,,,,,,,,,,,,,,,,,,,,,,,,,,,,,,,,,,,,,,,,,,,,,,,,,,,,,,,,,,,,,,,,,,,,,,,,,,,,,1376.635475856001,None,6,1.225540446001105,1376.635475856001,None,1376.635475856001,None,1377.9019469060004,None,1377.9019469060004,None,1377.9019469060004,None,6,0.37117024200051674,1377.9019469060004,None,,,102221,1,2,0,2,0,1,2,0,40,2021_Oct_22_1519,listening_fmri,3.2.4,59.9459075704858,
7,parcelated_audio/11/11_1.ogg,,,,,,,,,0,0,0,0,0,7,7,7,0,0,0,0,,,,,,,,,0,0,0,0,0,0,0,0,,,,,,,,,,,,,,,,,,,,,,,,,,,,,,,,,,,,,,,,1378.3031317399982,None,6,0.3720020740001928,1378.3031317399982,None,1325.9553028310002,1328.9670142110008,1328.9754844819981,1340.9551793969986,,,,,,,,,,,,,,,,,,,,,,,,,,,,,,,,,,,,,,,,,,,,,,,,,,,,,,,,,,,,,,,,,,,,102221,1,2,0,2,0,1,2,0,40,2021_Oct_22_1519,listening_fmri,3.2.4,59.9459075704858,
7,parcelated_audio/11/11_2.ogg,,,,,,,,,0,0,0,0,0,7,7,7,0,0,0,0,,,,,,,,,0,0,0,0,0,1,1,1,,,,,,,,,,,,,,,,,,,,,,,,,,,,,,,,,,,,,,,,,,,,,,,,1340.9561544669996,1345.4300480220008,,,,,,,,,,,,,,,,,,,,,,,,,,,,,,,,,,,,,,,,,,,,,,,,,,,,,,,,,,,,,,,,,,,,102221,1,2,0,2,0,1,2,0,40,2021_Oct_22_1519,listening_fmri,3.2.4,59.9459075704858,
7,parcelated_audio/11/11_3.ogg,,,,,,,,,0,0,0,0,0,7,7,7,0,0,0,0,,,,,,,,,0,0,0,0,0,2,2,2,,,,,,,,,,,,,,,,,,,,,,,,,,,,,,,,,,,,,,,,,,,,,,,,1345.4304009509979,1350.4132379759976,,,,,,,,,,,,,,,,,,,,,,,,,,,,,,,,,,,,,,,,,,,,,,,,,,,,,,,,,,,,,,,,,,,,102221,1,2,0,2,0,1,2,0,40,2021_Oct_22_1519,listening_fmri,3.2.4,59.9459075704858,
7,parcelated_audio/11/11_4.ogg,,,,,,,,,0,0,0,0,0,7,7,7,0,0,0,0,,,,,,,,,0,0,0,0,0,3,3,3,,,,,,,,,,,,,,,,,,,,,,,,,,,,,,,,,,,,,,,,,,,,,,,,1350.4136020199985,1359.5076453619986,,,,,,,,,,,,,,,,,,,,,,,,,,,,,,,,,,,,,,,,,,,,,,,,,,,,,,,,,,,,,,,,,,,,102221,1,2,0,2,0,1,2,0,40,2021_Oct_22_1519,listening_fmri,3.2.4,59.9459075704858,
7,parcelated_audio/11/11_5.ogg,,,,,,,,,0,0,0,0,0,7,7,7,0,0,0,0,,,,,,,,,0,0,0,0,0,4,4,4,,,,,,,,,,,,,,,,,,,,,,,,,,,,,,,,,,,,,,,,,,,,,,,,1359.508002964998,1365.267584532001,,,,,,,,,,,,,,,,,,,,,,,,,,,,,,,,,,,,,,,,,,,,,,,,,,,,,,,,,,,,,,,,,,,,102221,1,2,0,2,0,1,2,0,40,2021_Oct_22_1519,listening_fmri,3.2.4,59.9459075704858,
7,parcelated_audio/11/11_6.ogg,,,,,,,,,0,0,0,0,0,7,7,7,0,0,0,0,,,,,,,,,0,0,0,0,0,5,5,5,,,,,,,,,,,,,,,,,,,,,,,,,,,,,,,,,,,,,,,,,,,,,,,,1365.267940654001,1369.8456102700002,,,,,,,,,,,,,,,,,,,,,,,,,,,,,,,,,,,,,,,,,,,,,,,,,,,,,,,,,,,,,,,,,,,,102221,1,2,0,2,0,1,2,0,40,2021_Oct_22_1519,listening_fmri,3.2.4,59.9459075704858,
7,parcelated_audio/11/11_7.ogg,,,,,,,,,0,0,0,0,0,7,7,7,0,0,0,0,,,,,,,,,0,0,0,0,0,6,6,6,,,,,,,,,,,,,,,,,,,,,,,,,,,,,,,,,,,,,,,,,,,,,,,,1369.8459643739989,1376.3902974369994,,,,,,,,,,,,,,,,,,,,,,,,,,,,,,,,,,,,,,,,,,,,,,,,,,,,,,,,,,,,,,,,,,,,102221,1,2,0,2,0,1,2,0,40,2021_Oct_22_1519,listening_fmri,3.2.4,59.9459075704858,
7,parcelated_audio/11/11_8.ogg,,,,,,,,,0,0,0,0,0,7,7,7,0,0,0,0,,,,,,,,,0,0,0,0,0,7,7,7,,,,,,,,,,,,,,,,,,,,,,,,,,,,,,,,,,,,,,,,,,,,,,,,1376.390675925999,1382.207427117999,,,,,,,,,,,,,,,,,,,,,,,,,,,,,,,,,,,,,,,,,,,,,,,,,,,,,,,,,,,,,,,,,,,,102221,1,2,0,2,0,1,2,0,40,2021_Oct_22_1519,listening_fmri,3.2.4,59.9459075704858,
7,parcelated_audio/11/11_9.ogg,,,,,,,,,0,0,0,0,0,7,7,7,0,0,0,0,,,,,,,,,0,0,0,0,0,8,8,8,,,,,,,,,,,,,,,,,,,,,,,,,,,,,,,,,,,,,,,,,,,,,,,,1382.208374938,1386.5036841170004,,,,,,,,,,,,,,,,,,,,,,,,,,,,,,,,,,,,,,,,,,,,,,,,,,,,,,,,,,,,,,,,,,,,102221,1,2,0,2,0,1,2,0,40,2021_Oct_22_1519,listening_fmri,3.2.4,59.9459075704858,
7,parcelated_audio/11/11_10.ogg,,,,,,,,,0,0,0,0,0,7,7,7,0,0,0,0,,,,,,,,,0,0,0,0,0,9,9,9,,,,,,,,,,,,,,,,,,,,,,,,,,,,,,,,,,,,,,,,,,,,,,,,1386.5040485270001,1391.083450711998,,,,,,,,,,,,,,,,,,,,,,,,,,,,,,,,,,,,,,,,,,,,,,,,,,,,,,,,,,,,,,,,,,,,102221,1,2,0,2,0,1,2,0,40,2021_Oct_22_1519,listening_fmri,3.2.4,59.9459075704858,
7,parcelated_audio/11/11_11.ogg,,,,,,,,,0,0,0,0,0,7,7,7,0,0,0,0,,,,,,,,,0,0,0,0,0,10,10,10,,,,,,,,,,,,,,,,,,,,,,,,,,,,,,,,,,,,,,,,,,,,,,,,1391.0838119990003,1394.2556621279982,,,,,,,,,,,,,,,,,,,,,,,,,,,,,,,,,,,,,,,,,,,,,,,,,,,,,,,,,,,,,,,,,,,,102221,1,2,0,2,0,1,2,0,40,2021_Oct_22_1519,listening_fmri,3.2.4,59.9459075704858,
7,parcelated_audio/11/11_12.ogg,,,,,,,,,0,0,0,0,0,7,7,7,0,0,0,0,,,,,,,,,0,0,0,0,0,11,11,11,,,,,,,,,,,,,,,,,,,,,,,,,,,,,,,,,,,,,,,,,,,,,,,,1394.2566244769987,1397.085761424998,,,,,,,,,,,,,,,,,,,,,,,,,,,,,,,,,,,,,,,,,,,,,,,,,,,,,,,,,,,,,,,,,,,,102221,1,2,0,2,0,1,2,0,40,2021_Oct_22_1519,listening_fmri,3.2.4,59.9459075704858,
7,parcelated_audio/11/11_13.ogg,,,,,,,,,0,0,0,0,0,7,7,7,0,0,0,0,,,,,,,,,0,0,0,0,0,12,12,12,,,,,,,,,,,,,,,,,,,,,,,,,,,,,,,,,,,,,,,,,,,,,,,,1397.0861096849985,1400.3997593530003,,,,,,,,,,,,,,,,,,,,,,,,,,,,,,,,,,,,,,,,,,,,,,,,,,,,,,,,,,,,,,,,,,,,102221,1,2,0,2,0,1,2,0,40,2021_Oct_22_1519,listening_fmri,3.2.4,59.9459075704858,
7,parcelated_audio/11/11_14.ogg,,,,,,,,,0,0,0,0,0,7,7,7,0,0,0,0,,,,,,,,,0,0,0,0,0,13,13,13,,,,,,,,,,,,,,,,,,,,,,,,,,,,,,,,,,,,,,,,,,,,,,,,1400.4000892479999,1403.0974446910004,,,,,,,,,,,,,,,,,,,,,,,,,,,,,,,,,,,,,,,,,,,,,,,,,,,,,,,,,,,,,,,,,,,,102221,1,2,0,2,0,1,2,0,40,2021_Oct_22_1519,listening_fmri,3.2.4,59.9459075704858,
7,parcelated_audio/11/11_15.ogg,,,,,,,,,0,0,0,0,0,7,7,7,0,0,0,0,,,,,,,,,0,0,0,0,0,14,14,14,,,,,,,,,,,,,,,,,,,,,,,,,,,,,,,,,,,,,,,,,,,,,,,,1403.0978900769987,1414.272896743998,,,,,,,,,,,,,,,,,,,,,,,,,,,,,,,,,,,,,,,,,,,,,,,,,,,,,,,,,,,,,,,,,,,,102221,1,2,0,2,0,1,2,0,40,2021_Oct_22_1519,listening_fmri,3.2.4,59.9459075704858,
7,parcelated_audio/11/11_16.ogg,,,,,,,,,0,0,0,0,0,7,7,7,0,0,0,0,,,,,,,,,0,0,0,0,0,15,15,15,,,,,,,,,,,,,,,,,,,,,,,,,,,,,,,,,,,,,,,,,,,,,,,,1414.2734034940004,1417.2676281219974,,,,,,,,,,,,,,,,,,,,,,,,,,,,,,,,,,,,,,,,,,,,,,,,,,,,,,,,,,,,,,,,,,,,102221,1,2,0,2,0,1,2,0,40,2021_Oct_22_1519,listening_fmri,3.2.4,59.9459075704858,
7,parcelated_audio/11/11_17.ogg,,,,,,,,,0,0,0,0,0,7,7,7,0,0,0,0,,,,,,,,,0,0,0,0,0,16,16,16,,,,,,,,,,,,,,,,,,,,,,,,,,,,,,,,,,,,,,,,,,,,,,,,1417.267902304,1424.2512134809986,,,,,,,,,,,,,,,,,,,,,,,,,,,,,,,,,,,,,,,,,,,,,,,,,,,,,,,,,,,,,,,,,,,,102221,1,2,0,2,0,1,2,0,40,2021_Oct_22_1519,listening_fmri,3.2.4,59.9459075704858,
7,parcelated_audio/11/11_18.ogg,,,,,,,,,0,0,0,0,0,7,7,7,0,0,0,0,,,,,,,,,0,0,0,0,0,17,17,17,,,,,,,,,,,,,,,,,,,,,,,,,,,,,,,,,,,,,,,,,,,,,,,,1424.2515882049993,1431.7287124879986,,,,,,,,,,,,,,,,,,,,,,,,,,,,,,,,,,,,,,,,,,,,,,,,,,,,,,,,,,,,,,,,,,,,102221,1,2,0,2,0,1,2,0,40,2021_Oct_22_1519,listening_fmri,3.2.4,59.9459075704858,
7,parcelated_audio/11/11_19.ogg,,,,,,,,,0,0,0,0,0,7,7,7,0,0,0,0,,,,,,,,,0,0,0,0,0,18,18,18,,,,,,,,,,,,,,,,,,,,,,,,,,,,,,,,,,,,,,,,,,,,,,,,1431.7294501100005,1436.4033323019976,,,,,,,,,,,,,,,,,,,,,,,,,,,,,,,,,,,,,,,,,,,,,,,,,,,,,,,,,,,,,,,,,,,,102221,1,2,0,2,0,1,2,0,40,2021_Oct_22_1519,listening_fmri,3.2.4,59.9459075704858,
7,parcelated_audio/11/11_20.ogg,,,,,,,,,0,0,0,0,0,7,7,7,0,0,0,0,,,,,,,,,0,0,0,0,0,19,19,19,,,,,,,,,,,,,,,,,,,,,,,,,,,,,,,,,,,,,,,,,,,,,,,,1436.4040988870001,1441.317819846001,,,,,,,,,,,,,,,,,,,,,,,,,,,,,,,,,,,,,,,,,,,,,,,,,,,,,,,,,,,,,,,,,,,,102221,1,2,0,2,0,1,2,0,40,2021_Oct_22_1519,listening_fmri,3.2.4,59.9459075704858,
7,parcelated_audio/11/11_21.ogg,,,,,,,,,0,0,0,0,0,7,7,7,0,0,0,0,,,,,,,,,0,0,0,0,0,20,20,20,,,,,,,,,,,,,,,,,,,,,,,,,,,,,,,,,,,,,,,,,,,,,,,,1441.318074081999,1450.0883034479994,,,,,,,,,,,,,,,,,,,,,,,,,,,,,,,,,,,,,,,,,,,,,,,,,,,,,,,,,,,,,,,,,,,,102221,1,2,0,2,0,1,2,0,40,2021_Oct_22_1519,listening_fmri,3.2.4,59.9459075704858,
7,parcelated_audio/11/11_22.ogg,,,,,,,,,0,0,0,0,0,7,7,7,0,0,0,0,,,,,,,,,0,0,0,0,0,21,21,21,,,,,,,,,,,,,,,,,,,,,,,,,,,,,,,,,,,,,,,,,,,,,,,,1450.0890993709982,1453.3844413039988,,,,,,,,,,,,,,,,,,,,,,,,,,,,,,,,,,,,,,,,,,,,,,,,,,,,,,,,,,,,,,,,,,,,102221,1,2,0,2,0,1,2,0,40,2021_Oct_22_1519,listening_fmri,3.2.4,59.9459075704858,
7,parcelated_audio/11/11_23.ogg,,,,,,,,,0,0,0,0,0,7,7,7,0,0,0,0,,,,,,,,,0,0,0,0,0,22,22,22,,,,,,,,,,,,,,,,,,,,,,,,,,,,,,,,,,,,,,,,,,,,,,,,1453.384730763999,1458.1606849710006,,,,,,,,,,,,,,,,,,,,,,,,,,,,,,,,,,,,,,,,,,,,,,,,,,,,,,,,,,,,,,,,,,,,102221,1,2,0,2,0,1,2,0,40,2021_Oct_22_1519,listening_fmri,3.2.4,59.9459075704858,
7,parcelated_audio/11/11_24.ogg,,,,,,,,,0,0,0,0,0,7,7,7,0,0,0,0,,,,,,,,,0,0,0,0,0,23,23,23,,,,,,,,,,,,,,,,,,,,,,,,,,,,,,,,,,,,,,,,,,,,,,,,1458.1614495930007,1461.7902752970003,,,,,,,,,,,,,,,,,,,,,,,,,,,,,,,,,,,,,,,,,,,,,,,,,,,,,,,,,,,,,,,,,,,,102221,1,2,0,2,0,1,2,0,40,2021_Oct_22_1519,listening_fmri,3.2.4,59.9459075704858,
7,parcelated_audio/11/11_25.ogg,,,,,,,,,0,0,0,0,0,7,7,7,0,0,0,0,,,,,,,,,0,0,0,0,0,24,24,24,,,,,,,,,,,,,,,,,,,,,,,,,,,,,,,,,,,,,,,,,,,,,,,,1461.7906705280002,1466.5232552399975,,,,,,,,,,,,,,,,,,,,,,,,,,,,,,,,,,,,,,,,,,,,,,,,,,,,,,,,,,,,,,,,,,,,102221,1,2,0,2,0,1,2,0,40,2021_Oct_22_1519,listening_fmri,3.2.4,59.9459075704858,
7,parcelated_audio/11/11_26.ogg,,,,,,,,,0,0,0,0,0,7,7,7,0,0,0,0,,,,,,,,,0,0,0,0,0,25,25,25,,,,,,,,,,,,,,,,,,,,,,,,,,,,,,,,,,,,,,,,,,,,,,,,1466.5235193909975,1471.511084933998,,,,,,,,,,,,,,,,,,,,,,,,,,,,,,,,,,,,,,,,,,,,,,,,,,,,,,,,,,,,,,,,,,,,102221,1,2,0,2,0,1,2,0,40,2021_Oct_22_1519,listening_fmri,3.2.4,59.9459075704858,
7,parcelated_audio/11/11_27.ogg,,,,,,,,,0,0,0,0,0,7,7,7,0,0,0,0,,,,,,,,,0,0,0,0,0,26,26,26,,,,,,,,,,,,,,,,,,,,,,,,,,,,,,,,,,,,,,,,,,,,,,,,1471.5120358669992,1475.4781239900003,,,,,,,,,,,,,,,,,,,,,,,,,,,,,,,,,,,,,,,,,,,,,,,,,,,,,,,,,,,,,,,,,,,,102221,1,2,0,2,0,1,2,0,40,2021_Oct_22_1519,listening_fmri,3.2.4,59.9459075704858,
7,parcelated_audio/11/11_28.ogg,,,,,,,,,0,0,0,0,0,7,7,7,0,0,0,0,,,,,,,,,0,0,0,0,0,27,27,27,,,,,,,,,,,,,,,,,,,,,,,,,,,,,,,,,,,,,,,,,,,,,,,,1475.4807611819997,1478.8963873829998,,,,,,,,,,,,,,,,,,,,,,,,,,,,,,,,,,,,,,,,,,,,,,,,,,,,,,,,,,,,,,,,,,,,102221,1,2,0,2,0,1,2,0,40,2021_Oct_22_1519,listening_fmri,3.2.4,59.9459075704858,
7,parcelated_audio/11/11_29.ogg,,,,,,,,,0,0,0,0,0,7,7,7,0,0,0,0,,,,,,,,,0,0,0,0,0,28,28,28,,,,,,,,,,,,,,,,,,,,,,,,,,,,,,,,,,,,,,,,,,,,,,,,1478.8967274059978,1483.0728820799995,,,,,,,,,,,,,,,,,,,,,,,,,,,,,,,,,,,,,,,,,,,,,,,,,,,,,,,,,,,,,,,,,,,,102221,1,2,0,2,0,1,2,0,40,2021_Oct_22_1519,listening_fmri,3.2.4,59.9459075704858,
7,parcelated_audio/11/11_30.ogg,,,,,,,,,0,0,0,0,0,7,7,7,0,0,0,0,,,,,,,,,0,0,0,0,0,29,29,29,,,,,,,,,,,,,,,,,,,,,,,,,,,,,,,,,,,,,,,,,,,,,,,,1483.0732241019978,1487.5983573880003,,,,,,,,,,,,,,,,,,,,,,,,,,,,,,,,,,,,,,,,,,,,,,,,,,,,,,,,,,,,,,,,,,,,102221,1,2,0,2,0,1,2,0,40,2021_Oct_22_1519,listening_fmri,3.2.4,59.9459075704858,
7,parcelated_audio/11/11_31.ogg,,,,,,,,,0,0,0,0,0,7,7,7,0,0,0,0,,,,,,,,,0,0,0,0,0,30,30,30,,,,,,,,,,,,,,,,,,,,,,,,,,,,,,,,,,,,,,,,,,,,,,,,1487.5987229599996,1492.4438270779974,,,,,,,,,,,,,,,,,,,,,,,,,,,,,,,,,,,,,,,,,,,,,,,,,,,,,,,,,,,,,,,,,,,,102221,1,2,0,2,0,1,2,0,40,2021_Oct_22_1519,listening_fmri,3.2.4,59.9459075704858,
7,parcelated_audio/11/11_32.ogg,,,,,,,,,0,0,0,0,0,7,7,7,0,0,0,0,,,,,,,,,0,0,0,0,0,31,31,31,,,,,,,,,,,,,,,,,,,,,,,,,,,,,,,,,,,,,,,,,,,,,,,,1492.4441802889996,1496.5126834959992,,,,,,,,,,,,,,,,,,,,,,,,,,,,,,,,,,,,,,,,,,,,,,,,,,,,,,,,,,,,,,,,,,,,102221,1,2,0,2,0,1,2,0,40,2021_Oct_22_1519,listening_fmri,3.2.4,59.9459075704858,
7,parcelated_audio/11/11_33.ogg,,,,,,,,,0,0,0,0,0,7,7,7,0,0,0,0,,,,,,,,,0,0,0,0,0,32,32,32,,,,,,,,,,,,,,,,,,,,,,,,,,,,,,,,,,,,,,,,,,,,,,,,1496.513036608998,1499.0555888950003,,,,,,,,,,,,,,,,,,,,,,,,,,,,,,,,,,,,,,,,,,,,,,,,,,,,,,,,,,,,,,,,,,,,102221,1,2,0,2,0,1,2,0,40,2021_Oct_22_1519,listening_fmri,3.2.4,59.9459075704858,
7,parcelated_audio/11/11_34.ogg,,,,,,,,,0,0,0,0,0,7,7,7,0,0,0,0,,,,,,,,,0,0,0,0,0,33,33,33,,,,,,,,,,,,,,,,,,,,,,,,,,,,,,,,,,,,,,,,,,,,,,,,1499.055923164,1502.3689270899995,,,,,,,,,,,,,,,,,,,,,,,,,,,,,,,,,,,,,,,,,,,,,,,,,,,,,,,,,,,,,,,,,,,,102221,1,2,0,2,0,1,2,0,40,2021_Oct_22_1519,listening_fmri,3.2.4,59.9459075704858,
7,parcelated_audio/11/11_35.ogg,,,,,,,,,0,0,0,0,0,7,7,7,0,0,0,0,,,,,,,,,0,0,0,0,0,34,34,34,,,,,,,,,,,,,,,,,,,,,,,,,,,,,,,,,,,,,,,,,,,,,,,,1502.369277343998,1506.7370377890002,,,,,,,,,,,,,,,,,,,,,,,,,,,,,,,,,,,,,,,,,,,,,,,,,,,,,,,,,,,,,,,,,,,,102221,1,2,0,2,0,1,2,0,40,2021_Oct_22_1519,listening_fmri,3.2.4,59.9459075704858,
7,parcelated_audio/11/11_36.ogg,,,,,,,,,0,0,0,0,0,7,7,7,0,0,0,0,,,,,,,,,0,0,0,0,0,35,35,35,,,,,,,,,,,,,,,,,,,,,,,,,,,,,,,,,,,,,,,,,,,,,,,,1506.7373875039993,1515.7816490789992,,,,,,,,,,,,,,,,,,,,,,,,,,,,,,,,,,,,,,,,,,,,,,,,,,,,,,,,,,,,,,,,,,,,102221,1,2,0,2,0,1,2,0,40,2021_Oct_22_1519,listening_fmri,3.2.4,59.9459075704858,
7,parcelated_audio/11/11_37.ogg,,,,,,,,,0,0,0,0,0,7,7,7,0,0,0,0,,,,,,,,,0,0,0,0,0,36,36,36,,,,,,,,,,,,,,,,,,,,,,,,,,,,,,,,,,,,,,,,,,,,,,,,1515.7820139279975,1519.955483673999,,,,,,,,,,,,,,,,,,,,,,,,,,,,,,,,,,,,,,,,,,,,,,,,,,,,,,,,,,,,,,,,,,,,102221,1,2,0,2,0,1,2,0,40,2021_Oct_22_1519,listening_fmri,3.2.4,59.9459075704858,
7,parcelated_audio/11/11_38.ogg,,,,,,,,,0,0,0,0,0,7,7,7,0,0,0,0,,,,,,,,,0,0,0,0,0,37,37,37,,,,,,,,,,,,,,,,,,,,,,,,,,,,,,,,,,,,,,,,,,,,,,,,1519.9559270499994,1526.1068976469978,,,,,,,,,,,,,,,,,,,,,,,,,,,,,,,,,,,,,,,,,,,,,,,,,,,,,,,,,,,,,,,,,,,,102221,1,2,0,2,0,1,2,0,40,2021_Oct_22_1519,listening_fmri,3.2.4,59.9459075704858,
7,parcelated_audio/11/11_39.ogg,,,,,,,,,0,0,0,0,0,7,7,7,0,0,0,0,,,,,,,,,0,0,0,0,0,38,38,38,,,,,,,,,,,,,,,,,,,,,,,,,,,,,,,,,,,,,,,,,,,,,,,,1526.10724854,1531.2965907420003,,,,,,,,,,,,,,,,,,,,,,,,,,,,,,,,,,,,,,,,,,,,,,,,,,,,,,,,,,,,,,,,,,,,102221,1,2,0,2,0,1,2,0,40,2021_Oct_22_1519,listening_fmri,3.2.4,59.9459075704858,
7,parcelated_audio/11/11_40.ogg,,,,,,,,,0,0,0,0,0,7,7,7,0,0,0,0,,,,,,,,,0,0,0,0,0,39,39,39,,,,,,,,,,,,,,,,,,,,,,,,,,,,,,,,,,,,,,,,,,,,,,,,1531.2969434829974,1536.953502755001,,,,,,,,,,,,,,,,,,,,,,,,,,,,,,,,,,,,,,,,,,,,,,,,,,,,,,,,,,,,,,,,,,,,102221,1,2,0,2,0,1,2,0,40,2021_Oct_22_1519,listening_fmri,3.2.4,59.9459075704858,
7,parcelated_audio/11/11_41.ogg,,,,,,,,,0,0,0,0,0,7,7,7,0,0,0,0,,,,,,,,,0,0,0,0,0,40,40,40,,,,,,,,,,,,,,,,,,,,,,,,,,,,,,,,,,,,,,,,,,,,,,,,1536.9538209780003,1543.1004752539993,,,,,,,,,,,,,,,,,,,,,,,,,,,,,,,,,,,,,,,,,,,,,,,,,,,,,,,,,,,,,,,,,,,,102221,1,2,0,2,0,1,2,0,40,2021_Oct_22_1519,listening_fmri,3.2.4,59.9459075704858,
7,,,,,,,,,,0,0,0,0,0,7,7,7,0,0,0,0,,,,,,,,,0,0,0,0,,,,,,,,,,,,,,,,,,,,,,,,,,,,,,,,,,,,,,,,,,,,,,,,,,,,,,,,,,,,,,,,,,,,,,,,,,,,,,,,,,,,,,,,,,,,,,,,,,,,,,,,,,,,,,,,,,,,,,,,,102221,1,2,0,2,0,1,2,0,40,2021_Oct_22_1519,listening_fmri,3.2.4,59.9459075704858,
7,,,,,,,,,,0,0,0,0,0,7,7,7,0,0,0,0,,,,,,,,,,,,,,,,,,,,,,,,,,,,,,,,,,,,,,,,,,1543.1009184030008,1549.0886077299983,1595.8745762850012,None,,,,,,,,,,,,,,,,,,,,,1601.869955328999,None,1601.869955328999,None,,,,,,,,,,,,,,,,,,,,,,,,,,,,,,,,,,,,,,,,,,,,,,,,,,,,,,,,,,,,,,,,102221,1,2,0,2,0,1,2,0,40,2021_Oct_22_1519,listening_fmri,3.2.4,59.9459075704858,
7,,,,,,,,,,0,0,0,0,0,7,7,7,,,,,,,,,,,,,,,,,,,,,,,,,,,,,,,,,,,,,,,,,,,,,,,,,,,,,,,,,,,,,,,,,,,,,,,,,,,,,,,,,,,,,,,,,,,,,,,,,,,,,,,,,,,,,,,,,,,,,,,,,,,,,,,,,,,,,,,,,102221,1,2,0,2,0,1,2,0,40,2021_Oct_22_1519,listening_fmri,3.2.4,59.9459075704858,
,,,,,,,,,,0,0,0,0,,,,,,,,,,,,,,,,,,,,,,,,,,,,,,,,,,,,,,,,,,,,,,,,,,,,,,,,,,,,,,,,,,,,,,,,,,,,,,,,,,,,,,,,,,,,,,,,,,,,,,,,,,,,,,,,,,,,,,,,,,,,,,,,,,,,,,,,,,,,,102221,1,2,0,2,0,1,2,0,40,2021_Oct_22_1519,listening_fmri,3.2.4,59.9459075704858,
,,,,,,,,,,,,,,,,,,,,,,,,,,,,,,,,,,,,,,,,,,,,,,0,0,0,0,,,,,,,,,,,,,,,,,,,,,,,,,,,,,,,,,,,,,,,,,,,,,,,,,,,,,,,,,,,,,,,,,,,,,,,,,,,,,,,,,,,,,,,,,,,,,,,,,,,,,,,1602.9030862569998,None,102221,1,2,0,2,0,1,2,0,40,2021_Oct_22_1519,listening_fmri,3.2.4,59.9459075704858,
,,,,,,,,,,,,,,,,,,,,,,,,,,,,,,,,,,,,,,,,,,,,,,1,0,1,0,,,,,,,,,,,,,,,,,,,,,,,,,,,,,,,,,,,,,,,,,,,,,,,,,,,,,,,,,,,,,,,,,,,,,,,,,,,,,,,,,,,,,,,,,,,,,,,,,,,,,,,1603.3861354539986,None,102221,1,2,0,2,0,1,2,0,40,2021_Oct_22_1519,listening_fmri,3.2.4,59.9459075704858,
,,,,,,,,,,,,,,,,,,,,,,,,,,,,,,,,,,,,,,,,,,,,,,2,0,2,0,,,,,,,,,,,,,,,,,,,,,,,,,,,,,,,,,,,,,,,,,,,,,,,,,,,,,,,,,,,,,,,,,,,,,,,,,,,,,,,,,,,,,,,,,,,,,,,,,,,,,,,1603.886898705001,None,102221,1,2,0,2,0,1,2,0,40,2021_Oct_22_1519,listening_fmri,3.2.4,59.9459075704858,
,,,,,,,,,,,,,,,,,,,,,,,,,,,,,,,,,,,,,,,,,,,,,,3,0,3,0,,,,,,,,,,,,,,,,,,,,,,,,,,,,,,,,,,,,,,,,,,,,,,,,,,,,,,,,,,,,,,,,,,,,,,,,,,,,,,,,,,,,,,,,,,,,,,,,,,,,,,,1604.3867970540014,None,102221,1,2,0,2,0,1,2,0,40,2021_Oct_22_1519,listening_fmri,3.2.4,59.9459075704858,
,,,,,,,,,,,,,,,,,,,,,,,,,,,,,,,,,,,,,,,,,,,,,,4,0,4,0,,,,,,,,,,,,,,,,,,,,,,,,,,,,,,,,,,,,,,,,,,,,,,,,,,,,,,,,,,,,,,,,,,,,,,,,,,,,,,,,,,,,,,,,,,,,,,,,,,,,,,,1604.8868824079982,None,102221,1,2,0,2,0,1,2,0,40,2021_Oct_22_1519,listening_fmri,3.2.4,59.9459075704858,
