instructions,count,audio,trials_14.thisRepN,trials_14.thisTrialN,trials_14.thisN,trials_14.thisIndex,trials_13.thisRepN,trials_13.thisTrialN,trials_13.thisN,trials_13.thisIndex,trials_3.thisRepN,trials_3.thisTrialN,trials_3.thisN,trials_3.thisIndex,Block1.thisRepN,Block1.thisTrialN,Block1.thisN,Block1.thisIndex,trials_5.thisRepN,trials_5.thisTrialN,trials_5.thisN,trials_5.thisIndex,trials.thisRepN,trials.thisTrialN,trials.thisN,trials.thisIndex,trials_2.thisRepN,trials_2.thisTrialN,trials_2.thisN,trials_2.thisIndex,trials_22.thisRepN,trials_22.thisTrialN,trials_22.thisN,trials_22.thisIndex,trials_16.thisRepN,trials_16.thisTrialN,trials_16.thisN,trials_16.thisIndex,trials_23.thisRepN,trials_23.thisTrialN,trials_23.thisN,trials_23.thisIndex,story_list_block1,action_list_block1,key_resp_5.keys,key_resp_5.rt,key_resp_5.started,key_resp_5.stopped,text_87.started,text_87.stopped,text_88.started,text_88.stopped,key_resp_31.keys,key_resp_31.rt,key_resp_31.started,key_resp_31.stopped,text_89.started,text_89.stopped,image_27.started,image_27.stopped,text_97.started,text_97.stopped,image_24.started,image_24.stopped,key_resp_21.keys,key_resp_21.rt,key_resp_21.started,key_resp_21.stopped,text_78.started,text_78.stopped,text_96.started,text_96.stopped,image_28.started,image_28.stopped,key_resp_36.keys,key_resp_36.rt,key_resp_36.started,key_resp_36.stopped,text_94.started,text_94.stopped,text_95.started,text_95.stopped,text_90.started,text_90.stopped,key_resp_32.keys,key_resp_32.rt,key_resp_32.started,key_resp_32.stopped,text_91.started,text_91.stopped,key_resp_33.keys,key_resp_33.rt,key_resp_33.started,key_resp_33.stopped,text_92.started,text_92.stopped,key_resp_34.keys,key_resp_34.rt,key_resp_34.started,key_resp_34.stopped,text_93.started,text_93.stopped,key_resp_35.keys,key_resp_35.rt,key_resp_35.started,key_resp_35.stopped,text_98.started,text_98.stopped,text_99.started,text_99.stopped,key_resp_37.keys,key_resp_37.rt,key_resp_37.started,key_resp_37.stopped,textTrigger.started,textTrigger.stopped,getTrigger.keys,getTrigger.rt,getTrigger.started,getTrigger.stopped,triggerTime,text_76.started,text_76.stopped,text_77.started,text_77.stopped,startWait,endWait,image_23.started,image_23.stopped,text_38.started,text_38.stopped,key_resp_8.keys,key_resp_8.rt,key_resp_8.started,key_resp_8.stopped,text_39.started,text_39.stopped,text.started,text.stopped,text_50.started,text_50.stopped,key_resp_14.keys,key_resp_14.rt,key_resp_14.started,key_resp_14.stopped,storyImage_StartTime,storyImage_EndTime,clip_StartTime,clip_EndTime,text_6.started,text_6.stopped,text_52.started,text_52.stopped,participant,sA,sB,lA,lB,block_struct,play_stories,block,behavioral,random_seed,date,expName,psychopyVersion,frameRate,
Welcome to the story listening part of the experiment. ,,,0,0,0,0,0,0,0,0,,,,,,,,,,,,,,,,,,,,,,,,,,,,,,,,,[32 34 41 43 14 12 23 21],[4 2 1 3 3 1 2 4],7,3.1197048580002047,12.387838953000028,None,12.387838953000028,None,12.387838953000028,None,,,,,,,,,,,,,,,,,,,,,,,,,,,,,,,,,,,,,,,,,,,,,,,,,,,,,,,,,,,,,,,,,,,,,,,,,,,,,,,,,,,,,,,,,,,,,,,,,,,,,,092021,0,3,2,3,0,1,1,0,18,2021_Sep_20_0934,listening_fmri,3.2.4,60.42201770348166,
"As a reminder, you will listen to 12 short stories.",,,0,0,0,0,0,1,1,1,,,,,,,,,,,,,,,,,,,,,,,,,,,,,,,,,,,7,6.03962308600012,15.536905595999997,None,15.536905595999997,None,15.536905595999997,None,,,,,,,,,,,,,,,,,,,,,,,,,,,,,,,,,,,,,,,,,,,,,,,,,,,,,,,,,,,,,,,,,,,,,,,,,,,,,,,,,,,,,,,,,,,,,,,,,,,,,,092021,0,3,2,3,0,1,1,0,18,2021_Sep_20_0934,listening_fmri,3.2.4,60.42201770348166,
These stories will be divided into 2 blocks of 6 stories.,,,0,0,0,0,0,2,2,2,,,,,,,,,,,,,,,,,,,,,,,,,,,,,,,,,,,7,3.7845082639998964,21.621007914000074,None,21.621007914000074,None,21.621007914000074,None,,,,,,,,,,,,,,,,,,,,,,,,,,,,,,,,,,,,,,,,,,,,,,,,,,,,,,,,,,,,,,,,,,,,,,,,,,,,,,,,,,,,,,,,,,,,,,,,,,,,,,092021,0,3,2,3,0,1,1,0,18,2021_Sep_20_0934,listening_fmri,3.2.4,60.42201770348166,
"Before some of the stories, we will ask you to take on the perspective of a job. ",,,0,0,0,0,0,3,3,3,,,,,,,,,,,,,,,,,,,,,,,,,,,,,,,,,,,7,5.142251822999924,25.426345991000062,None,25.426345991000062,None,25.426345991000062,None,,,,,,,,,,,,,,,,,,,,,,,,,,,,,,,,,,,,,,,,,,,,,,,,,,,,,,,,,,,,,,,,,,,,,,,,,,,,,,,,,,,,,,,,,,,,,,,,,,,,,,092021,0,3,2,3,0,1,1,0,18,2021_Sep_20_0934,listening_fmri,3.2.4,60.42201770348166,
Please “simulate” this job while you listen to the story that follows.,,,0,0,0,0,0,4,4,4,,,,,,,,,,,,,,,,,,,,,,,,,,,,,,,,,,,7,3.415779480000083,30.593799481000133,None,30.593799481000133,None,30.593799481000133,None,,,,,,,,,,,,,,,,,,,,,,,,,,,,,,,,,,,,,,,,,,,,,,,,,,,,,,,,,,,,,,,,,,,,,,,,,,,,,,,,,,,,,,,,,,,,,,,,,,,,,,092021,0,3,2,3,0,1,1,0,18,2021_Sep_20_0934,listening_fmri,3.2.4,60.42201770348166,
"Before you begin, we will go over how to use the button box:",,,0,0,0,0,0,5,5,5,,,,,,,,,,,,,,,,,,,,,,,,,,,,,,,,,,,2,4.428942515000017,34.03775104900001,None,34.03775104900001,None,34.03775104900001,None,,,,,,,,,,,,,,,,,,,,,,,,,,,,,,,,,,,,,,,,,,,,,,,,,,,,,,,,,,,,,,,,,,,,,,,,,,,,,,,,,,,,,,,,,,,,,,,,,,,,,,092021,0,3,2,3,0,1,1,0,18,2021_Sep_20_0934,listening_fmri,3.2.4,60.42201770348166,
"In this experiment, you'll use the first three fingers on each hand to do the quizzes and advance through the experiment. ",,,0,0,0,0,0,6,6,6,,,,,,,,,,,,,,,,,,,,,,,,,,,,,,,,,,,7,4.826545446999944,38.49324960600006,None,38.49324960600006,None,38.49324960600006,None,,,,,,,,,,,,,,,,,,,,,,,,,,,,,,,,,,,,,,,,,,,,,,,,,,,,,,,,,,,,,,,,,,,,,,,,,,,,,,,,,,,,,,,,,,,,,,,,,,,,,,092021,0,3,2,3,0,1,1,0,18,2021_Sep_20_0934,listening_fmri,3.2.4,60.42201770348166,
,,,0,0,0,0,,,,,,,,,,,,,,,,,,,,,,,,,,,,,,,,,,,,,,,,,,,,,,,7,8.07146739399991,43.337108280000166,None,43.337108280000166,None,43.337108280000166,None,43.337108280000166,None,51.43737952100014,None,1,5.928323173000081,51.43737952100014,None,51.43737952100014,None,51.43737952100014,None,51.43737952100014,None,3,4.13675280099983,57.39296926099996,None,57.39296926099996,None,57.39296926099996,None,61.56046796600003,None,1,1.8572323070000039,61.56046796600003,None,63.44365475100017,None,8,1.03005572699999,63.44365475100017,None,64.49365637699998,None,6,0.8740639419997933,64.49365637699998,None,65.39363399400008,None,2,1.2009201240000493,65.39363399400008,None,66.62652735400002,None,66.62652735400002,None,7,2.375132089999852,66.62652735400002,None,,,,,,,,,,,,,,,,,,,,,,,,,,,,,,,,,,,,,,,,092021,0,3,2,3,0,1,1,0,18,2021_Sep_20_0934,listening_fmri,3.2.4,60.42201770348166,
,0,parcelated_audio/32/32_1.ogg,,,,,,,,,0,0,0,0,0,0,0,0,0,0,0,0,,,,,,,,,0,0,0,0,0,0,0,0,,,,,,,,,,,,,,,,,,,,,,,,,,,,,,,,,,,,,,,,,,,,,,,,,,,,,,,,,,,,,,,,,,,,,,,,,,,,,69.02676151800006,None,equal,121.00693497500015,69.02676151800006,None,177.673308399,69.02676151800006,None,69.02676151800006,None,0.0003513920000841608,5.991303106000032,190.0441812480001,None,196.05240288799996,None,8,1.8222160180000628,196.05240288799996,None,196.05240288799996,None,196.05240288799996,None,197.89435469199998,None,6,6.0312257670000236,197.89435469199998,None,13.906076350000149,16.90765289900014,16.913971533999984,28.29364032400008,,,,,092021,0,3,2,3,0,1,1,0,18,2021_Sep_20_0934,listening_fmri,3.2.4,60.42201770348166,
,0,parcelated_audio/32/32_2.ogg,,,,,,,,,0,0,0,0,0,0,0,0,0,0,0,0,,,,,,,,,0,0,0,0,0,1,1,1,,,,,,,,,,,,,,,,,,,,,,,,,,,,,,,,,,,,,,,,,,,,,,,,,,,,,,,,,,,,,,,,,,,,,,,,,,,,,,,,,,,,,,,,,,,,,,,,,,,,,,,,,,,,,,28.293996835000144,36.616321176000156,,,,,092021,0,3,2,3,0,1,1,0,18,2021_Sep_20_0934,listening_fmri,3.2.4,60.42201770348166,
,0,parcelated_audio/32/32_3.ogg,,,,,,,,,0,0,0,0,0,0,0,0,0,0,0,0,,,,,,,,,0,0,0,0,0,2,2,2,,,,,,,,,,,,,,,,,,,,,,,,,,,,,,,,,,,,,,,,,,,,,,,,,,,,,,,,,,,,,,,,,,,,,,,,,,,,,,,,,,,,,,,,,,,,,,,,,,,,,,,,,,,,,,36.61670250100019,42.20237371799999,,,,,092021,0,3,2,3,0,1,1,0,18,2021_Sep_20_0934,listening_fmri,3.2.4,60.42201770348166,
,0,parcelated_audio/32/32_4.ogg,,,,,,,,,0,0,0,0,0,0,0,0,0,0,0,0,,,,,,,,,0,0,0,0,0,3,3,3,,,,,,,,,,,,,,,,,,,,,,,,,,,,,,,,,,,,,,,,,,,,,,,,,,,,,,,,,,,,,,,,,,,,,,,,,,,,,,,,,,,,,,,,,,,,,,,,,,,,,,,,,,,,,,42.2027135310002,48.88533760900009,,,,,092021,0,3,2,3,0,1,1,0,18,2021_Sep_20_0934,listening_fmri,3.2.4,60.42201770348166,
,0,parcelated_audio/32/32_5.ogg,,,,,,,,,0,0,0,0,0,0,0,0,0,0,0,0,,,,,,,,,0,0,0,0,0,4,4,4,,,,,,,,,,,,,,,,,,,,,,,,,,,,,,,,,,,,,,,,,,,,,,,,,,,,,,,,,,,,,,,,,,,,,,,,,,,,,,,,,,,,,,,,,,,,,,,,,,,,,,,,,,,,,,48.88565950500015,60.58448858100019,,,,,092021,0,3,2,3,0,1,1,0,18,2021_Sep_20_0934,listening_fmri,3.2.4,60.42201770348166,
,0,parcelated_audio/32/32_6.ogg,,,,,,,,,0,0,0,0,0,0,0,0,0,0,0,0,,,,,,,,,0,0,0,0,0,5,5,5,,,,,,,,,,,,,,,,,,,,,,,,,,,,,,,,,,,,,,,,,,,,,,,,,,,,,,,,,,,,,,,,,,,,,,,,,,,,,,,,,,,,,,,,,,,,,,,,,,,,,,,,,,,,,,60.58491531000004,69.0631291950001,,,,,092021,0,3,2,3,0,1,1,0,18,2021_Sep_20_0934,listening_fmri,3.2.4,60.42201770348166,
,0,parcelated_audio/32/32_7.ogg,,,,,,,,,0,0,0,0,0,0,0,0,0,0,0,0,,,,,,,,,0,0,0,0,0,6,6,6,,,,,,,,,,,,,,,,,,,,,,,,,,,,,,,,,,,,,,,,,,,,,,,,,,,,,,,,,,,,,,,,,,,,,,,,,,,,,,,,,,,,,,,,,,,,,,,,,,,,,,,,,,,,,,69.06447594600013,72.45249912899999,,,,,092021,0,3,2,3,0,1,1,0,18,2021_Sep_20_0934,listening_fmri,3.2.4,60.42201770348166,
,0,parcelated_audio/32/32_8.ogg,,,,,,,,,0,0,0,0,0,0,0,0,0,0,0,0,,,,,,,,,0,0,0,0,0,7,7,7,,,,,,,,,,,,,,,,,,,,,,,,,,,,,,,,,,,,,,,,,,,,,,,,,,,,,,,,,,,,,,,,,,,,,,,,,,,,,,,,,,,,,,,,,,,,,,,,,,,,,,,,,,,,,,72.45278023900005,76.92066366500012,,,,,092021,0,3,2,3,0,1,1,0,18,2021_Sep_20_0934,listening_fmri,3.2.4,60.42201770348166,
,0,parcelated_audio/32/32_9.ogg,,,,,,,,,0,0,0,0,0,0,0,0,0,0,0,0,,,,,,,,,0,0,0,0,0,8,8,8,,,,,,,,,,,,,,,,,,,,,,,,,,,,,,,,,,,,,,,,,,,,,,,,,,,,,,,,,,,,,,,,,,,,,,,,,,,,,,,,,,,,,,,,,,,,,,,,,,,,,,,,,,,,,,76.92110615600018,85.59648970100011,,,,,092021,0,3,2,3,0,1,1,0,18,2021_Sep_20_0934,listening_fmri,3.2.4,60.42201770348166,
,0,parcelated_audio/32/32_10.ogg,,,,,,,,,0,0,0,0,0,0,0,0,0,0,0,0,,,,,,,,,0,0,0,0,0,9,9,9,,,,,,,,,,,,,,,,,,,,,,,,,,,,,,,,,,,,,,,,,,,,,,,,,,,,,,,,,,,,,,,,,,,,,,,,,,,,,,,,,,,,,,,,,,,,,,,,,,,,,,,,,,,,,,85.596796455,90.276188778,,,,,092021,0,3,2,3,0,1,1,0,18,2021_Sep_20_0934,listening_fmri,3.2.4,60.42201770348166,
,0,parcelated_audio/32/32_11.ogg,,,,,,,,,0,0,0,0,0,0,0,0,0,0,0,0,,,,,,,,,0,0,0,0,0,10,10,10,,,,,,,,,,,,,,,,,,,,,,,,,,,,,,,,,,,,,,,,,,,,,,,,,,,,,,,,,,,,,,,,,,,,,,,,,,,,,,,,,,,,,,,,,,,,,,,,,,,,,,,,,,,,,,90.2765899330002,96.36436007900011,,,,,092021,0,3,2,3,0,1,1,0,18,2021_Sep_20_0934,listening_fmri,3.2.4,60.42201770348166,
,0,parcelated_audio/32/32_12.ogg,,,,,,,,,0,0,0,0,0,0,0,0,0,0,0,0,,,,,,,,,0,0,0,0,0,11,11,11,,,,,,,,,,,,,,,,,,,,,,,,,,,,,,,,,,,,,,,,,,,,,,,,,,,,,,,,,,,,,,,,,,,,,,,,,,,,,,,,,,,,,,,,,,,,,,,,,,,,,,,,,,,,,,96.36487995100015,105.81010782600015,,,,,092021,0,3,2,3,0,1,1,0,18,2021_Sep_20_0934,listening_fmri,3.2.4,60.42201770348166,
,0,parcelated_audio/32/32_13.ogg,,,,,,,,,0,0,0,0,0,0,0,0,0,0,0,0,,,,,,,,,0,0,0,0,0,12,12,12,,,,,,,,,,,,,,,,,,,,,,,,,,,,,,,,,,,,,,,,,,,,,,,,,,,,,,,,,,,,,,,,,,,,,,,,,,,,,,,,,,,,,,,,,,,,,,,,,,,,,,,,,,,,,,105.810587639,115.42562397100005,,,,,092021,0,3,2,3,0,1,1,0,18,2021_Sep_20_0934,listening_fmri,3.2.4,60.42201770348166,
,0,parcelated_audio/32/32_14.ogg,,,,,,,,,0,0,0,0,0,0,0,0,0,0,0,0,,,,,,,,,0,0,0,0,0,13,13,13,,,,,,,,,,,,,,,,,,,,,,,,,,,,,,,,,,,,,,,,,,,,,,,,,,,,,,,,,,,,,,,,,,,,,,,,,,,,,,,,,,,,,,,,,,,,,,,,,,,,,,,,,,,,,,115.42597533600019,123.5114678880002,,,,,092021,0,3,2,3,0,1,1,0,18,2021_Sep_20_0934,listening_fmri,3.2.4,60.42201770348166,
,0,parcelated_audio/32/32_15.ogg,,,,,,,,,0,0,0,0,0,0,0,0,0,0,0,0,,,,,,,,,0,0,0,0,0,14,14,14,,,,,,,,,,,,,,,,,,,,,,,,,,,,,,,,,,,,,,,,,,,,,,,,,,,,,,,,,,,,,,,,,,,,,,,,,,,,,,,,,,,,,,,,,,,,,,,,,,,,,,,,,,,,,,123.51182023900014,130.3935070030002,,,,,092021,0,3,2,3,0,1,1,0,18,2021_Sep_20_0934,listening_fmri,3.2.4,60.42201770348166,
,0,parcelated_audio/32/32_16.ogg,,,,,,,,,0,0,0,0,0,0,0,0,0,0,0,0,,,,,,,,,0,0,0,0,0,15,15,15,,,,,,,,,,,,,,,,,,,,,,,,,,,,,,,,,,,,,,,,,,,,,,,,,,,,,,,,,,,,,,,,,,,,,,,,,,,,,,,,,,,,,,,,,,,,,,,,,,,,,,,,,,,,,,130.39385587000015,137.99957460400014,,,,,092021,0,3,2,3,0,1,1,0,18,2021_Sep_20_0934,listening_fmri,3.2.4,60.42201770348166,
,0,parcelated_audio/32/32_17.ogg,,,,,,,,,0,0,0,0,0,0,0,0,0,0,0,0,,,,,,,,,0,0,0,0,0,16,16,16,,,,,,,,,,,,,,,,,,,,,,,,,,,,,,,,,,,,,,,,,,,,,,,,,,,,,,,,,,,,,,,,,,,,,,,,,,,,,,,,,,,,,,,,,,,,,,,,,,,,,,,,,,,,,,137.9999207630001,146.30592941999998,,,,,092021,0,3,2,3,0,1,1,0,18,2021_Sep_20_0934,listening_fmri,3.2.4,60.42201770348166,
,0,parcelated_audio/32/32_18.ogg,,,,,,,,,0,0,0,0,0,0,0,0,0,0,0,0,,,,,,,,,0,0,0,0,0,17,17,17,,,,,,,,,,,,,,,,,,,,,,,,,,,,,,,,,,,,,,,,,,,,,,,,,,,,,,,,,,,,,,,,,,,,,,,,,,,,,,,,,,,,,,,,,,,,,,,,,,,,,,,,,,,,,,146.30644343200015,150.6207169600002,,,,,092021,0,3,2,3,0,1,1,0,18,2021_Sep_20_0934,listening_fmri,3.2.4,60.42201770348166,
,0,parcelated_audio/32/32_19.ogg,,,,,,,,,0,0,0,0,0,0,0,0,0,0,0,0,,,,,,,,,0,0,0,0,0,18,18,18,,,,,,,,,,,,,,,,,,,,,,,,,,,,,,,,,,,,,,,,,,,,,,,,,,,,,,,,,,,,,,,,,,,,,,,,,,,,,,,,,,,,,,,,,,,,,,,,,,,,,,,,,,,,,,150.62107693400003,158.67016313400018,,,,,092021,0,3,2,3,0,1,1,0,18,2021_Sep_20_0934,listening_fmri,3.2.4,60.42201770348166,
,0,parcelated_audio/32/32_20.ogg,,,,,,,,,0,0,0,0,0,0,0,0,0,0,0,0,,,,,,,,,0,0,0,0,0,19,19,19,,,,,,,,,,,,,,,,,,,,,,,,,,,,,,,,,,,,,,,,,,,,,,,,,,,,,,,,,,,,,,,,,,,,,,,,,,,,,,,,,,,,,,,,,,,,,,,,,,,,,,,,,,,,,,158.6704641220001,169.56488316100013,,,,,092021,0,3,2,3,0,1,1,0,18,2021_Sep_20_0934,listening_fmri,3.2.4,60.42201770348166,
,0,parcelated_audio/32/32_21.ogg,,,,,,,,,0,0,0,0,0,0,0,0,0,0,0,0,,,,,,,,,0,0,0,0,0,20,20,20,,,,,,,,,,,,,,,,,,,,,,,,,,,,,,,,,,,,,,,,,,,,,,,,,,,,,,,,,,,,,,,,,,,,,,,,,,,,,,,,,,,,,,,,,,,,,,,,,,,,,,,,,,,,,,169.5654010180001,178.43837847700001,,,,,092021,0,3,2,3,0,1,1,0,18,2021_Sep_20_0934,listening_fmri,3.2.4,60.42201770348166,
,0,parcelated_audio/32/32_22.ogg,,,,,,,,,0,0,0,0,0,0,0,0,0,0,0,0,,,,,,,,,0,0,0,0,0,21,21,21,,,,,,,,,,,,,,,,,,,,,,,,,,,,,,,,,,,,,,,,,,,,,,,,,,,,,,,,,,,,,,,,,,,,,,,,,,,,,,,,,,,,,,,,,,,,,,,,,,,,,,,,,,,,,,178.4387870930002,192.47684282,,,,,092021,0,3,2,3,0,1,1,0,18,2021_Sep_20_0934,listening_fmri,3.2.4,60.42201770348166,
,0,parcelated_audio/32/32_23.ogg,,,,,,,,,0,0,0,0,0,0,0,0,0,0,0,0,,,,,,,,,0,0,0,0,0,22,22,22,,,,,,,,,,,,,,,,,,,,,,,,,,,,,,,,,,,,,,,,,,,,,,,,,,,,,,,,,,,,,,,,,,,,,,,,,,,,,,,,,,,,,,,,,,,,,,,,,,,,,,,,,,,,,,192.4771066830001,201.520662485,,,,,092021,0,3,2,3,0,1,1,0,18,2021_Sep_20_0934,listening_fmri,3.2.4,60.42201770348166,
,0,parcelated_audio/32/32_24.ogg,,,,,,,,,0,0,0,0,0,0,0,0,0,0,0,0,,,,,,,,,0,0,0,0,0,23,23,23,,,,,,,,,,,,,,,,,,,,,,,,,,,,,,,,,,,,,,,,,,,,,,,,,,,,,,,,,,,,,,,,,,,,,,,,,,,,,,,,,,,,,,,,,,,,,,,,,,,,,,,,,,,,,,201.521001178,212.81819454700008,,,,,092021,0,3,2,3,0,1,1,0,18,2021_Sep_20_0934,listening_fmri,3.2.4,60.42201770348166,
,0,parcelated_audio/32/32_25.ogg,,,,,,,,,0,0,0,0,0,0,0,0,0,0,0,0,,,,,,,,,0,0,0,0,0,24,24,24,,,,,,,,,,,,,,,,,,,,,,,,,,,,,,,,,,,,,,,,,,,,,,,,,,,,,,,,,,,,,,,,,,,,,,,,,,,,,,,,,,,,,,,,,,,,,,,,,,,,,,,,,,,,,,212.81860198100003,218.8791258450001,,,,,092021,0,3,2,3,0,1,1,0,18,2021_Sep_20_0934,listening_fmri,3.2.4,60.42201770348166,
,0,parcelated_audio/32/32_26.ogg,,,,,,,,,0,0,0,0,0,0,0,0,0,0,0,0,,,,,,,,,0,0,0,0,0,25,25,25,,,,,,,,,,,,,,,,,,,,,,,,,,,,,,,,,,,,,,,,,,,,,,,,,,,,,,,,,,,,,,,,,,,,,,,,,,,,,,,,,,,,,,,,,,,,,,,,,,,,,,,,,,,,,,218.8794003070002,232.2315285420002,,,,,092021,0,3,2,3,0,1,1,0,18,2021_Sep_20_0934,listening_fmri,3.2.4,60.42201770348166,
,0,parcelated_audio/32/32_27.ogg,,,,,,,,,0,0,0,0,0,0,0,0,0,0,0,0,,,,,,,,,0,0,0,0,0,26,26,26,,,,,,,,,,,,,,,,,,,,,,,,,,,,,,,,,,,,,,,,,,,,,,,,,,,,,,,,,,,,,,,,,,,,,,,,,,,,,,,,,,,,,,,,,,,,,,,,,,,,,,,,,,,,,,232.23188881600004,239.19372656300015,,,,,092021,0,3,2,3,0,1,1,0,18,2021_Sep_20_0934,listening_fmri,3.2.4,60.42201770348166,
,0,parcelated_audio/32/32_28.ogg,,,,,,,,,0,0,0,0,0,0,0,0,0,0,0,0,,,,,,,,,0,0,0,0,0,27,27,27,,,,,,,,,,,,,,,,,,,,,,,,,,,,,,,,,,,,,,,,,,,,,,,,,,,,,,,,,,,,,,,,,,,,,,,,,,,,,,,,,,,,,,,,,,,,,,,,,,,,,,,,,,,,,,239.194280724,245.8923692530002,,,,,092021,0,3,2,3,0,1,1,0,18,2021_Sep_20_0934,listening_fmri,3.2.4,60.42201770348166,
,0,parcelated_audio/32/32_29.ogg,,,,,,,,,0,0,0,0,0,0,0,0,0,0,0,0,,,,,,,,,0,0,0,0,0,28,28,28,,,,,,,,,,,,,,,,,,,,,,,,,,,,,,,,,,,,,,,,,,,,,,,,,,,,,,,,,,,,,,,,,,,,,,,,,,,,,,,,,,,,,,,,,,,,,,,,,,,,,,,,,,,,,,245.89281366900013,248.552245201,,,,,092021,0,3,2,3,0,1,1,0,18,2021_Sep_20_0934,listening_fmri,3.2.4,60.42201770348166,
,0,parcelated_audio/32/32_30.ogg,,,,,,,,,0,0,0,0,0,0,0,0,0,0,0,0,,,,,,,,,0,0,0,0,0,29,29,29,,,,,,,,,,,,,,,,,,,,,,,,,,,,,,,,,,,,,,,,,,,,,,,,,,,,,,,,,,,,,,,,,,,,,,,,,,,,,,,,,,,,,,,,,,,,,,,,,,,,,,,,,,,,,,248.55257524700005,255.5824249220002,,,,,092021,0,3,2,3,0,1,1,0,18,2021_Sep_20_0934,listening_fmri,3.2.4,60.42201770348166,
,0,parcelated_audio/32/32_31.ogg,,,,,,,,,0,0,0,0,0,0,0,0,0,0,0,0,,,,,,,,,0,0,0,0,0,30,30,30,,,,,,,,,,,,,,,,,,,,,,,,,,,,,,,,,,,,,,,,,,,,,,,,,,,,,,,,,,,,,,,,,,,,,,,,,,,,,,,,,,,,,,,,,,,,,,,,,,,,,,,,,,,,,,255.58295050300012,261.9142199180001,,,,,092021,0,3,2,3,0,1,1,0,18,2021_Sep_20_0934,listening_fmri,3.2.4,60.42201770348166,
,0,parcelated_audio/32/32_32.ogg,,,,,,,,,0,0,0,0,0,0,0,0,0,0,0,0,,,,,,,,,0,0,0,0,0,31,31,31,,,,,,,,,,,,,,,,,,,,,,,,,,,,,,,,,,,,,,,,,,,,,,,,,,,,,,,,,,,,,,,,,,,,,,,,,,,,,,,,,,,,,,,,,,,,,,,,,,,,,,,,,,,,,,261.91474223600017,271.625646964,,,,,092021,0,3,2,3,0,1,1,0,18,2021_Sep_20_0934,listening_fmri,3.2.4,60.42201770348166,
,0,parcelated_audio/32/32_33.ogg,,,,,,,,,0,0,0,0,0,0,0,0,0,0,0,0,,,,,,,,,0,0,0,0,0,32,32,32,,,,,,,,,,,,,,,,,,,,,,,,,,,,,,,,,,,,,,,,,,,,,,,,,,,,,,,,,,,,,,,,,,,,,,,,,,,,,,,,,,,,,,,,,,,,,,,,,,,,,,,,,,,,,,271.62600230400017,277.3728119440002,,,,,092021,0,3,2,3,0,1,1,0,18,2021_Sep_20_0934,listening_fmri,3.2.4,60.42201770348166,
,0,,,,,,,,,,0,0,0,0,0,0,0,0,0,0,0,0,,,,,,,,,0,0,0,0,,,,,,,,,,,,,,,,,,,,,,,,,,,,,,,,,,,,,,,,,,,,,,,,,,,,,,,,,,,,,,,,,,,,,,,,,,,,,,,,,,,,,,,,,,,,,,,,,,,,,,,,,,,,,,,,,,,,,,,,092021,0,3,2,3,0,1,1,0,18,2021_Sep_20_0934,listening_fmri,3.2.4,60.42201770348166,
,,,,,,,,,,,,,,,,,,,,,,,,,,,,,,,,,,,,,,,,,,,,,,,,,,,,,,,,,,,,,,,,,,,,,,,,,,,,,,,,,,,,,,,,,,,,,,,,,,,,,,,,,,,,,,,,,,,,,,,,,,,,,,277.373310057,283.375394078,467.41459279800006,None,,,,,,,,,,,,,,,,,,,,,473.4277399540001,None,473.4277399540001,None,,,,,,,,,,,,,,,
﻿instructions,count,audio,trials_14.thisRepN,trials_14.thisTrialN,trials_14.thisN,trials_14.thisIndex,trials_13.thisRepN,trials_13.thisTrialN,trials_13.thisN,trials_13.thisIndex,trials_3.thisRepN,trials_3.thisTrialN,trials_3.thisN,trials_3.thisIndex,Block1.thisRepN,Block1.thisTrialN,Block1.thisN,Block1.thisIndex,trials_5.thisRepN,trials_5.thisTrialN,trials_5.thisN,trials_5.thisIndex,trials.thisRepN,trials.thisTrialN,trials.thisN,trials.thisIndex,trials_2.thisRepN,trials_2.thisTrialN,trials_2.thisN,trials_2.thisIndex,trials_22.thisRepN,trials_22.thisTrialN,trials_22.thisN,trials_22.thisIndex,trials_16.thisRepN,trials_16.thisTrialN,trials_16.thisN,trials_16.thisIndex,trials_23.thisRepN,trials_23.thisTrialN,trials_23.thisN,trials_23.thisIndex,trials_7.thisRepN,trials_7.thisTrialN,trials_7.thisN,trials_7.thisIndex,story_list_block1,action_list_block1,key_resp_5.keys,key_resp_5.rt,key_resp_5.started,key_resp_5.stopped,text_87.started,text_87.stopped,text_88.started,text_88.stopped,key_resp_31.keys,key_resp_31.rt,key_resp_31.started,key_resp_31.stopped,text_89.started,text_89.stopped,image_27.started,image_27.stopped,text_97.started,text_97.stopped,image_24.started,image_24.stopped,key_resp_21.keys,key_resp_21.rt,key_resp_21.started,key_resp_21.stopped,text_78.started,text_78.stopped,text_96.started,text_96.stopped,image_28.started,image_28.stopped,key_resp_36.keys,key_resp_36.rt,key_resp_36.started,key_resp_36.stopped,text_94.started,text_94.stopped,text_95.started,text_95.stopped,text_90.started,text_90.stopped,key_resp_32.keys,key_resp_32.rt,key_resp_32.started,key_resp_32.stopped,text_91.started,text_91.stopped,key_resp_33.keys,key_resp_33.rt,key_resp_33.started,key_resp_33.stopped,text_92.started,text_92.stopped,key_resp_34.keys,key_resp_34.rt,key_resp_34.started,key_resp_34.stopped,text_93.started,text_93.stopped,key_resp_35.keys,key_resp_35.rt,key_resp_35.started,key_resp_35.stopped,text_98.started,text_98.stopped,text_99.started,text_99.stopped,key_resp_37.keys,key_resp_37.rt,key_resp_37.started,key_resp_37.stopped,textTrigger.started,textTrigger.stopped,getTrigger.keys,getTrigger.rt,getTrigger.started,getTrigger.stopped,triggerTime,text_76.started,text_76.stopped,text_77.started,text_77.stopped,startWait,endWait,image_23.started,image_23.stopped,text_38.started,text_38.stopped,key_resp_8.keys,key_resp_8.rt,key_resp_8.started,key_resp_8.stopped,text_39.started,text_39.stopped,text.started,text.stopped,text_50.started,text_50.stopped,key_resp_14.keys,key_resp_14.rt,key_resp_14.started,key_resp_14.stopped,storyImage_StartTime,storyImage_EndTime,clip_StartTime,clip_EndTime,text_6.started,text_6.stopped,text_52.started,text_52.stopped,text_33.started,text_33.stopped,key_resp_30.keys,key_resp_30.rt,key_resp_30.started,key_resp_30.stopped,text_79.started,text_79.stopped,text_4.started,text_4.stopped,image.started,image.stopped,text_5.started,text_5.stopped,key_resp_22.keys,key_resp_22.rt,key_resp_22.started,key_resp_22.stopped,text_37.started,text_37.stopped,key_resp_7.keys,key_resp_7.rt,key_resp_7.started,key_resp_7.stopped,text_80.started,text_80.stopped,question1_3.started,question1_3.stopped,question2_3.started,question2_3.stopped,question3_3.started,question3_3.stopped,question4_3.started,question4_3.stopped,question5_3.started,question5_3.stopped,question6_3.started,question6_3.stopped,image_16.started,image_16.stopped,text_49.started,text_49.stopped,key_resp_15.keys,key_resp_15.rt,key_resp_15.started,key_resp_15.stopped,text_81.started,text_81.stopped,participant,sA,sB,lA,lB,block_struct,play_stories,block,behavioral,random_seed,date,expName,psychopyVersion,frameRate,
Welcome to the story listening part of the experiment. ,,,0,0,0,0,0,0,0,0,,,,,,,,,,,,,,,,,,,,,,,,,,,,,,,,,,,,,[32 34 41 43 14 12 23 21],[4 2 1 3 3 1 2 4],7,3.1197048580002047,12.387838953000028,None,12.387838953000028,None,12.387838953000028,None,,,,,,,,,,,,,,,,,,,,,,,,,,,,,,,,,,,,,,,,,,,,,,,,,,,,,,,,,,,,,,,,,,,,,,,,,,,,,,,,,,,,,,,,,,,,,,,,,,,,,,,,,,,,,,,,,,,,,,,,,,,,,,,,,,,,,,,,,,,,,,,,,,,,,,092021,0,3,2,3,0,1,1,0,18,2021_Sep_20_0934,listening_fmri,3.2.4,60.42201770348166,
"As a reminder, you will listen to 12 short stories.",,,0,0,0,0,0,1,1,1,,,,,,,,,,,,,,,,,,,,,,,,,,,,,,,,,,,,,,,7,6.03962308600012,15.536905595999997,None,15.536905595999997,None,15.536905595999997,None,,,,,,,,,,,,,,,,,,,,,,,,,,,,,,,,,,,,,,,,,,,,,,,,,,,,,,,,,,,,,,,,,,,,,,,,,,,,,,,,,,,,,,,,,,,,,,,,,,,,,,,,,,,,,,,,,,,,,,,,,,,,,,,,,,,,,,,,,,,,,,,,,,,,,,092021,0,3,2,3,0,1,1,0,18,2021_Sep_20_0934,listening_fmri,3.2.4,60.42201770348166,
These stories will be divided into 2 blocks of 6 stories.,,,0,0,0,0,0,2,2,2,,,,,,,,,,,,,,,,,,,,,,,,,,,,,,,,,,,,,,,7,3.7845082639998964,21.621007914000074,None,21.621007914000074,None,21.621007914000074,None,,,,,,,,,,,,,,,,,,,,,,,,,,,,,,,,,,,,,,,,,,,,,,,,,,,,,,,,,,,,,,,,,,,,,,,,,,,,,,,,,,,,,,,,,,,,,,,,,,,,,,,,,,,,,,,,,,,,,,,,,,,,,,,,,,,,,,,,,,,,,,,,,,,,,,092021,0,3,2,3,0,1,1,0,18,2021_Sep_20_0934,listening_fmri,3.2.4,60.42201770348166,
"Before some of the stories, we will ask you to take on the perspective of a job. ",,,0,0,0,0,0,3,3,3,,,,,,,,,,,,,,,,,,,,,,,,,,,,,,,,,,,,,,,7,5.142251822999924,25.426345991000062,None,25.426345991000062,None,25.426345991000062,None,,,,,,,,,,,,,,,,,,,,,,,,,,,,,,,,,,,,,,,,,,,,,,,,,,,,,,,,,,,,,,,,,,,,,,,,,,,,,,,,,,,,,,,,,,,,,,,,,,,,,,,,,,,,,,,,,,,,,,,,,,,,,,,,,,,,,,,,,,,,,,,,,,,,,,092021,0,3,2,3,0,1,1,0,18,2021_Sep_20_0934,listening_fmri,3.2.4,60.42201770348166,
Please “simulate” this job while you listen to the story that follows.,,,0,0,0,0,0,4,4,4,,,,,,,,,,,,,,,,,,,,,,,,,,,,,,,,,,,,,,,7,3.415779480000083,30.593799481000133,None,30.593799481000133,None,30.593799481000133,None,,,,,,,,,,,,,,,,,,,,,,,,,,,,,,,,,,,,,,,,,,,,,,,,,,,,,,,,,,,,,,,,,,,,,,,,,,,,,,,,,,,,,,,,,,,,,,,,,,,,,,,,,,,,,,,,,,,,,,,,,,,,,,,,,,,,,,,,,,,,,,,,,,,,,,092021,0,3,2,3,0,1,1,0,18,2021_Sep_20_0934,listening_fmri,3.2.4,60.42201770348166,
"Before you begin, we will go over how to use the button box:",,,0,0,0,0,0,5,5,5,,,,,,,,,,,,,,,,,,,,,,,,,,,,,,,,,,,,,,,2,4.428942515000017,34.03775104900001,None,34.03775104900001,None,34.03775104900001,None,,,,,,,,,,,,,,,,,,,,,,,,,,,,,,,,,,,,,,,,,,,,,,,,,,,,,,,,,,,,,,,,,,,,,,,,,,,,,,,,,,,,,,,,,,,,,,,,,,,,,,,,,,,,,,,,,,,,,,,,,,,,,,,,,,,,,,,,,,,,,,,,,,,,,,092021,0,3,2,3,0,1,1,0,18,2021_Sep_20_0934,listening_fmri,3.2.4,60.42201770348166,
"In this experiment, you'll use the first three fingers on each hand to do the quizzes and advance through the experiment. ",,,0,0,0,0,0,6,6,6,,,,,,,,,,,,,,,,,,,,,,,,,,,,,,,,,,,,,,,7,4.826545446999944,38.49324960600006,None,38.49324960600006,None,38.49324960600006,None,,,,,,,,,,,,,,,,,,,,,,,,,,,,,,,,,,,,,,,,,,,,,,,,,,,,,,,,,,,,,,,,,,,,,,,,,,,,,,,,,,,,,,,,,,,,,,,,,,,,,,,,,,,,,,,,,,,,,,,,,,,,,,,,,,,,,,,,,,,,,,,,,,,,,,092021,0,3,2,3,0,1,1,0,18,2021_Sep_20_0934,listening_fmri,3.2.4,60.42201770348166,
,,,0,0,0,0,,,,,,,,,,,,,,,,,,,,,,,,,,,,,,,,,,,,,,,,,,,,,,,,,,,7,8.07146739399991,43.337108280000166,None,43.337108280000166,None,43.337108280000166,None,43.337108280000166,None,51.43737952100014,None,1,5.928323173000081,51.43737952100014,None,51.43737952100014,None,51.43737952100014,None,51.43737952100014,None,3,4.13675280099983,57.39296926099996,None,57.39296926099996,None,57.39296926099996,None,61.56046796600003,None,1,1.8572323070000039,61.56046796600003,None,63.44365475100017,None,8,1.03005572699999,63.44365475100017,None,64.49365637699998,None,6,0.8740639419997933,64.49365637699998,None,65.39363399400008,None,2,1.2009201240000493,65.39363399400008,None,66.62652735400002,None,66.62652735400002,None,7,2.375132089999852,66.62652735400002,None,,,,,,,,,,,,,,,,,,,,,,,,,,,,,,,,,,,,,,,,,,,,,,,,,,,,,,,,,,,,,,,,,,,,,,,,,,,,,,,,,,,,,,,,092021,0,3,2,3,0,1,1,0,18,2021_Sep_20_0934,listening_fmri,3.2.4,60.42201770348166,
,0,parcelated_audio/32/32_1.ogg,,,,,,,,,0,0,0,0,0,0,0,0,0,0,0,0,,,,,,,,,0,0,0,0,0,0,0,0,,,,,,,,,,,,,,,,,,,,,,,,,,,,,,,,,,,,,,,,,,,,,,,,,,,,,,,,,,,,,,,,,,,,,,,,,,,,,,,,,69.02676151800006,None,equal,121.00693497500015,69.02676151800006,None,177.673308399,69.02676151800006,None,69.02676151800006,None,0.0003513920000841608,5.991303106000032,190.0441812480001,None,196.05240288799996,None,8,1.8222160180000628,196.05240288799996,None,196.05240288799996,None,196.05240288799996,None,197.89435469199998,None,6,6.0312257670000236,197.89435469199998,None,13.906076350000149,16.90765289900014,16.913971533999984,28.29364032400008,,,,,,,,,,,,,,,,,,,,,,,,,,,,,,,,,,,,,,,,,,,,,,,,,,,,,092021,0,3,2,3,0,1,1,0,18,2021_Sep_20_0934,listening_fmri,3.2.4,60.42201770348166,
,0,parcelated_audio/32/32_2.ogg,,,,,,,,,0,0,0,0,0,0,0,0,0,0,0,0,,,,,,,,,0,0,0,0,0,1,1,1,,,,,,,,,,,,,,,,,,,,,,,,,,,,,,,,,,,,,,,,,,,,,,,,,,,,,,,,,,,,,,,,,,,,,,,,,,,,,,,,,,,,,,,,,,,,,,,,,,,,,,,,,,,,,,,,,,28.293996835000144,36.616321176000156,,,,,,,,,,,,,,,,,,,,,,,,,,,,,,,,,,,,,,,,,,,,,,,,,,,,,092021,0,3,2,3,0,1,1,0,18,2021_Sep_20_0934,listening_fmri,3.2.4,60.42201770348166,
,0,parcelated_audio/32/32_3.ogg,,,,,,,,,0,0,0,0,0,0,0,0,0,0,0,0,,,,,,,,,0,0,0,0,0,2,2,2,,,,,,,,,,,,,,,,,,,,,,,,,,,,,,,,,,,,,,,,,,,,,,,,,,,,,,,,,,,,,,,,,,,,,,,,,,,,,,,,,,,,,,,,,,,,,,,,,,,,,,,,,,,,,,,,,,36.61670250100019,42.20237371799999,,,,,,,,,,,,,,,,,,,,,,,,,,,,,,,,,,,,,,,,,,,,,,,,,,,,,092021,0,3,2,3,0,1,1,0,18,2021_Sep_20_0934,listening_fmri,3.2.4,60.42201770348166,
,0,parcelated_audio/32/32_4.ogg,,,,,,,,,0,0,0,0,0,0,0,0,0,0,0,0,,,,,,,,,0,0,0,0,0,3,3,3,,,,,,,,,,,,,,,,,,,,,,,,,,,,,,,,,,,,,,,,,,,,,,,,,,,,,,,,,,,,,,,,,,,,,,,,,,,,,,,,,,,,,,,,,,,,,,,,,,,,,,,,,,,,,,,,,,42.2027135310002,48.88533760900009,,,,,,,,,,,,,,,,,,,,,,,,,,,,,,,,,,,,,,,,,,,,,,,,,,,,,092021,0,3,2,3,0,1,1,0,18,2021_Sep_20_0934,listening_fmri,3.2.4,60.42201770348166,
,0,parcelated_audio/32/32_5.ogg,,,,,,,,,0,0,0,0,0,0,0,0,0,0,0,0,,,,,,,,,0,0,0,0,0,4,4,4,,,,,,,,,,,,,,,,,,,,,,,,,,,,,,,,,,,,,,,,,,,,,,,,,,,,,,,,,,,,,,,,,,,,,,,,,,,,,,,,,,,,,,,,,,,,,,,,,,,,,,,,,,,,,,,,,,48.88565950500015,60.58448858100019,,,,,,,,,,,,,,,,,,,,,,,,,,,,,,,,,,,,,,,,,,,,,,,,,,,,,092021,0,3,2,3,0,1,1,0,18,2021_Sep_20_0934,listening_fmri,3.2.4,60.42201770348166,
,0,parcelated_audio/32/32_6.ogg,,,,,,,,,0,0,0,0,0,0,0,0,0,0,0,0,,,,,,,,,0,0,0,0,0,5,5,5,,,,,,,,,,,,,,,,,,,,,,,,,,,,,,,,,,,,,,,,,,,,,,,,,,,,,,,,,,,,,,,,,,,,,,,,,,,,,,,,,,,,,,,,,,,,,,,,,,,,,,,,,,,,,,,,,,60.58491531000004,69.0631291950001,,,,,,,,,,,,,,,,,,,,,,,,,,,,,,,,,,,,,,,,,,,,,,,,,,,,,092021,0,3,2,3,0,1,1,0,18,2021_Sep_20_0934,listening_fmri,3.2.4,60.42201770348166,
,0,parcelated_audio/32/32_7.ogg,,,,,,,,,0,0,0,0,0,0,0,0,0,0,0,0,,,,,,,,,0,0,0,0,0,6,6,6,,,,,,,,,,,,,,,,,,,,,,,,,,,,,,,,,,,,,,,,,,,,,,,,,,,,,,,,,,,,,,,,,,,,,,,,,,,,,,,,,,,,,,,,,,,,,,,,,,,,,,,,,,,,,,,,,,69.06447594600013,72.45249912899999,,,,,,,,,,,,,,,,,,,,,,,,,,,,,,,,,,,,,,,,,,,,,,,,,,,,,092021,0,3,2,3,0,1,1,0,18,2021_Sep_20_0934,listening_fmri,3.2.4,60.42201770348166,
,0,parcelated_audio/32/32_8.ogg,,,,,,,,,0,0,0,0,0,0,0,0,0,0,0,0,,,,,,,,,0,0,0,0,0,7,7,7,,,,,,,,,,,,,,,,,,,,,,,,,,,,,,,,,,,,,,,,,,,,,,,,,,,,,,,,,,,,,,,,,,,,,,,,,,,,,,,,,,,,,,,,,,,,,,,,,,,,,,,,,,,,,,,,,,72.45278023900005,76.92066366500012,,,,,,,,,,,,,,,,,,,,,,,,,,,,,,,,,,,,,,,,,,,,,,,,,,,,,092021,0,3,2,3,0,1,1,0,18,2021_Sep_20_0934,listening_fmri,3.2.4,60.42201770348166,
,0,parcelated_audio/32/32_9.ogg,,,,,,,,,0,0,0,0,0,0,0,0,0,0,0,0,,,,,,,,,0,0,0,0,0,8,8,8,,,,,,,,,,,,,,,,,,,,,,,,,,,,,,,,,,,,,,,,,,,,,,,,,,,,,,,,,,,,,,,,,,,,,,,,,,,,,,,,,,,,,,,,,,,,,,,,,,,,,,,,,,,,,,,,,,76.92110615600018,85.59648970100011,,,,,,,,,,,,,,,,,,,,,,,,,,,,,,,,,,,,,,,,,,,,,,,,,,,,,092021,0,3,2,3,0,1,1,0,18,2021_Sep_20_0934,listening_fmri,3.2.4,60.42201770348166,
,0,parcelated_audio/32/32_10.ogg,,,,,,,,,0,0,0,0,0,0,0,0,0,0,0,0,,,,,,,,,0,0,0,0,0,9,9,9,,,,,,,,,,,,,,,,,,,,,,,,,,,,,,,,,,,,,,,,,,,,,,,,,,,,,,,,,,,,,,,,,,,,,,,,,,,,,,,,,,,,,,,,,,,,,,,,,,,,,,,,,,,,,,,,,,85.596796455,90.276188778,,,,,,,,,,,,,,,,,,,,,,,,,,,,,,,,,,,,,,,,,,,,,,,,,,,,,092021,0,3,2,3,0,1,1,0,18,2021_Sep_20_0934,listening_fmri,3.2.4,60.42201770348166,
,0,parcelated_audio/32/32_11.ogg,,,,,,,,,0,0,0,0,0,0,0,0,0,0,0,0,,,,,,,,,0,0,0,0,0,10,10,10,,,,,,,,,,,,,,,,,,,,,,,,,,,,,,,,,,,,,,,,,,,,,,,,,,,,,,,,,,,,,,,,,,,,,,,,,,,,,,,,,,,,,,,,,,,,,,,,,,,,,,,,,,,,,,,,,,90.2765899330002,96.36436007900011,,,,,,,,,,,,,,,,,,,,,,,,,,,,,,,,,,,,,,,,,,,,,,,,,,,,,092021,0,3,2,3,0,1,1,0,18,2021_Sep_20_0934,listening_fmri,3.2.4,60.42201770348166,
,0,parcelated_audio/32/32_12.ogg,,,,,,,,,0,0,0,0,0,0,0,0,0,0,0,0,,,,,,,,,0,0,0,0,0,11,11,11,,,,,,,,,,,,,,,,,,,,,,,,,,,,,,,,,,,,,,,,,,,,,,,,,,,,,,,,,,,,,,,,,,,,,,,,,,,,,,,,,,,,,,,,,,,,,,,,,,,,,,,,,,,,,,,,,,96.36487995100015,105.81010782600015,,,,,,,,,,,,,,,,,,,,,,,,,,,,,,,,,,,,,,,,,,,,,,,,,,,,,092021,0,3,2,3,0,1,1,0,18,2021_Sep_20_0934,listening_fmri,3.2.4,60.42201770348166,
,0,parcelated_audio/32/32_13.ogg,,,,,,,,,0,0,0,0,0,0,0,0,0,0,0,0,,,,,,,,,0,0,0,0,0,12,12,12,,,,,,,,,,,,,,,,,,,,,,,,,,,,,,,,,,,,,,,,,,,,,,,,,,,,,,,,,,,,,,,,,,,,,,,,,,,,,,,,,,,,,,,,,,,,,,,,,,,,,,,,,,,,,,,,,,105.810587639,115.42562397100005,,,,,,,,,,,,,,,,,,,,,,,,,,,,,,,,,,,,,,,,,,,,,,,,,,,,,092021,0,3,2,3,0,1,1,0,18,2021_Sep_20_0934,listening_fmri,3.2.4,60.42201770348166,
,0,parcelated_audio/32/32_14.ogg,,,,,,,,,0,0,0,0,0,0,0,0,0,0,0,0,,,,,,,,,0,0,0,0,0,13,13,13,,,,,,,,,,,,,,,,,,,,,,,,,,,,,,,,,,,,,,,,,,,,,,,,,,,,,,,,,,,,,,,,,,,,,,,,,,,,,,,,,,,,,,,,,,,,,,,,,,,,,,,,,,,,,,,,,,115.42597533600019,123.5114678880002,,,,,,,,,,,,,,,,,,,,,,,,,,,,,,,,,,,,,,,,,,,,,,,,,,,,,092021,0,3,2,3,0,1,1,0,18,2021_Sep_20_0934,listening_fmri,3.2.4,60.42201770348166,
,0,parcelated_audio/32/32_15.ogg,,,,,,,,,0,0,0,0,0,0,0,0,0,0,0,0,,,,,,,,,0,0,0,0,0,14,14,14,,,,,,,,,,,,,,,,,,,,,,,,,,,,,,,,,,,,,,,,,,,,,,,,,,,,,,,,,,,,,,,,,,,,,,,,,,,,,,,,,,,,,,,,,,,,,,,,,,,,,,,,,,,,,,,,,,123.51182023900014,130.3935070030002,,,,,,,,,,,,,,,,,,,,,,,,,,,,,,,,,,,,,,,,,,,,,,,,,,,,,092021,0,3,2,3,0,1,1,0,18,2021_Sep_20_0934,listening_fmri,3.2.4,60.42201770348166,
,0,parcelated_audio/32/32_16.ogg,,,,,,,,,0,0,0,0,0,0,0,0,0,0,0,0,,,,,,,,,0,0,0,0,0,15,15,15,,,,,,,,,,,,,,,,,,,,,,,,,,,,,,,,,,,,,,,,,,,,,,,,,,,,,,,,,,,,,,,,,,,,,,,,,,,,,,,,,,,,,,,,,,,,,,,,,,,,,,,,,,,,,,,,,,130.39385587000015,137.99957460400014,,,,,,,,,,,,,,,,,,,,,,,,,,,,,,,,,,,,,,,,,,,,,,,,,,,,,092021,0,3,2,3,0,1,1,0,18,2021_Sep_20_0934,listening_fmri,3.2.4,60.42201770348166,
,0,parcelated_audio/32/32_17.ogg,,,,,,,,,0,0,0,0,0,0,0,0,0,0,0,0,,,,,,,,,0,0,0,0,0,16,16,16,,,,,,,,,,,,,,,,,,,,,,,,,,,,,,,,,,,,,,,,,,,,,,,,,,,,,,,,,,,,,,,,,,,,,,,,,,,,,,,,,,,,,,,,,,,,,,,,,,,,,,,,,,,,,,,,,,137.9999207630001,146.30592941999998,,,,,,,,,,,,,,,,,,,,,,,,,,,,,,,,,,,,,,,,,,,,,,,,,,,,,092021,0,3,2,3,0,1,1,0,18,2021_Sep_20_0934,listening_fmri,3.2.4,60.42201770348166,
,0,parcelated_audio/32/32_18.ogg,,,,,,,,,0,0,0,0,0,0,0,0,0,0,0,0,,,,,,,,,0,0,0,0,0,17,17,17,,,,,,,,,,,,,,,,,,,,,,,,,,,,,,,,,,,,,,,,,,,,,,,,,,,,,,,,,,,,,,,,,,,,,,,,,,,,,,,,,,,,,,,,,,,,,,,,,,,,,,,,,,,,,,,,,,146.30644343200015,150.6207169600002,,,,,,,,,,,,,,,,,,,,,,,,,,,,,,,,,,,,,,,,,,,,,,,,,,,,,092021,0,3,2,3,0,1,1,0,18,2021_Sep_20_0934,listening_fmri,3.2.4,60.42201770348166,
,0,parcelated_audio/32/32_19.ogg,,,,,,,,,0,0,0,0,0,0,0,0,0,0,0,0,,,,,,,,,0,0,0,0,0,18,18,18,,,,,,,,,,,,,,,,,,,,,,,,,,,,,,,,,,,,,,,,,,,,,,,,,,,,,,,,,,,,,,,,,,,,,,,,,,,,,,,,,,,,,,,,,,,,,,,,,,,,,,,,,,,,,,,,,,150.62107693400003,158.67016313400018,,,,,,,,,,,,,,,,,,,,,,,,,,,,,,,,,,,,,,,,,,,,,,,,,,,,,092021,0,3,2,3,0,1,1,0,18,2021_Sep_20_0934,listening_fmri,3.2.4,60.42201770348166,
,0,parcelated_audio/32/32_20.ogg,,,,,,,,,0,0,0,0,0,0,0,0,0,0,0,0,,,,,,,,,0,0,0,0,0,19,19,19,,,,,,,,,,,,,,,,,,,,,,,,,,,,,,,,,,,,,,,,,,,,,,,,,,,,,,,,,,,,,,,,,,,,,,,,,,,,,,,,,,,,,,,,,,,,,,,,,,,,,,,,,,,,,,,,,,158.6704641220001,169.56488316100013,,,,,,,,,,,,,,,,,,,,,,,,,,,,,,,,,,,,,,,,,,,,,,,,,,,,,092021,0,3,2,3,0,1,1,0,18,2021_Sep_20_0934,listening_fmri,3.2.4,60.42201770348166,
,0,parcelated_audio/32/32_21.ogg,,,,,,,,,0,0,0,0,0,0,0,0,0,0,0,0,,,,,,,,,0,0,0,0,0,20,20,20,,,,,,,,,,,,,,,,,,,,,,,,,,,,,,,,,,,,,,,,,,,,,,,,,,,,,,,,,,,,,,,,,,,,,,,,,,,,,,,,,,,,,,,,,,,,,,,,,,,,,,,,,,,,,,,,,,169.5654010180001,178.43837847700001,,,,,,,,,,,,,,,,,,,,,,,,,,,,,,,,,,,,,,,,,,,,,,,,,,,,,092021,0,3,2,3,0,1,1,0,18,2021_Sep_20_0934,listening_fmri,3.2.4,60.42201770348166,
,0,parcelated_audio/32/32_22.ogg,,,,,,,,,0,0,0,0,0,0,0,0,0,0,0,0,,,,,,,,,0,0,0,0,0,21,21,21,,,,,,,,,,,,,,,,,,,,,,,,,,,,,,,,,,,,,,,,,,,,,,,,,,,,,,,,,,,,,,,,,,,,,,,,,,,,,,,,,,,,,,,,,,,,,,,,,,,,,,,,,,,,,,,,,,178.4387870930002,192.47684282,,,,,,,,,,,,,,,,,,,,,,,,,,,,,,,,,,,,,,,,,,,,,,,,,,,,,092021,0,3,2,3,0,1,1,0,18,2021_Sep_20_0934,listening_fmri,3.2.4,60.42201770348166,
,0,parcelated_audio/32/32_23.ogg,,,,,,,,,0,0,0,0,0,0,0,0,0,0,0,0,,,,,,,,,0,0,0,0,0,22,22,22,,,,,,,,,,,,,,,,,,,,,,,,,,,,,,,,,,,,,,,,,,,,,,,,,,,,,,,,,,,,,,,,,,,,,,,,,,,,,,,,,,,,,,,,,,,,,,,,,,,,,,,,,,,,,,,,,,192.4771066830001,201.520662485,,,,,,,,,,,,,,,,,,,,,,,,,,,,,,,,,,,,,,,,,,,,,,,,,,,,,092021,0,3,2,3,0,1,1,0,18,2021_Sep_20_0934,listening_fmri,3.2.4,60.42201770348166,
,0,parcelated_audio/32/32_24.ogg,,,,,,,,,0,0,0,0,0,0,0,0,0,0,0,0,,,,,,,,,0,0,0,0,0,23,23,23,,,,,,,,,,,,,,,,,,,,,,,,,,,,,,,,,,,,,,,,,,,,,,,,,,,,,,,,,,,,,,,,,,,,,,,,,,,,,,,,,,,,,,,,,,,,,,,,,,,,,,,,,,,,,,,,,,201.521001178,212.81819454700008,,,,,,,,,,,,,,,,,,,,,,,,,,,,,,,,,,,,,,,,,,,,,,,,,,,,,092021,0,3,2,3,0,1,1,0,18,2021_Sep_20_0934,listening_fmri,3.2.4,60.42201770348166,
,0,parcelated_audio/32/32_25.ogg,,,,,,,,,0,0,0,0,0,0,0,0,0,0,0,0,,,,,,,,,0,0,0,0,0,24,24,24,,,,,,,,,,,,,,,,,,,,,,,,,,,,,,,,,,,,,,,,,,,,,,,,,,,,,,,,,,,,,,,,,,,,,,,,,,,,,,,,,,,,,,,,,,,,,,,,,,,,,,,,,,,,,,,,,,212.81860198100003,218.8791258450001,,,,,,,,,,,,,,,,,,,,,,,,,,,,,,,,,,,,,,,,,,,,,,,,,,,,,092021,0,3,2,3,0,1,1,0,18,2021_Sep_20_0934,listening_fmri,3.2.4,60.42201770348166,
,0,parcelated_audio/32/32_26.ogg,,,,,,,,,0,0,0,0,0,0,0,0,0,0,0,0,,,,,,,,,0,0,0,0,0,25,25,25,,,,,,,,,,,,,,,,,,,,,,,,,,,,,,,,,,,,,,,,,,,,,,,,,,,,,,,,,,,,,,,,,,,,,,,,,,,,,,,,,,,,,,,,,,,,,,,,,,,,,,,,,,,,,,,,,,218.8794003070002,232.2315285420002,,,,,,,,,,,,,,,,,,,,,,,,,,,,,,,,,,,,,,,,,,,,,,,,,,,,,092021,0,3,2,3,0,1,1,0,18,2021_Sep_20_0934,listening_fmri,3.2.4,60.42201770348166,
,0,parcelated_audio/32/32_27.ogg,,,,,,,,,0,0,0,0,0,0,0,0,0,0,0,0,,,,,,,,,0,0,0,0,0,26,26,26,,,,,,,,,,,,,,,,,,,,,,,,,,,,,,,,,,,,,,,,,,,,,,,,,,,,,,,,,,,,,,,,,,,,,,,,,,,,,,,,,,,,,,,,,,,,,,,,,,,,,,,,,,,,,,,,,,232.23188881600004,239.19372656300015,,,,,,,,,,,,,,,,,,,,,,,,,,,,,,,,,,,,,,,,,,,,,,,,,,,,,092021,0,3,2,3,0,1,1,0,18,2021_Sep_20_0934,listening_fmri,3.2.4,60.42201770348166,
,0,parcelated_audio/32/32_28.ogg,,,,,,,,,0,0,0,0,0,0,0,0,0,0,0,0,,,,,,,,,0,0,0,0,0,27,27,27,,,,,,,,,,,,,,,,,,,,,,,,,,,,,,,,,,,,,,,,,,,,,,,,,,,,,,,,,,,,,,,,,,,,,,,,,,,,,,,,,,,,,,,,,,,,,,,,,,,,,,,,,,,,,,,,,,239.194280724,245.8923692530002,,,,,,,,,,,,,,,,,,,,,,,,,,,,,,,,,,,,,,,,,,,,,,,,,,,,,092021,0,3,2,3,0,1,1,0,18,2021_Sep_20_0934,listening_fmri,3.2.4,60.42201770348166,
,0,parcelated_audio/32/32_29.ogg,,,,,,,,,0,0,0,0,0,0,0,0,0,0,0,0,,,,,,,,,0,0,0,0,0,28,28,28,,,,,,,,,,,,,,,,,,,,,,,,,,,,,,,,,,,,,,,,,,,,,,,,,,,,,,,,,,,,,,,,,,,,,,,,,,,,,,,,,,,,,,,,,,,,,,,,,,,,,,,,,,,,,,,,,,245.89281366900013,248.552245201,,,,,,,,,,,,,,,,,,,,,,,,,,,,,,,,,,,,,,,,,,,,,,,,,,,,,092021,0,3,2,3,0,1,1,0,18,2021_Sep_20_0934,listening_fmri,3.2.4,60.42201770348166,
,0,parcelated_audio/32/32_30.ogg,,,,,,,,,0,0,0,0,0,0,0,0,0,0,0,0,,,,,,,,,0,0,0,0,0,29,29,29,,,,,,,,,,,,,,,,,,,,,,,,,,,,,,,,,,,,,,,,,,,,,,,,,,,,,,,,,,,,,,,,,,,,,,,,,,,,,,,,,,,,,,,,,,,,,,,,,,,,,,,,,,,,,,,,,,248.55257524700005,255.5824249220002,,,,,,,,,,,,,,,,,,,,,,,,,,,,,,,,,,,,,,,,,,,,,,,,,,,,,092021,0,3,2,3,0,1,1,0,18,2021_Sep_20_0934,listening_fmri,3.2.4,60.42201770348166,
,0,parcelated_audio/32/32_31.ogg,,,,,,,,,0,0,0,0,0,0,0,0,0,0,0,0,,,,,,,,,0,0,0,0,0,30,30,30,,,,,,,,,,,,,,,,,,,,,,,,,,,,,,,,,,,,,,,,,,,,,,,,,,,,,,,,,,,,,,,,,,,,,,,,,,,,,,,,,,,,,,,,,,,,,,,,,,,,,,,,,,,,,,,,,,255.58295050300012,261.9142199180001,,,,,,,,,,,,,,,,,,,,,,,,,,,,,,,,,,,,,,,,,,,,,,,,,,,,,092021,0,3,2,3,0,1,1,0,18,2021_Sep_20_0934,listening_fmri,3.2.4,60.42201770348166,
,0,parcelated_audio/32/32_32.ogg,,,,,,,,,0,0,0,0,0,0,0,0,0,0,0,0,,,,,,,,,0,0,0,0,0,31,31,31,,,,,,,,,,,,,,,,,,,,,,,,,,,,,,,,,,,,,,,,,,,,,,,,,,,,,,,,,,,,,,,,,,,,,,,,,,,,,,,,,,,,,,,,,,,,,,,,,,,,,,,,,,,,,,,,,,261.91474223600017,271.625646964,,,,,,,,,,,,,,,,,,,,,,,,,,,,,,,,,,,,,,,,,,,,,,,,,,,,,092021,0,3,2,3,0,1,1,0,18,2021_Sep_20_0934,listening_fmri,3.2.4,60.42201770348166,
,0,parcelated_audio/32/32_33.ogg,,,,,,,,,0,0,0,0,0,0,0,0,0,0,0,0,,,,,,,,,0,0,0,0,0,32,32,32,,,,,,,,,,,,,,,,,,,,,,,,,,,,,,,,,,,,,,,,,,,,,,,,,,,,,,,,,,,,,,,,,,,,,,,,,,,,,,,,,,,,,,,,,,,,,,,,,,,,,,,,,,,,,,,,,,271.62600230400017,277.3728119440002,,,,,,,,,,,,,,,,,,,,,,,,,,,,,,,,,,,,,,,,,,,,,,,,,,,,,092021,0,3,2,3,0,1,1,0,18,2021_Sep_20_0934,listening_fmri,3.2.4,60.42201770348166,
,0,,,,,,,,,,0,0,0,0,0,0,0,0,0,0,0,0,,,,,,,,,0,0,0,0,,,,,,,,,,,,,,,,,,,,,,,,,,,,,,,,,,,,,,,,,,,,,,,,,,,,,,,,,,,,,,,,,,,,,,,,,,,,,,,,,,,,,,,,,,,,,,,,,,,,,,,,,,,,,,,,,,,,,,,,,,,,,,,,,,,,,,,,,,,,,,,,,,,,,,,,,,,,,,,,,,,,,,,,,,,,092021,0,3,2,3,0,1,1,0,18,2021_Sep_20_0934,listening_fmri,3.2.4,60.42201770348166,
,0,,,,,,,,,,0,0,0,0,0,0,0,0,0,0,0,0,,,,,,,,,,,,,,,,,,,,,,,,,,,,,,,,,,,,,,,,,,,,,,,,,,,,,,,,,,,,,,,,,,,,,,,,,,,,,,,,,,,,,,,,,,,,,,,,,,,,,,,,,,,,277.373310057,283.375394078,467.41459279800006,None,,,,,,,,,,,,,,,,,,,,,473.4277399540001,None,473.4277399540001,None,,,,,,,,,,,,,,,,,,,,,,,,,,,,,,,,,,,,,,,,,,,,,,,,,092021,0,3,2,3,0,1,1,0,18,2021_Sep_20_0934,listening_fmri,3.2.4,60.42201770348166,
,0,,,,,,,,,,0,0,0,0,0,0,0,0,,,,,,,,,,,,,,,,,,,,,,,,,,,,,,,,,,,,,,,,,,,,,,,,,,,,,,,,,,,,,,,,,,,,,,,,,,,,,,,,,,,,,,,,,,,,,,,,,,,,,,,,,,,,,,,,,,,,,,,,,,,,,,,,,,,,,,,,,,,,,,,,,,,,,,,,,,,,,,,,,,,,,,,,,,,,,,,,,,,,,,,,,,,,092021,0,3,2,3,0,1,1,0,18,2021_Sep_20_0934,listening_fmri,3.2.4,60.42201770348166,
,1,,,,,,,,,,0,0,0,0,0,1,1,1,0,0,0,0,0,0,0,0,,,,,,,,,,,,,,,,,0,0,0,0,,,,,,,,,,,,,,,,,,,,,,,,,,,,,,,,,,,,,,,,,,,,,,,,,,,,,,,,,,,,,,,,,,,,,,,,,,,,,,,,,,,,,,,,474.43162035800015,None,1,2.2679687950001153,474.43162035800015,None,474.43162035800015,None,474.43162035800015,None,,,,,,,,,,,,,,,476.7318672460001,None,2,33.66583618000004,476.7318672460001,None,476.7318672460001,None,510.44402540500005,None,510.44402540500005,None,510.44402540500005,None,2,5.465670830999898,510.44402540500005,None,515.927211449,None,2,3.380491079999956,515.927211449,None,515.927211449,None,519.4270614279999,None,519.4270614279999,None,519.4270614279999,None,519.4270614279999,None,519.4270614279999,None,519.4270614279999,None,519.4270614279999,None,,,,,,,,,092021,0,3,2,3,0,1,1,0,18,2021_Sep_20_0934,listening_fmri,3.2.4,60.42201770348166,
,1,,,,,,,,,,0,0,0,0,0,1,1,1,0,0,0,0,0,0,0,0,,,,,,,,,,,,,,,,,1,0,1,0,,,,,,,,,,,,,,,,,,,,,,,,,,,,,,,,,,,,,,,,,,,,,,,,,,,,,,,,,,,,,,,,,,,,,,,,,,,,,,,,,,,,,,,,,,,,,,,,,,,,,,,,,,,,,,,,,,,,,,,,533.8438590119999,None,533.8438590119999,None,533.8438590119999,None,1,1.1618517430001702,533.8438590119999,None,535.027436417,None,7,4.957259470999816,535.027436417,None,535.027436417,None,540.0940846500002,None,540.0940846500002,None,540.0940846500002,None,540.0940846500002,None,540.0940846500002,None,540.0940846500002,None,540.0940846500002,None,,,,,,,,,092021,0,3,2,3,0,1,1,0,18,2021_Sep_20_0934,listening_fmri,3.2.4,60.42201770348166,
,1,,,,,,,,,,0,0,0,0,0,1,1,1,0,0,0,0,0,0,0,0,,,,,,,,,,,,,,,,,,,,,,,,,,,,,,,,,,,,,,,,,,,,,,,,,,,,,,,,,,,,,,,,,,,,,,,,,,,,,,,,,,,,,,,,,,,,,,,,,,,,,,,,,,,,,,,,,,,,,,,,,,,,,,,,,,,,,,,,,,,,569.8110707599999,None,569.8110707599999,None,569.8110707599999,None,1,1.7314814119999937,569.8110707599999,None,,,,,,,,,,,,,,,,,,,,,,,565.7936765970003,None,1,3.977038714000173,565.7936765970003,None,565.7936765970003,None,092021,0,3,2,3,0,1,1,0,18,2021_Sep_20_0934,listening_fmri,3.2.4,60.42201770348166,
,1,parcelated_audio/34/34_1.ogg,,,,,,,,,0,0,0,0,0,1,1,1,0,0,0,0,,,,,,,,,0,0,0,0,0,0,0,0,,,,,,,,,,,,,,,,,,,,,,,,,,,,,,,,,,,,,,,,,,,,,,,,,,,,,,,,,,,,,,,,,,,,,,,,,,,,,,,,,,,,,,,,,,,,,,,,,,,,,,,,,,571.6104179140002,None,1,2.679166688999885,571.6104179140002,None,384.2658992930003,387.2749974290002,387.2806361109999,395.9724994220003,,,,,,,,,,,,,,,,,,,,,,,,,,,,,,,,,,,,,,,,,,,,,,,,,,,,,092021,0,3,2,3,0,1,1,0,18,2021_Sep_20_0934,listening_fmri,3.2.4,60.42201770348166,
,1,parcelated_audio/34/34_2.ogg,,,,,,,,,0,0,0,0,0,1,1,1,0,0,0,0,,,,,,,,,0,0,0,0,0,1,1,1,,,,,,,,,,,,,,,,,,,,,,,,,,,,,,,,,,,,,,,,,,,,,,,,,,,,,,,,,,,,,,,,,,,,,,,,,,,,,,,,,,,,,,,,,,,,,,,,,,,,,,,,,,,,,,,,,,395.9728583470003,400.5270475540003,,,,,,,,,,,,,,,,,,,,,,,,,,,,,,,,,,,,,,,,,,,,,,,,,,,,,092021,0,3,2,3,0,1,1,0,18,2021_Sep_20_0934,listening_fmri,3.2.4,60.42201770348166,
,1,parcelated_audio/34/34_3.ogg,,,,,,,,,0,0,0,0,0,1,1,1,0,0,0,0,,,,,,,,,0,0,0,0,0,2,2,2,,,,,,,,,,,,,,,,,,,,,,,,,,,,,,,,,,,,,,,,,,,,,,,,,,,,,,,,,,,,,,,,,,,,,,,,,,,,,,,,,,,,,,,,,,,,,,,,,,,,,,,,,,,,,,,,,,400.5273232500001,405.165097198,,,,,,,,,,,,,,,,,,,,,,,,,,,,,,,,,,,,,,,,,,,,,,,,,,,,,092021,0,3,2,3,0,1,1,0,18,2021_Sep_20_0934,listening_fmri,3.2.4,60.42201770348166,
,1,parcelated_audio/34/34_4.ogg,,,,,,,,,0,0,0,0,0,1,1,1,0,0,0,0,,,,,,,,,0,0,0,0,0,3,3,3,,,,,,,,,,,,,,,,,,,,,,,,,,,,,,,,,,,,,,,,,,,,,,,,,,,,,,,,,,,,,,,,,,,,,,,,,,,,,,,,,,,,,,,,,,,,,,,,,,,,,,,,,,,,,,,,,,405.1654865400003,414.785433579,,,,,,,,,,,,,,,,,,,,,,,,,,,,,,,,,,,,,,,,,,,,,,,,,,,,,092021,0,3,2,3,0,1,1,0,18,2021_Sep_20_0934,listening_fmri,3.2.4,60.42201770348166,
,1,parcelated_audio/34/34_5.ogg,,,,,,,,,0,0,0,0,0,1,1,1,0,0,0,0,,,,,,,,,0,0,0,0,0,4,4,4,,,,,,,,,,,,,,,,,,,,,,,,,,,,,,,,,,,,,,,,,,,,,,,,,,,,,,,,,,,,,,,,,,,,,,,,,,,,,,,,,,,,,,,,,,,,,,,,,,,,,,,,,,,,,,,,,,414.7857943360002,425.29809043,,,,,,,,,,,,,,,,,,,,,,,,,,,,,,,,,,,,,,,,,,,,,,,,,,,,,092021,0,3,2,3,0,1,1,0,18,2021_Sep_20_0934,listening_fmri,3.2.4,60.42201770348166,
,1,parcelated_audio/34/34_6.ogg,,,,,,,,,0,0,0,0,0,1,1,1,0,0,0,0,,,,,,,,,0,0,0,0,0,5,5,5,,,,,,,,,,,,,,,,,,,,,,,,,,,,,,,,,,,,,,,,,,,,,,,,,,,,,,,,,,,,,,,,,,,,,,,,,,,,,,,,,,,,,,,,,,,,,,,,,,,,,,,,,,,,,,,,,,425.30070922100026,434.0080764290003,,,,,,,,,,,,,,,,,,,,,,,,,,,,,,,,,,,,,,,,,,,,,,,,,,,,,092021,0,3,2,3,0,1,1,0,18,2021_Sep_20_0934,listening_fmri,3.2.4,60.42201770348166,
,1,parcelated_audio/34/34_7.ogg,,,,,,,,,0,0,0,0,0,1,1,1,0,0,0,0,,,,,,,,,0,0,0,0,0,6,6,6,,,,,,,,,,,,,,,,,,,,,,,,,,,,,,,,,,,,,,,,,,,,,,,,,,,,,,,,,,,,,,,,,,,,,,,,,,,,,,,,,,,,,,,,,,,,,,,,,,,,,,,,,,,,,,,,,,434.00849941599995,439.99997574700024,,,,,,,,,,,,,,,,,,,,,,,,,,,,,,,,,,,,,,,,,,,,,,,,,,,,,092021,0,3,2,3,0,1,1,0,18,2021_Sep_20_0934,listening_fmri,3.2.4,60.42201770348166,
,1,parcelated_audio/34/34_8.ogg,,,,,,,,,0,0,0,0,0,1,1,1,0,0,0,0,,,,,,,,,0,0,0,0,0,7,7,7,,,,,,,,,,,,,,,,,,,,,,,,,,,,,,,,,,,,,,,,,,,,,,,,,,,,,,,,,,,,,,,,,,,,,,,,,,,,,,,,,,,,,,,,,,,,,,,,,,,,,,,,,,,,,,,,,,440.00038222199987,447.9684688210002,,,,,,,,,,,,,,,,,,,,,,,,,,,,,,,,,,,,,,,,,,,,,,,,,,,,,092021,0,3,2,3,0,1,1,0,18,2021_Sep_20_0934,listening_fmri,3.2.4,60.42201770348166,
,1,parcelated_audio/34/34_9.ogg,,,,,,,,,0,0,0,0,0,1,1,1,0,0,0,0,,,,,,,,,0,0,0,0,0,8,8,8,,,,,,,,,,,,,,,,,,,,,,,,,,,,,,,,,,,,,,,,,,,,,,,,,,,,,,,,,,,,,,,,,,,,,,,,,,,,,,,,,,,,,,,,,,,,,,,,,,,,,,,,,,,,,,,,,,447.9688409900002,452.7592731550001,,,,,,,,,,,,,,,,,,,,,,,,,,,,,,,,,,,,,,,,,,,,,,,,,,,,,092021,0,3,2,3,0,1,1,0,18,2021_Sep_20_0934,listening_fmri,3.2.4,60.42201770348166,
,1,parcelated_audio/34/34_10.ogg,,,,,,,,,0,0,0,0,0,1,1,1,0,0,0,0,,,,,,,,,0,0,0,0,0,9,9,9,,,,,,,,,,,,,,,,,,,,,,,,,,,,,,,,,,,,,,,,,,,,,,,,,,,,,,,,,,,,,,,,,,,,,,,,,,,,,,,,,,,,,,,,,,,,,,,,,,,,,,,,,,,,,,,,,,452.75964369100006,459.8766492070001,,,,,,,,,,,,,,,,,,,,,,,,,,,,,,,,,,,,,,,,,,,,,,,,,,,,,092021,0,3,2,3,0,1,1,0,18,2021_Sep_20_0934,listening_fmri,3.2.4,60.42201770348166,
,1,parcelated_audio/34/34_11.ogg,,,,,,,,,0,0,0,0,0,1,1,1,0,0,0,0,,,,,,,,,0,0,0,0,0,10,10,10,,,,,,,,,,,,,,,,,,,,,,,,,,,,,,,,,,,,,,,,,,,,,,,,,,,,,,,,,,,,,,,,,,,,,,,,,,,,,,,,,,,,,,,,,,,,,,,,,,,,,,,,,,,,,,,,,,459.87700967700016,463.3105758170002,,,,,,,,,,,,,,,,,,,,,,,,,,,,,,,,,,,,,,,,,,,,,,,,,,,,,092021,0,3,2,3,0,1,1,0,18,2021_Sep_20_0934,listening_fmri,3.2.4,60.42201770348166,
,1,parcelated_audio/34/34_12.ogg,,,,,,,,,0,0,0,0,0,1,1,1,0,0,0,0,,,,,,,,,0,0,0,0,0,11,11,11,,,,,,,,,,,,,,,,,,,,,,,,,,,,,,,,,,,,,,,,,,,,,,,,,,,,,,,,,,,,,,,,,,,,,,,,,,,,,,,,,,,,,,,,,,,,,,,,,,,,,,,,,,,,,,,,,,463.3109214399999,471.4765091030001,,,,,,,,,,,,,,,,,,,,,,,,,,,,,,,,,,,,,,,,,,,,,,,,,,,,,092021,0,3,2,3,0,1,1,0,18,2021_Sep_20_0934,listening_fmri,3.2.4,60.42201770348166,
,1,parcelated_audio/34/34_13.ogg,,,,,,,,,0,0,0,0,0,1,1,1,0,0,0,0,,,,,,,,,0,0,0,0,0,12,12,12,,,,,,,,,,,,,,,,,,,,,,,,,,,,,,,,,,,,,,,,,,,,,,,,,,,,,,,,,,,,,,,,,,,,,,,,,,,,,,,,,,,,,,,,,,,,,,,,,,,,,,,,,,,,,,,,,,471.47678898900017,475.367179698,,,,,,,,,,,,,,,,,,,,,,,,,,,,,,,,,,,,,,,,,,,,,,,,,,,,,092021,0,3,2,3,0,1,1,0,18,2021_Sep_20_0934,listening_fmri,3.2.4,60.42201770348166,
,1,parcelated_audio/34/34_14.ogg,,,,,,,,,0,0,0,0,0,1,1,1,0,0,0,0,,,,,,,,,0,0,0,0,0,13,13,13,,,,,,,,,,,,,,,,,,,,,,,,,,,,,,,,,,,,,,,,,,,,,,,,,,,,,,,,,,,,,,,,,,,,,,,,,,,,,,,,,,,,,,,,,,,,,,,,,,,,,,,,,,,,,,,,,,475.3676941320002,480.01329107800007,,,,,,,,,,,,,,,,,,,,,,,,,,,,,,,,,,,,,,,,,,,,,,,,,,,,,092021,0,3,2,3,0,1,1,0,18,2021_Sep_20_0934,listening_fmri,3.2.4,60.42201770348166,
,1,parcelated_audio/34/34_15.ogg,,,,,,,,,0,0,0,0,0,1,1,1,0,0,0,0,,,,,,,,,0,0,0,0,0,14,14,14,,,,,,,,,,,,,,,,,,,,,,,,,,,,,,,,,,,,,,,,,,,,,,,,,,,,,,,,,,,,,,,,,,,,,,,,,,,,,,,,,,,,,,,,,,,,,,,,,,,,,,,,,,,,,,,,,,480.0135452750003,484.2018319179999,,,,,,,,,,,,,,,,,,,,,,,,,,,,,,,,,,,,,,,,,,,,,,,,,,,,,092021,0,3,2,3,0,1,1,0,18,2021_Sep_20_0934,listening_fmri,3.2.4,60.42201770348166,
,1,parcelated_audio/34/34_16.ogg,,,,,,,,,0,0,0,0,0,1,1,1,0,0,0,0,,,,,,,,,0,0,0,0,0,15,15,15,,,,,,,,,,,,,,,,,,,,,,,,,,,,,,,,,,,,,,,,,,,,,,,,,,,,,,,,,,,,,,,,,,,,,,,,,,,,,,,,,,,,,,,,,,,,,,,,,,,,,,,,,,,,,,,,,,484.2021203710003,497.1911463160002,,,,,,,,,,,,,,,,,,,,,,,,,,,,,,,,,,,,,,,,,,,,,,,,,,,,,092021,0,3,2,3,0,1,1,0,18,2021_Sep_20_0934,listening_fmri,3.2.4,60.42201770348166,
,1,parcelated_audio/34/34_17.ogg,,,,,,,,,0,0,0,0,0,1,1,1,0,0,0,0,,,,,,,,,0,0,0,0,0,16,16,16,,,,,,,,,,,,,,,,,,,,,,,,,,,,,,,,,,,,,,,,,,,,,,,,,,,,,,,,,,,,,,,,,,,,,,,,,,,,,,,,,,,,,,,,,,,,,,,,,,,,,,,,,,,,,,,,,,497.191605366,506.1163537580003,,,,,,,,,,,,,,,,,,,,,,,,,,,,,,,,,,,,,,,,,,,,,,,,,,,,,092021,0,3,2,3,0,1,1,0,18,2021_Sep_20_0934,listening_fmri,3.2.4,60.42201770348166,
,1,parcelated_audio/34/34_18.ogg,,,,,,,,,0,0,0,0,0,1,1,1,0,0,0,0,,,,,,,,,0,0,0,0,0,17,17,17,,,,,,,,,,,,,,,,,,,,,,,,,,,,,,,,,,,,,,,,,,,,,,,,,,,,,,,,,,,,,,,,,,,,,,,,,,,,,,,,,,,,,,,,,,,,,,,,,,,,,,,,,,,,,,,,,,506.1167023109999,512.0072250280002,,,,,,,,,,,,,,,,,,,,,,,,,,,,,,,,,,,,,,,,,,,,,,,,,,,,,092021,0,3,2,3,0,1,1,0,18,2021_Sep_20_0934,listening_fmri,3.2.4,60.42201770348166,
,1,parcelated_audio/34/34_19.ogg,,,,,,,,,0,0,0,0,0,1,1,1,0,0,0,0,,,,,,,,,0,0,0,0,0,18,18,18,,,,,,,,,,,,,,,,,,,,,,,,,,,,,,,,,,,,,,,,,,,,,,,,,,,,,,,,,,,,,,,,,,,,,,,,,,,,,,,,,,,,,,,,,,,,,,,,,,,,,,,,,,,,,,,,,,512.007568578,518.2156231270003,,,,,,,,,,,,,,,,,,,,,,,,,,,,,,,,,,,,,,,,,,,,,,,,,,,,,092021,0,3,2,3,0,1,1,0,18,2021_Sep_20_0934,listening_fmri,3.2.4,60.42201770348166,
,1,parcelated_audio/34/34_20.ogg,,,,,,,,,0,0,0,0,0,1,1,1,0,0,0,0,,,,,,,,,0,0,0,0,0,19,19,19,,,,,,,,,,,,,,,,,,,,,,,,,,,,,,,,,,,,,,,,,,,,,,,,,,,,,,,,,,,,,,,,,,,,,,,,,,,,,,,,,,,,,,,,,,,,,,,,,,,,,,,,,,,,,,,,,,518.215975374,526.6713641950003,,,,,,,,,,,,,,,,,,,,,,,,,,,,,,,,,,,,,,,,,,,,,,,,,,,,,092021,0,3,2,3,0,1,1,0,18,2021_Sep_20_0934,listening_fmri,3.2.4,60.42201770348166,
,1,parcelated_audio/34/34_21.ogg,,,,,,,,,0,0,0,0,0,1,1,1,0,0,0,0,,,,,,,,,0,0,0,0,0,20,20,20,,,,,,,,,,,,,,,,,,,,,,,,,,,,,,,,,,,,,,,,,,,,,,,,,,,,,,,,,,,,,,,,,,,,,,,,,,,,,,,,,,,,,,,,,,,,,,,,,,,,,,,,,,,,,,,,,,526.671722332,533.0421808369999,,,,,,,,,,,,,,,,,,,,,,,,,,,,,,,,,,,,,,,,,,,,,,,,,,,,,092021,0,3,2,3,0,1,1,0,18,2021_Sep_20_0934,listening_fmri,3.2.4,60.42201770348166,
,1,parcelated_audio/34/34_22.ogg,,,,,,,,,0,0,0,0,0,1,1,1,0,0,0,0,,,,,,,,,0,0,0,0,0,21,21,21,,,,,,,,,,,,,,,,,,,,,,,,,,,,,,,,,,,,,,,,,,,,,,,,,,,,,,,,,,,,,,,,,,,,,,,,,,,,,,,,,,,,,,,,,,,,,,,,,,,,,,,,,,,,,,,,,,533.0425261980001,538.169721345,,,,,,,,,,,,,,,,,,,,,,,,,,,,,,,,,,,,,,,,,,,,,,,,,,,,,092021,0,3,2,3,0,1,1,0,18,2021_Sep_20_0934,listening_fmri,3.2.4,60.42201770348166,
,1,parcelated_audio/34/34_23.ogg,,,,,,,,,0,0,0,0,0,1,1,1,0,0,0,0,,,,,,,,,0,0,0,0,0,22,22,22,,,,,,,,,,,,,,,,,,,,,,,,,,,,,,,,,,,,,,,,,,,,,,,,,,,,,,,,,,,,,,,,,,,,,,,,,,,,,,,,,,,,,,,,,,,,,,,,,,,,,,,,,,,,,,,,,,538.1700767340001,545.9726381100002,,,,,,,,,,,,,,,,,,,,,,,,,,,,,,,,,,,,,,,,,,,,,,,,,,,,,092021,0,3,2,3,0,1,1,0,18,2021_Sep_20_0934,listening_fmri,3.2.4,60.42201770348166,
,1,parcelated_audio/34/34_24.ogg,,,,,,,,,0,0,0,0,0,1,1,1,0,0,0,0,,,,,,,,,0,0,0,0,0,23,23,23,,,,,,,,,,,,,,,,,,,,,,,,,,,,,,,,,,,,,,,,,,,,,,,,,,,,,,,,,,,,,,,,,,,,,,,,,,,,,,,,,,,,,,,,,,,,,,,,,,,,,,,,,,,,,,,,,,545.9746592140002,551.7702859000003,,,,,,,,,,,,,,,,,,,,,,,,,,,,,,,,,,,,,,,,,,,,,,,,,,,,,092021,0,3,2,3,0,1,1,0,18,2021_Sep_20_0934,listening_fmri,3.2.4,60.42201770348166,
,1,parcelated_audio/34/34_25.ogg,,,,,,,,,0,0,0,0,0,1,1,1,0,0,0,0,,,,,,,,,0,0,0,0,0,24,24,24,,,,,,,,,,,,,,,,,,,,,,,,,,,,,,,,,,,,,,,,,,,,,,,,,,,,,,,,,,,,,,,,,,,,,,,,,,,,,,,,,,,,,,,,,,,,,,,,,,,,,,,,,,,,,,,,,,551.7706359690003,558.3286810820002,,,,,,,,,,,,,,,,,,,,,,,,,,,,,,,,,,,,,,,,,,,,,,,,,,,,,092021,0,3,2,3,0,1,1,0,18,2021_Sep_20_0934,listening_fmri,3.2.4,60.42201770348166,
,1,parcelated_audio/34/34_26.ogg,,,,,,,,,0,0,0,0,0,1,1,1,0,0,0,0,,,,,,,,,0,0,0,0,0,25,25,25,,,,,,,,,,,,,,,,,,,,,,,,,,,,,,,,,,,,,,,,,,,,,,,,,,,,,,,,,,,,,,,,,,,,,,,,,,,,,,,,,,,,,,,,,,,,,,,,,,,,,,,,,,,,,,,,,,558.3290275460001,567.980395324,,,,,,,,,,,,,,,,,,,,,,,,,,,,,,,,,,,,,,,,,,,,,,,,,,,,,092021,0,3,2,3,0,1,1,0,18,2021_Sep_20_0934,listening_fmri,3.2.4,60.42201770348166,
,1,parcelated_audio/34/34_27.ogg,,,,,,,,,0,0,0,0,0,1,1,1,0,0,0,0,,,,,,,,,0,0,0,0,0,26,26,26,,,,,,,,,,,,,,,,,,,,,,,,,,,,,,,,,,,,,,,,,,,,,,,,,,,,,,,,,,,,,,,,,,,,,,,,,,,,,,,,,,,,,,,,,,,,,,,,,,,,,,,,,,,,,,,,,,567.9807499410001,575.4774935500002,,,,,,,,,,,,,,,,,,,,,,,,,,,,,,,,,,,,,,,,,,,,,,,,,,,,,092021,0,3,2,3,0,1,1,0,18,2021_Sep_20_0934,listening_fmri,3.2.4,60.42201770348166,
,1,,,,,,,,,,0,0,0,0,0,1,1,1,0,0,0,0,,,,,,,,,0,0,0,0,,,,,,,,,,,,,,,,,,,,,,,,,,,,,,,,,,,,,,,,,,,,,,,,,,,,,,,,,,,,,,,,,,,,,,,,,,,,,,,,,,,,,,,,,,,,,,,,,,,,,,,,,,,,,,,,,,,,,,,,,,,,,,,,,,,,,,,,,,,,,,,,,,,,,,,,,,,,,,,,,,,,,,,,,,,,092021,0,3,2,3,0,1,1,0,18,2021_Sep_20_0934,listening_fmri,3.2.4,60.42201770348166,
,,,,,,,,,,,,,,,,,,,,,,,,,,,,,,,,,,,,,,,,,,,,,,,,,,,,,,,,,,,,,,,,,,,,,,,,,,,,,,,,,,,,,,,,,,,,,,,,,,,,,,,,,,,,,,,,,,,,,,,,,,,,,,,,,,575.4778772050001,581.475316667,765.5278550610001,None,,,,,,,,,,,,,,,,,,,,,771.5281929520002,None,771.5281929520002,None,,,,,,,,,,,,,,,,,,,,,,,,,,,,,,,,,,,,,,,,,,,,,,,,,,,,,,,,,,,,,,,
﻿instructions,count,audio,trials_14.thisRepN,trials_14.thisTrialN,trials_14.thisN,trials_14.thisIndex,trials_13.thisRepN,trials_13.thisTrialN,trials_13.thisN,trials_13.thisIndex,trials_3.thisRepN,trials_3.thisTrialN,trials_3.thisN,trials_3.thisIndex,Block1.thisRepN,Block1.thisTrialN,Block1.thisN,Block1.thisIndex,trials_5.thisRepN,trials_5.thisTrialN,trials_5.thisN,trials_5.thisIndex,trials.thisRepN,trials.thisTrialN,trials.thisN,trials.thisIndex,trials_2.thisRepN,trials_2.thisTrialN,trials_2.thisN,trials_2.thisIndex,trials_22.thisRepN,trials_22.thisTrialN,trials_22.thisN,trials_22.thisIndex,trials_16.thisRepN,trials_16.thisTrialN,trials_16.thisN,trials_16.thisIndex,trials_23.thisRepN,trials_23.thisTrialN,trials_23.thisN,trials_23.thisIndex,trials_7.thisRepN,trials_7.thisTrialN,trials_7.thisN,trials_7.thisIndex,story_list_block1,action_list_block1,key_resp_5.keys,key_resp_5.rt,key_resp_5.started,key_resp_5.stopped,text_87.started,text_87.stopped,text_88.started,text_88.stopped,key_resp_31.keys,key_resp_31.rt,key_resp_31.started,key_resp_31.stopped,text_89.started,text_89.stopped,image_27.started,image_27.stopped,text_97.started,text_97.stopped,image_24.started,image_24.stopped,key_resp_21.keys,key_resp_21.rt,key_resp_21.started,key_resp_21.stopped,text_78.started,text_78.stopped,text_96.started,text_96.stopped,image_28.started,image_28.stopped,key_resp_36.keys,key_resp_36.rt,key_resp_36.started,key_resp_36.stopped,text_94.started,text_94.stopped,text_95.started,text_95.stopped,text_90.started,text_90.stopped,key_resp_32.keys,key_resp_32.rt,key_resp_32.started,key_resp_32.stopped,text_91.started,text_91.stopped,key_resp_33.keys,key_resp_33.rt,key_resp_33.started,key_resp_33.stopped,text_92.started,text_92.stopped,key_resp_34.keys,key_resp_34.rt,key_resp_34.started,key_resp_34.stopped,text_93.started,text_93.stopped,key_resp_35.keys,key_resp_35.rt,key_resp_35.started,key_resp_35.stopped,text_98.started,text_98.stopped,text_99.started,text_99.stopped,key_resp_37.keys,key_resp_37.rt,key_resp_37.started,key_resp_37.stopped,textTrigger.started,textTrigger.stopped,getTrigger.keys,getTrigger.rt,getTrigger.started,getTrigger.stopped,triggerTime,text_76.started,text_76.stopped,text_77.started,text_77.stopped,startWait,endWait,image_23.started,image_23.stopped,text_38.started,text_38.stopped,key_resp_8.keys,key_resp_8.rt,key_resp_8.started,key_resp_8.stopped,text_39.started,text_39.stopped,text.started,text.stopped,text_50.started,text_50.stopped,key_resp_14.keys,key_resp_14.rt,key_resp_14.started,key_resp_14.stopped,storyImage_StartTime,storyImage_EndTime,clip_StartTime,clip_EndTime,text_6.started,text_6.stopped,text_52.started,text_52.stopped,text_33.started,text_33.stopped,key_resp_30.keys,key_resp_30.rt,key_resp_30.started,key_resp_30.stopped,text_79.started,text_79.stopped,text_4.started,text_4.stopped,image.started,image.stopped,text_5.started,text_5.stopped,key_resp_22.keys,key_resp_22.rt,key_resp_22.started,key_resp_22.stopped,text_37.started,text_37.stopped,key_resp_7.keys,key_resp_7.rt,key_resp_7.started,key_resp_7.stopped,text_80.started,text_80.stopped,question1_3.started,question1_3.stopped,question2_3.started,question2_3.stopped,question3_3.started,question3_3.stopped,question4_3.started,question4_3.stopped,question5_3.started,question5_3.stopped,question6_3.started,question6_3.stopped,image_16.started,image_16.stopped,text_49.started,text_49.stopped,key_resp_15.keys,key_resp_15.rt,key_resp_15.started,key_resp_15.stopped,text_81.started,text_81.stopped,participant,sA,sB,lA,lB,block_struct,play_stories,block,behavioral,random_seed,date,expName,psychopyVersion,frameRate,
Welcome to the story listening part of the experiment. ,,,0,0,0,0,0,0,0,0,,,,,,,,,,,,,,,,,,,,,,,,,,,,,,,,,,,,,[32 34 41 43 14 12 23 21],[4 2 1 3 3 1 2 4],7,3.1197048580002047,12.387838953000028,None,12.387838953000028,None,12.387838953000028,None,,,,,,,,,,,,,,,,,,,,,,,,,,,,,,,,,,,,,,,,,,,,,,,,,,,,,,,,,,,,,,,,,,,,,,,,,,,,,,,,,,,,,,,,,,,,,,,,,,,,,,,,,,,,,,,,,,,,,,,,,,,,,,,,,,,,,,,,,,,,,,,,,,,,,,092021,0,3,2,3,0,1,1,0,18,2021_Sep_20_0934,listening_fmri,3.2.4,60.42201770348166,
"As a reminder, you will listen to 12 short stories.",,,0,0,0,0,0,1,1,1,,,,,,,,,,,,,,,,,,,,,,,,,,,,,,,,,,,,,,,7,6.03962308600012,15.536905595999997,None,15.536905595999997,None,15.536905595999997,None,,,,,,,,,,,,,,,,,,,,,,,,,,,,,,,,,,,,,,,,,,,,,,,,,,,,,,,,,,,,,,,,,,,,,,,,,,,,,,,,,,,,,,,,,,,,,,,,,,,,,,,,,,,,,,,,,,,,,,,,,,,,,,,,,,,,,,,,,,,,,,,,,,,,,,092021,0,3,2,3,0,1,1,0,18,2021_Sep_20_0934,listening_fmri,3.2.4,60.42201770348166,
These stories will be divided into 2 blocks of 6 stories.,,,0,0,0,0,0,2,2,2,,,,,,,,,,,,,,,,,,,,,,,,,,,,,,,,,,,,,,,7,3.7845082639998964,21.621007914000074,None,21.621007914000074,None,21.621007914000074,None,,,,,,,,,,,,,,,,,,,,,,,,,,,,,,,,,,,,,,,,,,,,,,,,,,,,,,,,,,,,,,,,,,,,,,,,,,,,,,,,,,,,,,,,,,,,,,,,,,,,,,,,,,,,,,,,,,,,,,,,,,,,,,,,,,,,,,,,,,,,,,,,,,,,,,092021,0,3,2,3,0,1,1,0,18,2021_Sep_20_0934,listening_fmri,3.2.4,60.42201770348166,
"Before some of the stories, we will ask you to take on the perspective of a job. ",,,0,0,0,0,0,3,3,3,,,,,,,,,,,,,,,,,,,,,,,,,,,,,,,,,,,,,,,7,5.142251822999924,25.426345991000062,None,25.426345991000062,None,25.426345991000062,None,,,,,,,,,,,,,,,,,,,,,,,,,,,,,,,,,,,,,,,,,,,,,,,,,,,,,,,,,,,,,,,,,,,,,,,,,,,,,,,,,,,,,,,,,,,,,,,,,,,,,,,,,,,,,,,,,,,,,,,,,,,,,,,,,,,,,,,,,,,,,,,,,,,,,,092021,0,3,2,3,0,1,1,0,18,2021_Sep_20_0934,listening_fmri,3.2.4,60.42201770348166,
Please “simulate” this job while you listen to the story that follows.,,,0,0,0,0,0,4,4,4,,,,,,,,,,,,,,,,,,,,,,,,,,,,,,,,,,,,,,,7,3.415779480000083,30.593799481000133,None,30.593799481000133,None,30.593799481000133,None,,,,,,,,,,,,,,,,,,,,,,,,,,,,,,,,,,,,,,,,,,,,,,,,,,,,,,,,,,,,,,,,,,,,,,,,,,,,,,,,,,,,,,,,,,,,,,,,,,,,,,,,,,,,,,,,,,,,,,,,,,,,,,,,,,,,,,,,,,,,,,,,,,,,,,092021,0,3,2,3,0,1,1,0,18,2021_Sep_20_0934,listening_fmri,3.2.4,60.42201770348166,
"Before you begin, we will go over how to use the button box:",,,0,0,0,0,0,5,5,5,,,,,,,,,,,,,,,,,,,,,,,,,,,,,,,,,,,,,,,2,4.428942515000017,34.03775104900001,None,34.03775104900001,None,34.03775104900001,None,,,,,,,,,,,,,,,,,,,,,,,,,,,,,,,,,,,,,,,,,,,,,,,,,,,,,,,,,,,,,,,,,,,,,,,,,,,,,,,,,,,,,,,,,,,,,,,,,,,,,,,,,,,,,,,,,,,,,,,,,,,,,,,,,,,,,,,,,,,,,,,,,,,,,,092021,0,3,2,3,0,1,1,0,18,2021_Sep_20_0934,listening_fmri,3.2.4,60.42201770348166,
"In this experiment, you'll use the first three fingers on each hand to do the quizzes and advance through the experiment. ",,,0,0,0,0,0,6,6,6,,,,,,,,,,,,,,,,,,,,,,,,,,,,,,,,,,,,,,,7,4.826545446999944,38.49324960600006,None,38.49324960600006,None,38.49324960600006,None,,,,,,,,,,,,,,,,,,,,,,,,,,,,,,,,,,,,,,,,,,,,,,,,,,,,,,,,,,,,,,,,,,,,,,,,,,,,,,,,,,,,,,,,,,,,,,,,,,,,,,,,,,,,,,,,,,,,,,,,,,,,,,,,,,,,,,,,,,,,,,,,,,,,,,092021,0,3,2,3,0,1,1,0,18,2021_Sep_20_0934,listening_fmri,3.2.4,60.42201770348166,
,,,0,0,0,0,,,,,,,,,,,,,,,,,,,,,,,,,,,,,,,,,,,,,,,,,,,,,,,,,,,7,8.07146739399991,43.337108280000166,None,43.337108280000166,None,43.337108280000166,None,43.337108280000166,None,51.43737952100014,None,1,5.928323173000081,51.43737952100014,None,51.43737952100014,None,51.43737952100014,None,51.43737952100014,None,3,4.13675280099983,57.39296926099996,None,57.39296926099996,None,57.39296926099996,None,61.56046796600003,None,1,1.8572323070000039,61.56046796600003,None,63.44365475100017,None,8,1.03005572699999,63.44365475100017,None,64.49365637699998,None,6,0.8740639419997933,64.49365637699998,None,65.39363399400008,None,2,1.2009201240000493,65.39363399400008,None,66.62652735400002,None,66.62652735400002,None,7,2.375132089999852,66.62652735400002,None,,,,,,,,,,,,,,,,,,,,,,,,,,,,,,,,,,,,,,,,,,,,,,,,,,,,,,,,,,,,,,,,,,,,,,,,,,,,,,,,,,,,,,,,092021,0,3,2,3,0,1,1,0,18,2021_Sep_20_0934,listening_fmri,3.2.4,60.42201770348166,
,0,parcelated_audio/32/32_1.ogg,,,,,,,,,0,0,0,0,0,0,0,0,0,0,0,0,,,,,,,,,0,0,0,0,0,0,0,0,,,,,,,,,,,,,,,,,,,,,,,,,,,,,,,,,,,,,,,,,,,,,,,,,,,,,,,,,,,,,,,,,,,,,,,,,,,,,,,,,69.02676151800006,None,equal,121.00693497500015,69.02676151800006,None,177.673308399,69.02676151800006,None,69.02676151800006,None,0.0003513920000841608,5.991303106000032,190.0441812480001,None,196.05240288799996,None,8,1.8222160180000628,196.05240288799996,None,196.05240288799996,None,196.05240288799996,None,197.89435469199998,None,6,6.0312257670000236,197.89435469199998,None,13.906076350000149,16.90765289900014,16.913971533999984,28.29364032400008,,,,,,,,,,,,,,,,,,,,,,,,,,,,,,,,,,,,,,,,,,,,,,,,,,,,,092021,0,3,2,3,0,1,1,0,18,2021_Sep_20_0934,listening_fmri,3.2.4,60.42201770348166,
,0,parcelated_audio/32/32_2.ogg,,,,,,,,,0,0,0,0,0,0,0,0,0,0,0,0,,,,,,,,,0,0,0,0,0,1,1,1,,,,,,,,,,,,,,,,,,,,,,,,,,,,,,,,,,,,,,,,,,,,,,,,,,,,,,,,,,,,,,,,,,,,,,,,,,,,,,,,,,,,,,,,,,,,,,,,,,,,,,,,,,,,,,,,,,28.293996835000144,36.616321176000156,,,,,,,,,,,,,,,,,,,,,,,,,,,,,,,,,,,,,,,,,,,,,,,,,,,,,092021,0,3,2,3,0,1,1,0,18,2021_Sep_20_0934,listening_fmri,3.2.4,60.42201770348166,
,0,parcelated_audio/32/32_3.ogg,,,,,,,,,0,0,0,0,0,0,0,0,0,0,0,0,,,,,,,,,0,0,0,0,0,2,2,2,,,,,,,,,,,,,,,,,,,,,,,,,,,,,,,,,,,,,,,,,,,,,,,,,,,,,,,,,,,,,,,,,,,,,,,,,,,,,,,,,,,,,,,,,,,,,,,,,,,,,,,,,,,,,,,,,,36.61670250100019,42.20237371799999,,,,,,,,,,,,,,,,,,,,,,,,,,,,,,,,,,,,,,,,,,,,,,,,,,,,,092021,0,3,2,3,0,1,1,0,18,2021_Sep_20_0934,listening_fmri,3.2.4,60.42201770348166,
,0,parcelated_audio/32/32_4.ogg,,,,,,,,,0,0,0,0,0,0,0,0,0,0,0,0,,,,,,,,,0,0,0,0,0,3,3,3,,,,,,,,,,,,,,,,,,,,,,,,,,,,,,,,,,,,,,,,,,,,,,,,,,,,,,,,,,,,,,,,,,,,,,,,,,,,,,,,,,,,,,,,,,,,,,,,,,,,,,,,,,,,,,,,,,42.2027135310002,48.88533760900009,,,,,,,,,,,,,,,,,,,,,,,,,,,,,,,,,,,,,,,,,,,,,,,,,,,,,092021,0,3,2,3,0,1,1,0,18,2021_Sep_20_0934,listening_fmri,3.2.4,60.42201770348166,
,0,parcelated_audio/32/32_5.ogg,,,,,,,,,0,0,0,0,0,0,0,0,0,0,0,0,,,,,,,,,0,0,0,0,0,4,4,4,,,,,,,,,,,,,,,,,,,,,,,,,,,,,,,,,,,,,,,,,,,,,,,,,,,,,,,,,,,,,,,,,,,,,,,,,,,,,,,,,,,,,,,,,,,,,,,,,,,,,,,,,,,,,,,,,,48.88565950500015,60.58448858100019,,,,,,,,,,,,,,,,,,,,,,,,,,,,,,,,,,,,,,,,,,,,,,,,,,,,,092021,0,3,2,3,0,1,1,0,18,2021_Sep_20_0934,listening_fmri,3.2.4,60.42201770348166,
,0,parcelated_audio/32/32_6.ogg,,,,,,,,,0,0,0,0,0,0,0,0,0,0,0,0,,,,,,,,,0,0,0,0,0,5,5,5,,,,,,,,,,,,,,,,,,,,,,,,,,,,,,,,,,,,,,,,,,,,,,,,,,,,,,,,,,,,,,,,,,,,,,,,,,,,,,,,,,,,,,,,,,,,,,,,,,,,,,,,,,,,,,,,,,60.58491531000004,69.0631291950001,,,,,,,,,,,,,,,,,,,,,,,,,,,,,,,,,,,,,,,,,,,,,,,,,,,,,092021,0,3,2,3,0,1,1,0,18,2021_Sep_20_0934,listening_fmri,3.2.4,60.42201770348166,
,0,parcelated_audio/32/32_7.ogg,,,,,,,,,0,0,0,0,0,0,0,0,0,0,0,0,,,,,,,,,0,0,0,0,0,6,6,6,,,,,,,,,,,,,,,,,,,,,,,,,,,,,,,,,,,,,,,,,,,,,,,,,,,,,,,,,,,,,,,,,,,,,,,,,,,,,,,,,,,,,,,,,,,,,,,,,,,,,,,,,,,,,,,,,,69.06447594600013,72.45249912899999,,,,,,,,,,,,,,,,,,,,,,,,,,,,,,,,,,,,,,,,,,,,,,,,,,,,,092021,0,3,2,3,0,1,1,0,18,2021_Sep_20_0934,listening_fmri,3.2.4,60.42201770348166,
,0,parcelated_audio/32/32_8.ogg,,,,,,,,,0,0,0,0,0,0,0,0,0,0,0,0,,,,,,,,,0,0,0,0,0,7,7,7,,,,,,,,,,,,,,,,,,,,,,,,,,,,,,,,,,,,,,,,,,,,,,,,,,,,,,,,,,,,,,,,,,,,,,,,,,,,,,,,,,,,,,,,,,,,,,,,,,,,,,,,,,,,,,,,,,72.45278023900005,76.92066366500012,,,,,,,,,,,,,,,,,,,,,,,,,,,,,,,,,,,,,,,,,,,,,,,,,,,,,092021,0,3,2,3,0,1,1,0,18,2021_Sep_20_0934,listening_fmri,3.2.4,60.42201770348166,
,0,parcelated_audio/32/32_9.ogg,,,,,,,,,0,0,0,0,0,0,0,0,0,0,0,0,,,,,,,,,0,0,0,0,0,8,8,8,,,,,,,,,,,,,,,,,,,,,,,,,,,,,,,,,,,,,,,,,,,,,,,,,,,,,,,,,,,,,,,,,,,,,,,,,,,,,,,,,,,,,,,,,,,,,,,,,,,,,,,,,,,,,,,,,,76.92110615600018,85.59648970100011,,,,,,,,,,,,,,,,,,,,,,,,,,,,,,,,,,,,,,,,,,,,,,,,,,,,,092021,0,3,2,3,0,1,1,0,18,2021_Sep_20_0934,listening_fmri,3.2.4,60.42201770348166,
,0,parcelated_audio/32/32_10.ogg,,,,,,,,,0,0,0,0,0,0,0,0,0,0,0,0,,,,,,,,,0,0,0,0,0,9,9,9,,,,,,,,,,,,,,,,,,,,,,,,,,,,,,,,,,,,,,,,,,,,,,,,,,,,,,,,,,,,,,,,,,,,,,,,,,,,,,,,,,,,,,,,,,,,,,,,,,,,,,,,,,,,,,,,,,85.596796455,90.276188778,,,,,,,,,,,,,,,,,,,,,,,,,,,,,,,,,,,,,,,,,,,,,,,,,,,,,092021,0,3,2,3,0,1,1,0,18,2021_Sep_20_0934,listening_fmri,3.2.4,60.42201770348166,
,0,parcelated_audio/32/32_11.ogg,,,,,,,,,0,0,0,0,0,0,0,0,0,0,0,0,,,,,,,,,0,0,0,0,0,10,10,10,,,,,,,,,,,,,,,,,,,,,,,,,,,,,,,,,,,,,,,,,,,,,,,,,,,,,,,,,,,,,,,,,,,,,,,,,,,,,,,,,,,,,,,,,,,,,,,,,,,,,,,,,,,,,,,,,,90.2765899330002,96.36436007900011,,,,,,,,,,,,,,,,,,,,,,,,,,,,,,,,,,,,,,,,,,,,,,,,,,,,,092021,0,3,2,3,0,1,1,0,18,2021_Sep_20_0934,listening_fmri,3.2.4,60.42201770348166,
,0,parcelated_audio/32/32_12.ogg,,,,,,,,,0,0,0,0,0,0,0,0,0,0,0,0,,,,,,,,,0,0,0,0,0,11,11,11,,,,,,,,,,,,,,,,,,,,,,,,,,,,,,,,,,,,,,,,,,,,,,,,,,,,,,,,,,,,,,,,,,,,,,,,,,,,,,,,,,,,,,,,,,,,,,,,,,,,,,,,,,,,,,,,,,96.36487995100015,105.81010782600015,,,,,,,,,,,,,,,,,,,,,,,,,,,,,,,,,,,,,,,,,,,,,,,,,,,,,092021,0,3,2,3,0,1,1,0,18,2021_Sep_20_0934,listening_fmri,3.2.4,60.42201770348166,
,0,parcelated_audio/32/32_13.ogg,,,,,,,,,0,0,0,0,0,0,0,0,0,0,0,0,,,,,,,,,0,0,0,0,0,12,12,12,,,,,,,,,,,,,,,,,,,,,,,,,,,,,,,,,,,,,,,,,,,,,,,,,,,,,,,,,,,,,,,,,,,,,,,,,,,,,,,,,,,,,,,,,,,,,,,,,,,,,,,,,,,,,,,,,,105.810587639,115.42562397100005,,,,,,,,,,,,,,,,,,,,,,,,,,,,,,,,,,,,,,,,,,,,,,,,,,,,,092021,0,3,2,3,0,1,1,0,18,2021_Sep_20_0934,listening_fmri,3.2.4,60.42201770348166,
,0,parcelated_audio/32/32_14.ogg,,,,,,,,,0,0,0,0,0,0,0,0,0,0,0,0,,,,,,,,,0,0,0,0,0,13,13,13,,,,,,,,,,,,,,,,,,,,,,,,,,,,,,,,,,,,,,,,,,,,,,,,,,,,,,,,,,,,,,,,,,,,,,,,,,,,,,,,,,,,,,,,,,,,,,,,,,,,,,,,,,,,,,,,,,115.42597533600019,123.5114678880002,,,,,,,,,,,,,,,,,,,,,,,,,,,,,,,,,,,,,,,,,,,,,,,,,,,,,092021,0,3,2,3,0,1,1,0,18,2021_Sep_20_0934,listening_fmri,3.2.4,60.42201770348166,
,0,parcelated_audio/32/32_15.ogg,,,,,,,,,0,0,0,0,0,0,0,0,0,0,0,0,,,,,,,,,0,0,0,0,0,14,14,14,,,,,,,,,,,,,,,,,,,,,,,,,,,,,,,,,,,,,,,,,,,,,,,,,,,,,,,,,,,,,,,,,,,,,,,,,,,,,,,,,,,,,,,,,,,,,,,,,,,,,,,,,,,,,,,,,,123.51182023900014,130.3935070030002,,,,,,,,,,,,,,,,,,,,,,,,,,,,,,,,,,,,,,,,,,,,,,,,,,,,,092021,0,3,2,3,0,1,1,0,18,2021_Sep_20_0934,listening_fmri,3.2.4,60.42201770348166,
,0,parcelated_audio/32/32_16.ogg,,,,,,,,,0,0,0,0,0,0,0,0,0,0,0,0,,,,,,,,,0,0,0,0,0,15,15,15,,,,,,,,,,,,,,,,,,,,,,,,,,,,,,,,,,,,,,,,,,,,,,,,,,,,,,,,,,,,,,,,,,,,,,,,,,,,,,,,,,,,,,,,,,,,,,,,,,,,,,,,,,,,,,,,,,130.39385587000015,137.99957460400014,,,,,,,,,,,,,,,,,,,,,,,,,,,,,,,,,,,,,,,,,,,,,,,,,,,,,092021,0,3,2,3,0,1,1,0,18,2021_Sep_20_0934,listening_fmri,3.2.4,60.42201770348166,
,0,parcelated_audio/32/32_17.ogg,,,,,,,,,0,0,0,0,0,0,0,0,0,0,0,0,,,,,,,,,0,0,0,0,0,16,16,16,,,,,,,,,,,,,,,,,,,,,,,,,,,,,,,,,,,,,,,,,,,,,,,,,,,,,,,,,,,,,,,,,,,,,,,,,,,,,,,,,,,,,,,,,,,,,,,,,,,,,,,,,,,,,,,,,,137.9999207630001,146.30592941999998,,,,,,,,,,,,,,,,,,,,,,,,,,,,,,,,,,,,,,,,,,,,,,,,,,,,,092021,0,3,2,3,0,1,1,0,18,2021_Sep_20_0934,listening_fmri,3.2.4,60.42201770348166,
,0,parcelated_audio/32/32_18.ogg,,,,,,,,,0,0,0,0,0,0,0,0,0,0,0,0,,,,,,,,,0,0,0,0,0,17,17,17,,,,,,,,,,,,,,,,,,,,,,,,,,,,,,,,,,,,,,,,,,,,,,,,,,,,,,,,,,,,,,,,,,,,,,,,,,,,,,,,,,,,,,,,,,,,,,,,,,,,,,,,,,,,,,,,,,146.30644343200015,150.6207169600002,,,,,,,,,,,,,,,,,,,,,,,,,,,,,,,,,,,,,,,,,,,,,,,,,,,,,092021,0,3,2,3,0,1,1,0,18,2021_Sep_20_0934,listening_fmri,3.2.4,60.42201770348166,
,0,parcelated_audio/32/32_19.ogg,,,,,,,,,0,0,0,0,0,0,0,0,0,0,0,0,,,,,,,,,0,0,0,0,0,18,18,18,,,,,,,,,,,,,,,,,,,,,,,,,,,,,,,,,,,,,,,,,,,,,,,,,,,,,,,,,,,,,,,,,,,,,,,,,,,,,,,,,,,,,,,,,,,,,,,,,,,,,,,,,,,,,,,,,,150.62107693400003,158.67016313400018,,,,,,,,,,,,,,,,,,,,,,,,,,,,,,,,,,,,,,,,,,,,,,,,,,,,,092021,0,3,2,3,0,1,1,0,18,2021_Sep_20_0934,listening_fmri,3.2.4,60.42201770348166,
,0,parcelated_audio/32/32_20.ogg,,,,,,,,,0,0,0,0,0,0,0,0,0,0,0,0,,,,,,,,,0,0,0,0,0,19,19,19,,,,,,,,,,,,,,,,,,,,,,,,,,,,,,,,,,,,,,,,,,,,,,,,,,,,,,,,,,,,,,,,,,,,,,,,,,,,,,,,,,,,,,,,,,,,,,,,,,,,,,,,,,,,,,,,,,158.6704641220001,169.56488316100013,,,,,,,,,,,,,,,,,,,,,,,,,,,,,,,,,,,,,,,,,,,,,,,,,,,,,092021,0,3,2,3,0,1,1,0,18,2021_Sep_20_0934,listening_fmri,3.2.4,60.42201770348166,
,0,parcelated_audio/32/32_21.ogg,,,,,,,,,0,0,0,0,0,0,0,0,0,0,0,0,,,,,,,,,0,0,0,0,0,20,20,20,,,,,,,,,,,,,,,,,,,,,,,,,,,,,,,,,,,,,,,,,,,,,,,,,,,,,,,,,,,,,,,,,,,,,,,,,,,,,,,,,,,,,,,,,,,,,,,,,,,,,,,,,,,,,,,,,,169.5654010180001,178.43837847700001,,,,,,,,,,,,,,,,,,,,,,,,,,,,,,,,,,,,,,,,,,,,,,,,,,,,,092021,0,3,2,3,0,1,1,0,18,2021_Sep_20_0934,listening_fmri,3.2.4,60.42201770348166,
,0,parcelated_audio/32/32_22.ogg,,,,,,,,,0,0,0,0,0,0,0,0,0,0,0,0,,,,,,,,,0,0,0,0,0,21,21,21,,,,,,,,,,,,,,,,,,,,,,,,,,,,,,,,,,,,,,,,,,,,,,,,,,,,,,,,,,,,,,,,,,,,,,,,,,,,,,,,,,,,,,,,,,,,,,,,,,,,,,,,,,,,,,,,,,178.4387870930002,192.47684282,,,,,,,,,,,,,,,,,,,,,,,,,,,,,,,,,,,,,,,,,,,,,,,,,,,,,092021,0,3,2,3,0,1,1,0,18,2021_Sep_20_0934,listening_fmri,3.2.4,60.42201770348166,
,0,parcelated_audio/32/32_23.ogg,,,,,,,,,0,0,0,0,0,0,0,0,0,0,0,0,,,,,,,,,0,0,0,0,0,22,22,22,,,,,,,,,,,,,,,,,,,,,,,,,,,,,,,,,,,,,,,,,,,,,,,,,,,,,,,,,,,,,,,,,,,,,,,,,,,,,,,,,,,,,,,,,,,,,,,,,,,,,,,,,,,,,,,,,,192.4771066830001,201.520662485,,,,,,,,,,,,,,,,,,,,,,,,,,,,,,,,,,,,,,,,,,,,,,,,,,,,,092021,0,3,2,3,0,1,1,0,18,2021_Sep_20_0934,listening_fmri,3.2.4,60.42201770348166,
,0,parcelated_audio/32/32_24.ogg,,,,,,,,,0,0,0,0,0,0,0,0,0,0,0,0,,,,,,,,,0,0,0,0,0,23,23,23,,,,,,,,,,,,,,,,,,,,,,,,,,,,,,,,,,,,,,,,,,,,,,,,,,,,,,,,,,,,,,,,,,,,,,,,,,,,,,,,,,,,,,,,,,,,,,,,,,,,,,,,,,,,,,,,,,201.521001178,212.81819454700008,,,,,,,,,,,,,,,,,,,,,,,,,,,,,,,,,,,,,,,,,,,,,,,,,,,,,092021,0,3,2,3,0,1,1,0,18,2021_Sep_20_0934,listening_fmri,3.2.4,60.42201770348166,
,0,parcelated_audio/32/32_25.ogg,,,,,,,,,0,0,0,0,0,0,0,0,0,0,0,0,,,,,,,,,0,0,0,0,0,24,24,24,,,,,,,,,,,,,,,,,,,,,,,,,,,,,,,,,,,,,,,,,,,,,,,,,,,,,,,,,,,,,,,,,,,,,,,,,,,,,,,,,,,,,,,,,,,,,,,,,,,,,,,,,,,,,,,,,,212.81860198100003,218.8791258450001,,,,,,,,,,,,,,,,,,,,,,,,,,,,,,,,,,,,,,,,,,,,,,,,,,,,,092021,0,3,2,3,0,1,1,0,18,2021_Sep_20_0934,listening_fmri,3.2.4,60.42201770348166,
,0,parcelated_audio/32/32_26.ogg,,,,,,,,,0,0,0,0,0,0,0,0,0,0,0,0,,,,,,,,,0,0,0,0,0,25,25,25,,,,,,,,,,,,,,,,,,,,,,,,,,,,,,,,,,,,,,,,,,,,,,,,,,,,,,,,,,,,,,,,,,,,,,,,,,,,,,,,,,,,,,,,,,,,,,,,,,,,,,,,,,,,,,,,,,218.8794003070002,232.2315285420002,,,,,,,,,,,,,,,,,,,,,,,,,,,,,,,,,,,,,,,,,,,,,,,,,,,,,092021,0,3,2,3,0,1,1,0,18,2021_Sep_20_0934,listening_fmri,3.2.4,60.42201770348166,
,0,parcelated_audio/32/32_27.ogg,,,,,,,,,0,0,0,0,0,0,0,0,0,0,0,0,,,,,,,,,0,0,0,0,0,26,26,26,,,,,,,,,,,,,,,,,,,,,,,,,,,,,,,,,,,,,,,,,,,,,,,,,,,,,,,,,,,,,,,,,,,,,,,,,,,,,,,,,,,,,,,,,,,,,,,,,,,,,,,,,,,,,,,,,,232.23188881600004,239.19372656300015,,,,,,,,,,,,,,,,,,,,,,,,,,,,,,,,,,,,,,,,,,,,,,,,,,,,,092021,0,3,2,3,0,1,1,0,18,2021_Sep_20_0934,listening_fmri,3.2.4,60.42201770348166,
,0,parcelated_audio/32/32_28.ogg,,,,,,,,,0,0,0,0,0,0,0,0,0,0,0,0,,,,,,,,,0,0,0,0,0,27,27,27,,,,,,,,,,,,,,,,,,,,,,,,,,,,,,,,,,,,,,,,,,,,,,,,,,,,,,,,,,,,,,,,,,,,,,,,,,,,,,,,,,,,,,,,,,,,,,,,,,,,,,,,,,,,,,,,,,239.194280724,245.8923692530002,,,,,,,,,,,,,,,,,,,,,,,,,,,,,,,,,,,,,,,,,,,,,,,,,,,,,092021,0,3,2,3,0,1,1,0,18,2021_Sep_20_0934,listening_fmri,3.2.4,60.42201770348166,
,0,parcelated_audio/32/32_29.ogg,,,,,,,,,0,0,0,0,0,0,0,0,0,0,0,0,,,,,,,,,0,0,0,0,0,28,28,28,,,,,,,,,,,,,,,,,,,,,,,,,,,,,,,,,,,,,,,,,,,,,,,,,,,,,,,,,,,,,,,,,,,,,,,,,,,,,,,,,,,,,,,,,,,,,,,,,,,,,,,,,,,,,,,,,,245.89281366900013,248.552245201,,,,,,,,,,,,,,,,,,,,,,,,,,,,,,,,,,,,,,,,,,,,,,,,,,,,,092021,0,3,2,3,0,1,1,0,18,2021_Sep_20_0934,listening_fmri,3.2.4,60.42201770348166,
,0,parcelated_audio/32/32_30.ogg,,,,,,,,,0,0,0,0,0,0,0,0,0,0,0,0,,,,,,,,,0,0,0,0,0,29,29,29,,,,,,,,,,,,,,,,,,,,,,,,,,,,,,,,,,,,,,,,,,,,,,,,,,,,,,,,,,,,,,,,,,,,,,,,,,,,,,,,,,,,,,,,,,,,,,,,,,,,,,,,,,,,,,,,,,248.55257524700005,255.5824249220002,,,,,,,,,,,,,,,,,,,,,,,,,,,,,,,,,,,,,,,,,,,,,,,,,,,,,092021,0,3,2,3,0,1,1,0,18,2021_Sep_20_0934,listening_fmri,3.2.4,60.42201770348166,
,0,parcelated_audio/32/32_31.ogg,,,,,,,,,0,0,0,0,0,0,0,0,0,0,0,0,,,,,,,,,0,0,0,0,0,30,30,30,,,,,,,,,,,,,,,,,,,,,,,,,,,,,,,,,,,,,,,,,,,,,,,,,,,,,,,,,,,,,,,,,,,,,,,,,,,,,,,,,,,,,,,,,,,,,,,,,,,,,,,,,,,,,,,,,,255.58295050300012,261.9142199180001,,,,,,,,,,,,,,,,,,,,,,,,,,,,,,,,,,,,,,,,,,,,,,,,,,,,,092021,0,3,2,3,0,1,1,0,18,2021_Sep_20_0934,listening_fmri,3.2.4,60.42201770348166,
,0,parcelated_audio/32/32_32.ogg,,,,,,,,,0,0,0,0,0,0,0,0,0,0,0,0,,,,,,,,,0,0,0,0,0,31,31,31,,,,,,,,,,,,,,,,,,,,,,,,,,,,,,,,,,,,,,,,,,,,,,,,,,,,,,,,,,,,,,,,,,,,,,,,,,,,,,,,,,,,,,,,,,,,,,,,,,,,,,,,,,,,,,,,,,261.91474223600017,271.625646964,,,,,,,,,,,,,,,,,,,,,,,,,,,,,,,,,,,,,,,,,,,,,,,,,,,,,092021,0,3,2,3,0,1,1,0,18,2021_Sep_20_0934,listening_fmri,3.2.4,60.42201770348166,
,0,parcelated_audio/32/32_33.ogg,,,,,,,,,0,0,0,0,0,0,0,0,0,0,0,0,,,,,,,,,0,0,0,0,0,32,32,32,,,,,,,,,,,,,,,,,,,,,,,,,,,,,,,,,,,,,,,,,,,,,,,,,,,,,,,,,,,,,,,,,,,,,,,,,,,,,,,,,,,,,,,,,,,,,,,,,,,,,,,,,,,,,,,,,,271.62600230400017,277.3728119440002,,,,,,,,,,,,,,,,,,,,,,,,,,,,,,,,,,,,,,,,,,,,,,,,,,,,,092021,0,3,2,3,0,1,1,0,18,2021_Sep_20_0934,listening_fmri,3.2.4,60.42201770348166,
,0,,,,,,,,,,0,0,0,0,0,0,0,0,0,0,0,0,,,,,,,,,0,0,0,0,,,,,,,,,,,,,,,,,,,,,,,,,,,,,,,,,,,,,,,,,,,,,,,,,,,,,,,,,,,,,,,,,,,,,,,,,,,,,,,,,,,,,,,,,,,,,,,,,,,,,,,,,,,,,,,,,,,,,,,,,,,,,,,,,,,,,,,,,,,,,,,,,,,,,,,,,,,,,,,,,,,,,,,,,,,,092021,0,3,2,3,0,1,1,0,18,2021_Sep_20_0934,listening_fmri,3.2.4,60.42201770348166,
,0,,,,,,,,,,0,0,0,0,0,0,0,0,0,0,0,0,,,,,,,,,,,,,,,,,,,,,,,,,,,,,,,,,,,,,,,,,,,,,,,,,,,,,,,,,,,,,,,,,,,,,,,,,,,,,,,,,,,,,,,,,,,,,,,,,,,,,,,,,,,,277.373310057,283.375394078,467.41459279800006,None,,,,,,,,,,,,,,,,,,,,,473.4277399540001,None,473.4277399540001,None,,,,,,,,,,,,,,,,,,,,,,,,,,,,,,,,,,,,,,,,,,,,,,,,,092021,0,3,2,3,0,1,1,0,18,2021_Sep_20_0934,listening_fmri,3.2.4,60.42201770348166,
,0,,,,,,,,,,0,0,0,0,0,0,0,0,,,,,,,,,,,,,,,,,,,,,,,,,,,,,,,,,,,,,,,,,,,,,,,,,,,,,,,,,,,,,,,,,,,,,,,,,,,,,,,,,,,,,,,,,,,,,,,,,,,,,,,,,,,,,,,,,,,,,,,,,,,,,,,,,,,,,,,,,,,,,,,,,,,,,,,,,,,,,,,,,,,,,,,,,,,,,,,,,,,,,,,,,,,,092021,0,3,2,3,0,1,1,0,18,2021_Sep_20_0934,listening_fmri,3.2.4,60.42201770348166,
,1,,,,,,,,,,0,0,0,0,0,1,1,1,0,0,0,0,0,0,0,0,,,,,,,,,,,,,,,,,0,0,0,0,,,,,,,,,,,,,,,,,,,,,,,,,,,,,,,,,,,,,,,,,,,,,,,,,,,,,,,,,,,,,,,,,,,,,,,,,,,,,,,,,,,,,,,,474.43162035800015,None,1,2.2679687950001153,474.43162035800015,None,474.43162035800015,None,474.43162035800015,None,,,,,,,,,,,,,,,476.7318672460001,None,2,33.66583618000004,476.7318672460001,None,476.7318672460001,None,510.44402540500005,None,510.44402540500005,None,510.44402540500005,None,2,5.465670830999898,510.44402540500005,None,515.927211449,None,2,3.380491079999956,515.927211449,None,515.927211449,None,519.4270614279999,None,519.4270614279999,None,519.4270614279999,None,519.4270614279999,None,519.4270614279999,None,519.4270614279999,None,519.4270614279999,None,,,,,,,,,092021,0,3,2,3,0,1,1,0,18,2021_Sep_20_0934,listening_fmri,3.2.4,60.42201770348166,
,1,,,,,,,,,,0,0,0,0,0,1,1,1,0,0,0,0,0,0,0,0,,,,,,,,,,,,,,,,,1,0,1,0,,,,,,,,,,,,,,,,,,,,,,,,,,,,,,,,,,,,,,,,,,,,,,,,,,,,,,,,,,,,,,,,,,,,,,,,,,,,,,,,,,,,,,,,,,,,,,,,,,,,,,,,,,,,,,,,,,,,,,,,533.8438590119999,None,533.8438590119999,None,533.8438590119999,None,1,1.1618517430001702,533.8438590119999,None,535.027436417,None,7,4.957259470999816,535.027436417,None,535.027436417,None,540.0940846500002,None,540.0940846500002,None,540.0940846500002,None,540.0940846500002,None,540.0940846500002,None,540.0940846500002,None,540.0940846500002,None,,,,,,,,,092021,0,3,2,3,0,1,1,0,18,2021_Sep_20_0934,listening_fmri,3.2.4,60.42201770348166,
,1,,,,,,,,,,0,0,0,0,0,1,1,1,0,0,0,0,0,0,0,0,,,,,,,,,,,,,,,,,,,,,,,,,,,,,,,,,,,,,,,,,,,,,,,,,,,,,,,,,,,,,,,,,,,,,,,,,,,,,,,,,,,,,,,,,,,,,,,,,,,,,,,,,,,,,,,,,,,,,,,,,,,,,,,,,,,,,,,,,,,,569.8110707599999,None,569.8110707599999,None,569.8110707599999,None,1,1.7314814119999937,569.8110707599999,None,,,,,,,,,,,,,,,,,,,,,,,565.7936765970003,None,1,3.977038714000173,565.7936765970003,None,565.7936765970003,None,092021,0,3,2,3,0,1,1,0,18,2021_Sep_20_0934,listening_fmri,3.2.4,60.42201770348166,
,1,parcelated_audio/34/34_1.ogg,,,,,,,,,0,0,0,0,0,1,1,1,0,0,0,0,,,,,,,,,0,0,0,0,0,0,0,0,,,,,,,,,,,,,,,,,,,,,,,,,,,,,,,,,,,,,,,,,,,,,,,,,,,,,,,,,,,,,,,,,,,,,,,,,,,,,,,,,,,,,,,,,,,,,,,,,,,,,,,,,,571.6104179140002,None,1,2.679166688999885,571.6104179140002,None,384.2658992930003,387.2749974290002,387.2806361109999,395.9724994220003,,,,,,,,,,,,,,,,,,,,,,,,,,,,,,,,,,,,,,,,,,,,,,,,,,,,,092021,0,3,2,3,0,1,1,0,18,2021_Sep_20_0934,listening_fmri,3.2.4,60.42201770348166,
,1,parcelated_audio/34/34_2.ogg,,,,,,,,,0,0,0,0,0,1,1,1,0,0,0,0,,,,,,,,,0,0,0,0,0,1,1,1,,,,,,,,,,,,,,,,,,,,,,,,,,,,,,,,,,,,,,,,,,,,,,,,,,,,,,,,,,,,,,,,,,,,,,,,,,,,,,,,,,,,,,,,,,,,,,,,,,,,,,,,,,,,,,,,,,395.9728583470003,400.5270475540003,,,,,,,,,,,,,,,,,,,,,,,,,,,,,,,,,,,,,,,,,,,,,,,,,,,,,092021,0,3,2,3,0,1,1,0,18,2021_Sep_20_0934,listening_fmri,3.2.4,60.42201770348166,
,1,parcelated_audio/34/34_3.ogg,,,,,,,,,0,0,0,0,0,1,1,1,0,0,0,0,,,,,,,,,0,0,0,0,0,2,2,2,,,,,,,,,,,,,,,,,,,,,,,,,,,,,,,,,,,,,,,,,,,,,,,,,,,,,,,,,,,,,,,,,,,,,,,,,,,,,,,,,,,,,,,,,,,,,,,,,,,,,,,,,,,,,,,,,,400.5273232500001,405.165097198,,,,,,,,,,,,,,,,,,,,,,,,,,,,,,,,,,,,,,,,,,,,,,,,,,,,,092021,0,3,2,3,0,1,1,0,18,2021_Sep_20_0934,listening_fmri,3.2.4,60.42201770348166,
,1,parcelated_audio/34/34_4.ogg,,,,,,,,,0,0,0,0,0,1,1,1,0,0,0,0,,,,,,,,,0,0,0,0,0,3,3,3,,,,,,,,,,,,,,,,,,,,,,,,,,,,,,,,,,,,,,,,,,,,,,,,,,,,,,,,,,,,,,,,,,,,,,,,,,,,,,,,,,,,,,,,,,,,,,,,,,,,,,,,,,,,,,,,,,405.1654865400003,414.785433579,,,,,,,,,,,,,,,,,,,,,,,,,,,,,,,,,,,,,,,,,,,,,,,,,,,,,092021,0,3,2,3,0,1,1,0,18,2021_Sep_20_0934,listening_fmri,3.2.4,60.42201770348166,
,1,parcelated_audio/34/34_5.ogg,,,,,,,,,0,0,0,0,0,1,1,1,0,0,0,0,,,,,,,,,0,0,0,0,0,4,4,4,,,,,,,,,,,,,,,,,,,,,,,,,,,,,,,,,,,,,,,,,,,,,,,,,,,,,,,,,,,,,,,,,,,,,,,,,,,,,,,,,,,,,,,,,,,,,,,,,,,,,,,,,,,,,,,,,,414.7857943360002,425.29809043,,,,,,,,,,,,,,,,,,,,,,,,,,,,,,,,,,,,,,,,,,,,,,,,,,,,,092021,0,3,2,3,0,1,1,0,18,2021_Sep_20_0934,listening_fmri,3.2.4,60.42201770348166,
,1,parcelated_audio/34/34_6.ogg,,,,,,,,,0,0,0,0,0,1,1,1,0,0,0,0,,,,,,,,,0,0,0,0,0,5,5,5,,,,,,,,,,,,,,,,,,,,,,,,,,,,,,,,,,,,,,,,,,,,,,,,,,,,,,,,,,,,,,,,,,,,,,,,,,,,,,,,,,,,,,,,,,,,,,,,,,,,,,,,,,,,,,,,,,425.30070922100026,434.0080764290003,,,,,,,,,,,,,,,,,,,,,,,,,,,,,,,,,,,,,,,,,,,,,,,,,,,,,092021,0,3,2,3,0,1,1,0,18,2021_Sep_20_0934,listening_fmri,3.2.4,60.42201770348166,
,1,parcelated_audio/34/34_7.ogg,,,,,,,,,0,0,0,0,0,1,1,1,0,0,0,0,,,,,,,,,0,0,0,0,0,6,6,6,,,,,,,,,,,,,,,,,,,,,,,,,,,,,,,,,,,,,,,,,,,,,,,,,,,,,,,,,,,,,,,,,,,,,,,,,,,,,,,,,,,,,,,,,,,,,,,,,,,,,,,,,,,,,,,,,,434.00849941599995,439.99997574700024,,,,,,,,,,,,,,,,,,,,,,,,,,,,,,,,,,,,,,,,,,,,,,,,,,,,,092021,0,3,2,3,0,1,1,0,18,2021_Sep_20_0934,listening_fmri,3.2.4,60.42201770348166,
,1,parcelated_audio/34/34_8.ogg,,,,,,,,,0,0,0,0,0,1,1,1,0,0,0,0,,,,,,,,,0,0,0,0,0,7,7,7,,,,,,,,,,,,,,,,,,,,,,,,,,,,,,,,,,,,,,,,,,,,,,,,,,,,,,,,,,,,,,,,,,,,,,,,,,,,,,,,,,,,,,,,,,,,,,,,,,,,,,,,,,,,,,,,,,440.00038222199987,447.9684688210002,,,,,,,,,,,,,,,,,,,,,,,,,,,,,,,,,,,,,,,,,,,,,,,,,,,,,092021,0,3,2,3,0,1,1,0,18,2021_Sep_20_0934,listening_fmri,3.2.4,60.42201770348166,
,1,parcelated_audio/34/34_9.ogg,,,,,,,,,0,0,0,0,0,1,1,1,0,0,0,0,,,,,,,,,0,0,0,0,0,8,8,8,,,,,,,,,,,,,,,,,,,,,,,,,,,,,,,,,,,,,,,,,,,,,,,,,,,,,,,,,,,,,,,,,,,,,,,,,,,,,,,,,,,,,,,,,,,,,,,,,,,,,,,,,,,,,,,,,,447.9688409900002,452.7592731550001,,,,,,,,,,,,,,,,,,,,,,,,,,,,,,,,,,,,,,,,,,,,,,,,,,,,,092021,0,3,2,3,0,1,1,0,18,2021_Sep_20_0934,listening_fmri,3.2.4,60.42201770348166,
,1,parcelated_audio/34/34_10.ogg,,,,,,,,,0,0,0,0,0,1,1,1,0,0,0,0,,,,,,,,,0,0,0,0,0,9,9,9,,,,,,,,,,,,,,,,,,,,,,,,,,,,,,,,,,,,,,,,,,,,,,,,,,,,,,,,,,,,,,,,,,,,,,,,,,,,,,,,,,,,,,,,,,,,,,,,,,,,,,,,,,,,,,,,,,452.75964369100006,459.8766492070001,,,,,,,,,,,,,,,,,,,,,,,,,,,,,,,,,,,,,,,,,,,,,,,,,,,,,092021,0,3,2,3,0,1,1,0,18,2021_Sep_20_0934,listening_fmri,3.2.4,60.42201770348166,
,1,parcelated_audio/34/34_11.ogg,,,,,,,,,0,0,0,0,0,1,1,1,0,0,0,0,,,,,,,,,0,0,0,0,0,10,10,10,,,,,,,,,,,,,,,,,,,,,,,,,,,,,,,,,,,,,,,,,,,,,,,,,,,,,,,,,,,,,,,,,,,,,,,,,,,,,,,,,,,,,,,,,,,,,,,,,,,,,,,,,,,,,,,,,,459.87700967700016,463.3105758170002,,,,,,,,,,,,,,,,,,,,,,,,,,,,,,,,,,,,,,,,,,,,,,,,,,,,,092021,0,3,2,3,0,1,1,0,18,2021_Sep_20_0934,listening_fmri,3.2.4,60.42201770348166,
,1,parcelated_audio/34/34_12.ogg,,,,,,,,,0,0,0,0,0,1,1,1,0,0,0,0,,,,,,,,,0,0,0,0,0,11,11,11,,,,,,,,,,,,,,,,,,,,,,,,,,,,,,,,,,,,,,,,,,,,,,,,,,,,,,,,,,,,,,,,,,,,,,,,,,,,,,,,,,,,,,,,,,,,,,,,,,,,,,,,,,,,,,,,,,463.3109214399999,471.4765091030001,,,,,,,,,,,,,,,,,,,,,,,,,,,,,,,,,,,,,,,,,,,,,,,,,,,,,092021,0,3,2,3,0,1,1,0,18,2021_Sep_20_0934,listening_fmri,3.2.4,60.42201770348166,
,1,parcelated_audio/34/34_13.ogg,,,,,,,,,0,0,0,0,0,1,1,1,0,0,0,0,,,,,,,,,0,0,0,0,0,12,12,12,,,,,,,,,,,,,,,,,,,,,,,,,,,,,,,,,,,,,,,,,,,,,,,,,,,,,,,,,,,,,,,,,,,,,,,,,,,,,,,,,,,,,,,,,,,,,,,,,,,,,,,,,,,,,,,,,,471.47678898900017,475.367179698,,,,,,,,,,,,,,,,,,,,,,,,,,,,,,,,,,,,,,,,,,,,,,,,,,,,,092021,0,3,2,3,0,1,1,0,18,2021_Sep_20_0934,listening_fmri,3.2.4,60.42201770348166,
,1,parcelated_audio/34/34_14.ogg,,,,,,,,,0,0,0,0,0,1,1,1,0,0,0,0,,,,,,,,,0,0,0,0,0,13,13,13,,,,,,,,,,,,,,,,,,,,,,,,,,,,,,,,,,,,,,,,,,,,,,,,,,,,,,,,,,,,,,,,,,,,,,,,,,,,,,,,,,,,,,,,,,,,,,,,,,,,,,,,,,,,,,,,,,475.3676941320002,480.01329107800007,,,,,,,,,,,,,,,,,,,,,,,,,,,,,,,,,,,,,,,,,,,,,,,,,,,,,092021,0,3,2,3,0,1,1,0,18,2021_Sep_20_0934,listening_fmri,3.2.4,60.42201770348166,
,1,parcelated_audio/34/34_15.ogg,,,,,,,,,0,0,0,0,0,1,1,1,0,0,0,0,,,,,,,,,0,0,0,0,0,14,14,14,,,,,,,,,,,,,,,,,,,,,,,,,,,,,,,,,,,,,,,,,,,,,,,,,,,,,,,,,,,,,,,,,,,,,,,,,,,,,,,,,,,,,,,,,,,,,,,,,,,,,,,,,,,,,,,,,,480.0135452750003,484.2018319179999,,,,,,,,,,,,,,,,,,,,,,,,,,,,,,,,,,,,,,,,,,,,,,,,,,,,,092021,0,3,2,3,0,1,1,0,18,2021_Sep_20_0934,listening_fmri,3.2.4,60.42201770348166,
,1,parcelated_audio/34/34_16.ogg,,,,,,,,,0,0,0,0,0,1,1,1,0,0,0,0,,,,,,,,,0,0,0,0,0,15,15,15,,,,,,,,,,,,,,,,,,,,,,,,,,,,,,,,,,,,,,,,,,,,,,,,,,,,,,,,,,,,,,,,,,,,,,,,,,,,,,,,,,,,,,,,,,,,,,,,,,,,,,,,,,,,,,,,,,484.2021203710003,497.1911463160002,,,,,,,,,,,,,,,,,,,,,,,,,,,,,,,,,,,,,,,,,,,,,,,,,,,,,092021,0,3,2,3,0,1,1,0,18,2021_Sep_20_0934,listening_fmri,3.2.4,60.42201770348166,
,1,parcelated_audio/34/34_17.ogg,,,,,,,,,0,0,0,0,0,1,1,1,0,0,0,0,,,,,,,,,0,0,0,0,0,16,16,16,,,,,,,,,,,,,,,,,,,,,,,,,,,,,,,,,,,,,,,,,,,,,,,,,,,,,,,,,,,,,,,,,,,,,,,,,,,,,,,,,,,,,,,,,,,,,,,,,,,,,,,,,,,,,,,,,,497.191605366,506.1163537580003,,,,,,,,,,,,,,,,,,,,,,,,,,,,,,,,,,,,,,,,,,,,,,,,,,,,,092021,0,3,2,3,0,1,1,0,18,2021_Sep_20_0934,listening_fmri,3.2.4,60.42201770348166,
,1,parcelated_audio/34/34_18.ogg,,,,,,,,,0,0,0,0,0,1,1,1,0,0,0,0,,,,,,,,,0,0,0,0,0,17,17,17,,,,,,,,,,,,,,,,,,,,,,,,,,,,,,,,,,,,,,,,,,,,,,,,,,,,,,,,,,,,,,,,,,,,,,,,,,,,,,,,,,,,,,,,,,,,,,,,,,,,,,,,,,,,,,,,,,506.1167023109999,512.0072250280002,,,,,,,,,,,,,,,,,,,,,,,,,,,,,,,,,,,,,,,,,,,,,,,,,,,,,092021,0,3,2,3,0,1,1,0,18,2021_Sep_20_0934,listening_fmri,3.2.4,60.42201770348166,
,1,parcelated_audio/34/34_19.ogg,,,,,,,,,0,0,0,0,0,1,1,1,0,0,0,0,,,,,,,,,0,0,0,0,0,18,18,18,,,,,,,,,,,,,,,,,,,,,,,,,,,,,,,,,,,,,,,,,,,,,,,,,,,,,,,,,,,,,,,,,,,,,,,,,,,,,,,,,,,,,,,,,,,,,,,,,,,,,,,,,,,,,,,,,,512.007568578,518.2156231270003,,,,,,,,,,,,,,,,,,,,,,,,,,,,,,,,,,,,,,,,,,,,,,,,,,,,,092021,0,3,2,3,0,1,1,0,18,2021_Sep_20_0934,listening_fmri,3.2.4,60.42201770348166,
,1,parcelated_audio/34/34_20.ogg,,,,,,,,,0,0,0,0,0,1,1,1,0,0,0,0,,,,,,,,,0,0,0,0,0,19,19,19,,,,,,,,,,,,,,,,,,,,,,,,,,,,,,,,,,,,,,,,,,,,,,,,,,,,,,,,,,,,,,,,,,,,,,,,,,,,,,,,,,,,,,,,,,,,,,,,,,,,,,,,,,,,,,,,,,518.215975374,526.6713641950003,,,,,,,,,,,,,,,,,,,,,,,,,,,,,,,,,,,,,,,,,,,,,,,,,,,,,092021,0,3,2,3,0,1,1,0,18,2021_Sep_20_0934,listening_fmri,3.2.4,60.42201770348166,
,1,parcelated_audio/34/34_21.ogg,,,,,,,,,0,0,0,0,0,1,1,1,0,0,0,0,,,,,,,,,0,0,0,0,0,20,20,20,,,,,,,,,,,,,,,,,,,,,,,,,,,,,,,,,,,,,,,,,,,,,,,,,,,,,,,,,,,,,,,,,,,,,,,,,,,,,,,,,,,,,,,,,,,,,,,,,,,,,,,,,,,,,,,,,,526.671722332,533.0421808369999,,,,,,,,,,,,,,,,,,,,,,,,,,,,,,,,,,,,,,,,,,,,,,,,,,,,,092021,0,3,2,3,0,1,1,0,18,2021_Sep_20_0934,listening_fmri,3.2.4,60.42201770348166,
,1,parcelated_audio/34/34_22.ogg,,,,,,,,,0,0,0,0,0,1,1,1,0,0,0,0,,,,,,,,,0,0,0,0,0,21,21,21,,,,,,,,,,,,,,,,,,,,,,,,,,,,,,,,,,,,,,,,,,,,,,,,,,,,,,,,,,,,,,,,,,,,,,,,,,,,,,,,,,,,,,,,,,,,,,,,,,,,,,,,,,,,,,,,,,533.0425261980001,538.169721345,,,,,,,,,,,,,,,,,,,,,,,,,,,,,,,,,,,,,,,,,,,,,,,,,,,,,092021,0,3,2,3,0,1,1,0,18,2021_Sep_20_0934,listening_fmri,3.2.4,60.42201770348166,
,1,parcelated_audio/34/34_23.ogg,,,,,,,,,0,0,0,0,0,1,1,1,0,0,0,0,,,,,,,,,0,0,0,0,0,22,22,22,,,,,,,,,,,,,,,,,,,,,,,,,,,,,,,,,,,,,,,,,,,,,,,,,,,,,,,,,,,,,,,,,,,,,,,,,,,,,,,,,,,,,,,,,,,,,,,,,,,,,,,,,,,,,,,,,,538.1700767340001,545.9726381100002,,,,,,,,,,,,,,,,,,,,,,,,,,,,,,,,,,,,,,,,,,,,,,,,,,,,,092021,0,3,2,3,0,1,1,0,18,2021_Sep_20_0934,listening_fmri,3.2.4,60.42201770348166,
,1,parcelated_audio/34/34_24.ogg,,,,,,,,,0,0,0,0,0,1,1,1,0,0,0,0,,,,,,,,,0,0,0,0,0,23,23,23,,,,,,,,,,,,,,,,,,,,,,,,,,,,,,,,,,,,,,,,,,,,,,,,,,,,,,,,,,,,,,,,,,,,,,,,,,,,,,,,,,,,,,,,,,,,,,,,,,,,,,,,,,,,,,,,,,545.9746592140002,551.7702859000003,,,,,,,,,,,,,,,,,,,,,,,,,,,,,,,,,,,,,,,,,,,,,,,,,,,,,092021,0,3,2,3,0,1,1,0,18,2021_Sep_20_0934,listening_fmri,3.2.4,60.42201770348166,
,1,parcelated_audio/34/34_25.ogg,,,,,,,,,0,0,0,0,0,1,1,1,0,0,0,0,,,,,,,,,0,0,0,0,0,24,24,24,,,,,,,,,,,,,,,,,,,,,,,,,,,,,,,,,,,,,,,,,,,,,,,,,,,,,,,,,,,,,,,,,,,,,,,,,,,,,,,,,,,,,,,,,,,,,,,,,,,,,,,,,,,,,,,,,,551.7706359690003,558.3286810820002,,,,,,,,,,,,,,,,,,,,,,,,,,,,,,,,,,,,,,,,,,,,,,,,,,,,,092021,0,3,2,3,0,1,1,0,18,2021_Sep_20_0934,listening_fmri,3.2.4,60.42201770348166,
,1,parcelated_audio/34/34_26.ogg,,,,,,,,,0,0,0,0,0,1,1,1,0,0,0,0,,,,,,,,,0,0,0,0,0,25,25,25,,,,,,,,,,,,,,,,,,,,,,,,,,,,,,,,,,,,,,,,,,,,,,,,,,,,,,,,,,,,,,,,,,,,,,,,,,,,,,,,,,,,,,,,,,,,,,,,,,,,,,,,,,,,,,,,,,558.3290275460001,567.980395324,,,,,,,,,,,,,,,,,,,,,,,,,,,,,,,,,,,,,,,,,,,,,,,,,,,,,092021,0,3,2,3,0,1,1,0,18,2021_Sep_20_0934,listening_fmri,3.2.4,60.42201770348166,
,1,parcelated_audio/34/34_27.ogg,,,,,,,,,0,0,0,0,0,1,1,1,0,0,0,0,,,,,,,,,0,0,0,0,0,26,26,26,,,,,,,,,,,,,,,,,,,,,,,,,,,,,,,,,,,,,,,,,,,,,,,,,,,,,,,,,,,,,,,,,,,,,,,,,,,,,,,,,,,,,,,,,,,,,,,,,,,,,,,,,,,,,,,,,,567.9807499410001,575.4774935500002,,,,,,,,,,,,,,,,,,,,,,,,,,,,,,,,,,,,,,,,,,,,,,,,,,,,,092021,0,3,2,3,0,1,1,0,18,2021_Sep_20_0934,listening_fmri,3.2.4,60.42201770348166,
,1,,,,,,,,,,0,0,0,0,0,1,1,1,0,0,0,0,,,,,,,,,0,0,0,0,,,,,,,,,,,,,,,,,,,,,,,,,,,,,,,,,,,,,,,,,,,,,,,,,,,,,,,,,,,,,,,,,,,,,,,,,,,,,,,,,,,,,,,,,,,,,,,,,,,,,,,,,,,,,,,,,,,,,,,,,,,,,,,,,,,,,,,,,,,,,,,,,,,,,,,,,,,,,,,,,,,,,,,,,,,,092021,0,3,2,3,0,1,1,0,18,2021_Sep_20_0934,listening_fmri,3.2.4,60.42201770348166,
,1,,,,,,,,,,0,0,0,0,0,1,1,1,0,0,0,0,,,,,,,,,,,,,,,,,,,,,,,,,,,,,,,,,,,,,,,,,,,,,,,,,,,,,,,,,,,,,,,,,,,,,,,,,,,,,,,,,,,,,,,,,,,,,,,,,,,,,,,,,,,,575.4778772050001,581.475316667,765.5278550610001,None,,,,,,,,,,,,,,,,,,,,,771.5281929520002,None,771.5281929520002,None,,,,,,,,,,,,,,,,,,,,,,,,,,,,,,,,,,,,,,,,,,,,,,,,,092021,0,3,2,3,0,1,1,0,18,2021_Sep_20_0934,listening_fmri,3.2.4,60.42201770348166,
,1,,,,,,,,,,0,0,0,0,0,1,1,1,,,,,,,,,,,,,,,,,,,,,,,,,,,,,,,,,,,,,,,,,,,,,,,,,,,,,,,,,,,,,,,,,,,,,,,,,,,,,,,,,,,,,,,,,,,,,,,,,,,,,,,,,,,,,,,,,,,,,,,,,,,,,,,,,,,,,,,,,,,,,,,,,,,,,,,,,,,,,,,,,,,,,,,,,,,,,,,,,,,,,,,,,,,,092021,0,3,2,3,0,1,1,0,18,2021_Sep_20_0934,listening_fmri,3.2.4,60.42201770348166,
,2,,,,,,,,,,0,0,0,0,0,2,2,2,0,0,0,0,0,0,0,0,,,,,,,,,,,,,,,,,0,0,0,0,,,,,,,,,,,,,,,,,,,,,,,,,,,,,,,,,,,,,,,,,,,,,,,,,,,,,,,,,,,,,,,,,,,,,,,,,,,,,,,,,,,,,,,,772.5448582970002,None,6,2.5477107000001524,772.5448582970002,None,772.5448582970002,None,772.5448582970002,None,,,,,,,,,,,,,,,775.1108796799999,None,6,2.208836775999771,775.1108796799999,None,775.1108796799999,None,777.3607848500001,None,777.3607848500001,None,777.3607848500001,None,7,2.0569366439999612,777.3607848500001,None,779.444787035,None,7,4.230824972999926,779.444787035,None,779.444787035,None,783.794378346,None,783.794378346,None,783.794378346,None,783.794378346,None,783.794378346,None,783.794378346,None,783.794378346,None,,,,,,,,,092021,0,3,2,3,0,1,1,0,18,2021_Sep_20_0934,listening_fmri,3.2.4,60.42201770348166,
,2,,,,,,,,,,0,0,0,0,0,2,2,2,0,0,0,0,0,0,0,0,,,,,,,,,,,,,,,,,,,,,,,,,,,,,,,,,,,,,,,,,,,,,,,,,,,,,,,,,,,,,,,,,,,,,,,,,,,,,,,,,,,,,,,,,,,,,,,,,,,,,,,,,,,,,,,,,,,,,,,,,,,,,,,,,,,,,,,,,,,,815.8273636980002,None,815.8273636980002,None,815.8273636980002,None,7,1.6873239029996512,815.8273636980002,None,,,,,,,,,,,,,,,,,,,,,,,812.2269173049999,None,7,3.563683526999739,812.2269173049999,None,812.2269173049999,None,092021,0,3,2,3,0,1,1,0,18,2021_Sep_20_0934,listening_fmri,3.2.4,60.42201770348166,
,2,parcelated_audio/41/41_1.ogg,,,,,,,,,0,0,0,0,0,2,2,2,0,0,0,0,,,,,,,,,0,0,0,0,0,0,0,0,,,,,,,,,,,,,,,,,,,,,,,,,,,,,,,,,,,,,,,,,,,,,,,,,,,,,,,,,,,,,,,,,,,,,,,,,,,,,,,,,,,,,,,,,,,,,,,,,,,,,,,,,,817.5438668269999,None,1,4.160823329999857,817.5438668269999,None,631.6819462860001,634.691132104,634.699336119,643.823489782,,,,,,,,,,,,,,,,,,,,,,,,,,,,,,,,,,,,,,,,,,,,,,,,,,,,,092021,0,3,2,3,0,1,1,0,18,2021_Sep_20_0934,listening_fmri,3.2.4,60.42201770348166,
,2,parcelated_audio/41/41_2.ogg,,,,,,,,,0,0,0,0,0,2,2,2,0,0,0,0,,,,,,,,,0,0,0,0,0,1,1,1,,,,,,,,,,,,,,,,,,,,,,,,,,,,,,,,,,,,,,,,,,,,,,,,,,,,,,,,,,,,,,,,,,,,,,,,,,,,,,,,,,,,,,,,,,,,,,,,,,,,,,,,,,,,,,,,,,643.823852452,651.0655837679999,,,,,,,,,,,,,,,,,,,,,,,,,,,,,,,,,,,,,,,,,,,,,,,,,,,,,092021,0,3,2,3,0,1,1,0,18,2021_Sep_20_0934,listening_fmri,3.2.4,60.42201770348166,
,2,parcelated_audio/41/41_3.ogg,,,,,,,,,0,0,0,0,0,2,2,2,0,0,0,0,,,,,,,,,0,0,0,0,0,2,2,2,,,,,,,,,,,,,,,,,,,,,,,,,,,,,,,,,,,,,,,,,,,,,,,,,,,,,,,,,,,,,,,,,,,,,,,,,,,,,,,,,,,,,,,,,,,,,,,,,,,,,,,,,,,,,,,,,,651.0659391940001,655.3555991230003,,,,,,,,,,,,,,,,,,,,,,,,,,,,,,,,,,,,,,,,,,,,,,,,,,,,,092021,0,3,2,3,0,1,1,0,18,2021_Sep_20_0934,listening_fmri,3.2.4,60.42201770348166,
,2,parcelated_audio/41/41_4.ogg,,,,,,,,,0,0,0,0,0,2,2,2,0,0,0,0,,,,,,,,,0,0,0,0,0,3,3,3,,,,,,,,,,,,,,,,,,,,,,,,,,,,,,,,,,,,,,,,,,,,,,,,,,,,,,,,,,,,,,,,,,,,,,,,,,,,,,,,,,,,,,,,,,,,,,,,,,,,,,,,,,,,,,,,,,655.3566165960003,659.4216284730003,,,,,,,,,,,,,,,,,,,,,,,,,,,,,,,,,,,,,,,,,,,,,,,,,,,,,092021,0,3,2,3,0,1,1,0,18,2021_Sep_20_0934,listening_fmri,3.2.4,60.42201770348166,
,2,parcelated_audio/41/41_5.ogg,,,,,,,,,0,0,0,0,0,2,2,2,0,0,0,0,,,,,,,,,0,0,0,0,0,4,4,4,,,,,,,,,,,,,,,,,,,,,,,,,,,,,,,,,,,,,,,,,,,,,,,,,,,,,,,,,,,,,,,,,,,,,,,,,,,,,,,,,,,,,,,,,,,,,,,,,,,,,,,,,,,,,,,,,,659.4219927330003,665.543467532,,,,,,,,,,,,,,,,,,,,,,,,,,,,,,,,,,,,,,,,,,,,,,,,,,,,,092021,0,3,2,3,0,1,1,0,18,2021_Sep_20_0934,listening_fmri,3.2.4,60.42201770348166,
,2,parcelated_audio/41/41_6.ogg,,,,,,,,,0,0,0,0,0,2,2,2,0,0,0,0,,,,,,,,,0,0,0,0,0,5,5,5,,,,,,,,,,,,,,,,,,,,,,,,,,,,,,,,,,,,,,,,,,,,,,,,,,,,,,,,,,,,,,,,,,,,,,,,,,,,,,,,,,,,,,,,,,,,,,,,,,,,,,,,,,,,,,,,,,665.543826369,675.466032085,,,,,,,,,,,,,,,,,,,,,,,,,,,,,,,,,,,,,,,,,,,,,,,,,,,,,092021,0,3,2,3,0,1,1,0,18,2021_Sep_20_0934,listening_fmri,3.2.4,60.42201770348166,
,2,parcelated_audio/41/41_7.ogg,,,,,,,,,0,0,0,0,0,2,2,2,0,0,0,0,,,,,,,,,0,0,0,0,0,6,6,6,,,,,,,,,,,,,,,,,,,,,,,,,,,,,,,,,,,,,,,,,,,,,,,,,,,,,,,,,,,,,,,,,,,,,,,,,,,,,,,,,,,,,,,,,,,,,,,,,,,,,,,,,,,,,,,,,,675.4668139500002,683.1911793940001,,,,,,,,,,,,,,,,,,,,,,,,,,,,,,,,,,,,,,,,,,,,,,,,,,,,,092021,0,3,2,3,0,1,1,0,18,2021_Sep_20_0934,listening_fmri,3.2.4,60.42201770348166,
,2,parcelated_audio/41/41_8.ogg,,,,,,,,,0,0,0,0,0,2,2,2,0,0,0,0,,,,,,,,,0,0,0,0,0,7,7,7,,,,,,,,,,,,,,,,,,,,,,,,,,,,,,,,,,,,,,,,,,,,,,,,,,,,,,,,,,,,,,,,,,,,,,,,,,,,,,,,,,,,,,,,,,,,,,,,,,,,,,,,,,,,,,,,,,683.1915364190002,687.4368383520002,,,,,,,,,,,,,,,,,,,,,,,,,,,,,,,,,,,,,,,,,,,,,,,,,,,,,092021,0,3,2,3,0,1,1,0,18,2021_Sep_20_0934,listening_fmri,3.2.4,60.42201770348166,
,2,parcelated_audio/41/41_9.ogg,,,,,,,,,0,0,0,0,0,2,2,2,0,0,0,0,,,,,,,,,0,0,0,0,0,8,8,8,,,,,,,,,,,,,,,,,,,,,,,,,,,,,,,,,,,,,,,,,,,,,,,,,,,,,,,,,,,,,,,,,,,,,,,,,,,,,,,,,,,,,,,,,,,,,,,,,,,,,,,,,,,,,,,,,,687.437692964,697.093290949,,,,,,,,,,,,,,,,,,,,,,,,,,,,,,,,,,,,,,,,,,,,,,,,,,,,,092021,0,3,2,3,0,1,1,0,18,2021_Sep_20_0934,listening_fmri,3.2.4,60.42201770348166,
,2,parcelated_audio/41/41_10.ogg,,,,,,,,,0,0,0,0,0,2,2,2,0,0,0,0,,,,,,,,,0,0,0,0,0,9,9,9,,,,,,,,,,,,,,,,,,,,,,,,,,,,,,,,,,,,,,,,,,,,,,,,,,,,,,,,,,,,,,,,,,,,,,,,,,,,,,,,,,,,,,,,,,,,,,,,,,,,,,,,,,,,,,,,,,697.0935971290003,703.7034973299999,,,,,,,,,,,,,,,,,,,,,,,,,,,,,,,,,,,,,,,,,,,,,,,,,,,,,092021,0,3,2,3,0,1,1,0,18,2021_Sep_20_0934,listening_fmri,3.2.4,60.42201770348166,
,2,parcelated_audio/41/41_11.ogg,,,,,,,,,0,0,0,0,0,2,2,2,0,0,0,0,,,,,,,,,0,0,0,0,0,10,10,10,,,,,,,,,,,,,,,,,,,,,,,,,,,,,,,,,,,,,,,,,,,,,,,,,,,,,,,,,,,,,,,,,,,,,,,,,,,,,,,,,,,,,,,,,,,,,,,,,,,,,,,,,,,,,,,,,,703.7040382880002,707.479014663,,,,,,,,,,,,,,,,,,,,,,,,,,,,,,,,,,,,,,,,,,,,,,,,,,,,,092021,0,3,2,3,0,1,1,0,18,2021_Sep_20_0934,listening_fmri,3.2.4,60.42201770348166,
,2,parcelated_audio/41/41_12.ogg,,,,,,,,,0,0,0,0,0,2,2,2,0,0,0,0,,,,,,,,,0,0,0,0,0,11,11,11,,,,,,,,,,,,,,,,,,,,,,,,,,,,,,,,,,,,,,,,,,,,,,,,,,,,,,,,,,,,,,,,,,,,,,,,,,,,,,,,,,,,,,,,,,,,,,,,,,,,,,,,,,,,,,,,,,707.4793930150001,717.213256151,,,,,,,,,,,,,,,,,,,,,,,,,,,,,,,,,,,,,,,,,,,,,,,,,,,,,092021,0,3,2,3,0,1,1,0,18,2021_Sep_20_0934,listening_fmri,3.2.4,60.42201770348166,
,2,parcelated_audio/41/41_13.ogg,,,,,,,,,0,0,0,0,0,2,2,2,0,0,0,0,,,,,,,,,0,0,0,0,0,12,12,12,,,,,,,,,,,,,,,,,,,,,,,,,,,,,,,,,,,,,,,,,,,,,,,,,,,,,,,,,,,,,,,,,,,,,,,,,,,,,,,,,,,,,,,,,,,,,,,,,,,,,,,,,,,,,,,,,,717.2135349110001,723.0349445560003,,,,,,,,,,,,,,,,,,,,,,,,,,,,,,,,,,,,,,,,,,,,,,,,,,,,,092021,0,3,2,3,0,1,1,0,18,2021_Sep_20_0934,listening_fmri,3.2.4,60.42201770348166,
,2,parcelated_audio/41/41_14.ogg,,,,,,,,,0,0,0,0,0,2,2,2,0,0,0,0,,,,,,,,,0,0,0,0,0,13,13,13,,,,,,,,,,,,,,,,,,,,,,,,,,,,,,,,,,,,,,,,,,,,,,,,,,,,,,,,,,,,,,,,,,,,,,,,,,,,,,,,,,,,,,,,,,,,,,,,,,,,,,,,,,,,,,,,,,723.0352030639999,730.2744000190003,,,,,,,,,,,,,,,,,,,,,,,,,,,,,,,,,,,,,,,,,,,,,,,,,,,,,092021,0,3,2,3,0,1,1,0,18,2021_Sep_20_0934,listening_fmri,3.2.4,60.42201770348166,
,2,parcelated_audio/41/41_15.ogg,,,,,,,,,0,0,0,0,0,2,2,2,0,0,0,0,,,,,,,,,0,0,0,0,0,14,14,14,,,,,,,,,,,,,,,,,,,,,,,,,,,,,,,,,,,,,,,,,,,,,,,,,,,,,,,,,,,,,,,,,,,,,,,,,,,,,,,,,,,,,,,,,,,,,,,,,,,,,,,,,,,,,,,,,,730.2747036420003,733.7031551460002,,,,,,,,,,,,,,,,,,,,,,,,,,,,,,,,,,,,,,,,,,,,,,,,,,,,,092021,0,3,2,3,0,1,1,0,18,2021_Sep_20_0934,listening_fmri,3.2.4,60.42201770348166,
,2,parcelated_audio/41/41_16.ogg,,,,,,,,,0,0,0,0,0,2,2,2,0,0,0,0,,,,,,,,,0,0,0,0,0,15,15,15,,,,,,,,,,,,,,,,,,,,,,,,,,,,,,,,,,,,,,,,,,,,,,,,,,,,,,,,,,,,,,,,,,,,,,,,,,,,,,,,,,,,,,,,,,,,,,,,,,,,,,,,,,,,,,,,,,733.703441804,738.5692752709999,,,,,,,,,,,,,,,,,,,,,,,,,,,,,,,,,,,,,,,,,,,,,,,,,,,,,092021,0,3,2,3,0,1,1,0,18,2021_Sep_20_0934,listening_fmri,3.2.4,60.42201770348166,
,2,parcelated_audio/41/41_17.ogg,,,,,,,,,0,0,0,0,0,2,2,2,0,0,0,0,,,,,,,,,0,0,0,0,0,16,16,16,,,,,,,,,,,,,,,,,,,,,,,,,,,,,,,,,,,,,,,,,,,,,,,,,,,,,,,,,,,,,,,,,,,,,,,,,,,,,,,,,,,,,,,,,,,,,,,,,,,,,,,,,,,,,,,,,,738.569622667,742.7562835169999,,,,,,,,,,,,,,,,,,,,,,,,,,,,,,,,,,,,,,,,,,,,,,,,,,,,,092021,0,3,2,3,0,1,1,0,18,2021_Sep_20_0934,listening_fmri,3.2.4,60.42201770348166,
,2,parcelated_audio/41/41_18.ogg,,,,,,,,,0,0,0,0,0,2,2,2,0,0,0,0,,,,,,,,,0,0,0,0,0,17,17,17,,,,,,,,,,,,,,,,,,,,,,,,,,,,,,,,,,,,,,,,,,,,,,,,,,,,,,,,,,,,,,,,,,,,,,,,,,,,,,,,,,,,,,,,,,,,,,,,,,,,,,,,,,,,,,,,,,742.7565662090003,745.2899897280001,,,,,,,,,,,,,,,,,,,,,,,,,,,,,,,,,,,,,,,,,,,,,,,,,,,,,092021,0,3,2,3,0,1,1,0,18,2021_Sep_20_0934,listening_fmri,3.2.4,60.42201770348166,
,2,parcelated_audio/41/41_19.ogg,,,,,,,,,0,0,0,0,0,2,2,2,0,0,0,0,,,,,,,,,0,0,0,0,0,18,18,18,,,,,,,,,,,,,,,,,,,,,,,,,,,,,,,,,,,,,,,,,,,,,,,,,,,,,,,,,,,,,,,,,,,,,,,,,,,,,,,,,,,,,,,,,,,,,,,,,,,,,,,,,,,,,,,,,,745.2904171920002,752.175158282,,,,,,,,,,,,,,,,,,,,,,,,,,,,,,,,,,,,,,,,,,,,,,,,,,,,,092021,0,3,2,3,0,1,1,0,18,2021_Sep_20_0934,listening_fmri,3.2.4,60.42201770348166,
,2,parcelated_audio/41/41_20.ogg,,,,,,,,,0,0,0,0,0,2,2,2,0,0,0,0,,,,,,,,,0,0,0,0,0,19,19,19,,,,,,,,,,,,,,,,,,,,,,,,,,,,,,,,,,,,,,,,,,,,,,,,,,,,,,,,,,,,,,,,,,,,,,,,,,,,,,,,,,,,,,,,,,,,,,,,,,,,,,,,,,,,,,,,,,752.1754387430003,757.0972212409999,,,,,,,,,,,,,,,,,,,,,,,,,,,,,,,,,,,,,,,,,,,,,,,,,,,,,092021,0,3,2,3,0,1,1,0,18,2021_Sep_20_0934,listening_fmri,3.2.4,60.42201770348166,
,2,parcelated_audio/41/41_21.ogg,,,,,,,,,0,0,0,0,0,2,2,2,0,0,0,0,,,,,,,,,0,0,0,0,0,20,20,20,,,,,,,,,,,,,,,,,,,,,,,,,,,,,,,,,,,,,,,,,,,,,,,,,,,,,,,,,,,,,,,,,,,,,,,,,,,,,,,,,,,,,,,,,,,,,,,,,,,,,,,,,,,,,,,,,,757.0975218609999,764.8975188249999,,,,,,,,,,,,,,,,,,,,,,,,,,,,,,,,,,,,,,,,,,,,,,,,,,,,,092021,0,3,2,3,0,1,1,0,18,2021_Sep_20_0934,listening_fmri,3.2.4,60.42201770348166,
,2,parcelated_audio/41/41_22.ogg,,,,,,,,,0,0,0,0,0,2,2,2,0,0,0,0,,,,,,,,,0,0,0,0,0,21,21,21,,,,,,,,,,,,,,,,,,,,,,,,,,,,,,,,,,,,,,,,,,,,,,,,,,,,,,,,,,,,,,,,,,,,,,,,,,,,,,,,,,,,,,,,,,,,,,,,,,,,,,,,,,,,,,,,,,764.8978701220001,780.7076205750002,,,,,,,,,,,,,,,,,,,,,,,,,,,,,,,,,,,,,,,,,,,,,,,,,,,,,092021,0,3,2,3,0,1,1,0,18,2021_Sep_20_0934,listening_fmri,3.2.4,60.42201770348166,
,2,parcelated_audio/41/41_23.ogg,,,,,,,,,0,0,0,0,0,2,2,2,0,0,0,0,,,,,,,,,0,0,0,0,0,22,22,22,,,,,,,,,,,,,,,,,,,,,,,,,,,,,,,,,,,,,,,,,,,,,,,,,,,,,,,,,,,,,,,,,,,,,,,,,,,,,,,,,,,,,,,,,,,,,,,,,,,,,,,,,,,,,,,,,,780.7079771010001,786.7105153630002,,,,,,,,,,,,,,,,,,,,,,,,,,,,,,,,,,,,,,,,,,,,,,,,,,,,,092021,0,3,2,3,0,1,1,0,18,2021_Sep_20_0934,listening_fmri,3.2.4,60.42201770348166,
,2,parcelated_audio/41/41_24.ogg,,,,,,,,,0,0,0,0,0,2,2,2,0,0,0,0,,,,,,,,,0,0,0,0,0,23,23,23,,,,,,,,,,,,,,,,,,,,,,,,,,,,,,,,,,,,,,,,,,,,,,,,,,,,,,,,,,,,,,,,,,,,,,,,,,,,,,,,,,,,,,,,,,,,,,,,,,,,,,,,,,,,,,,,,,786.710975744,793.3514744400002,,,,,,,,,,,,,,,,,,,,,,,,,,,,,,,,,,,,,,,,,,,,,,,,,,,,,092021,0,3,2,3,0,1,1,0,18,2021_Sep_20_0934,listening_fmri,3.2.4,60.42201770348166,
,2,parcelated_audio/41/41_25.ogg,,,,,,,,,0,0,0,0,0,2,2,2,0,0,0,0,,,,,,,,,0,0,0,0,0,24,24,24,,,,,,,,,,,,,,,,,,,,,,,,,,,,,,,,,,,,,,,,,,,,,,,,,,,,,,,,,,,,,,,,,,,,,,,,,,,,,,,,,,,,,,,,,,,,,,,,,,,,,,,,,,,,,,,,,,793.351947029,796.7088224199999,,,,,,,,,,,,,,,,,,,,,,,,,,,,,,,,,,,,,,,,,,,,,,,,,,,,,092021,0,3,2,3,0,1,1,0,18,2021_Sep_20_0934,listening_fmri,3.2.4,60.42201770348166,
,2,parcelated_audio/41/41_26.ogg,,,,,,,,,0,0,0,0,0,2,2,2,0,0,0,0,,,,,,,,,0,0,0,0,0,25,25,25,,,,,,,,,,,,,,,,,,,,,,,,,,,,,,,,,,,,,,,,,,,,,,,,,,,,,,,,,,,,,,,,,,,,,,,,,,,,,,,,,,,,,,,,,,,,,,,,,,,,,,,,,,,,,,,,,,796.709174632,802.2233623210002,,,,,,,,,,,,,,,,,,,,,,,,,,,,,,,,,,,,,,,,,,,,,,,,,,,,,092021,0,3,2,3,0,1,1,0,18,2021_Sep_20_0934,listening_fmri,3.2.4,60.42201770348166,
,2,parcelated_audio/41/41_27.ogg,,,,,,,,,0,0,0,0,0,2,2,2,0,0,0,0,,,,,,,,,0,0,0,0,0,26,26,26,,,,,,,,,,,,,,,,,,,,,,,,,,,,,,,,,,,,,,,,,,,,,,,,,,,,,,,,,,,,,,,,,,,,,,,,,,,,,,,,,,,,,,,,,,,,,,,,,,,,,,,,,,,,,,,,,,802.2237509280001,806.0832088069999,,,,,,,,,,,,,,,,,,,,,,,,,,,,,,,,,,,,,,,,,,,,,,,,,,,,,092021,0,3,2,3,0,1,1,0,18,2021_Sep_20_0934,listening_fmri,3.2.4,60.42201770348166,
,2,parcelated_audio/41/41_28.ogg,,,,,,,,,0,0,0,0,0,2,2,2,0,0,0,0,,,,,,,,,0,0,0,0,0,27,27,27,,,,,,,,,,,,,,,,,,,,,,,,,,,,,,,,,,,,,,,,,,,,,,,,,,,,,,,,,,,,,,,,,,,,,,,,,,,,,,,,,,,,,,,,,,,,,,,,,,,,,,,,,,,,,,,,,,806.0834875120001,814.4316813170001,,,,,,,,,,,,,,,,,,,,,,,,,,,,,,,,,,,,,,,,,,,,,,,,,,,,,092021,0,3,2,3,0,1,1,0,18,2021_Sep_20_0934,listening_fmri,3.2.4,60.42201770348166,
,2,parcelated_audio/41/41_29.ogg,,,,,,,,,0,0,0,0,0,2,2,2,0,0,0,0,,,,,,,,,0,0,0,0,0,28,28,28,,,,,,,,,,,,,,,,,,,,,,,,,,,,,,,,,,,,,,,,,,,,,,,,,,,,,,,,,,,,,,,,,,,,,,,,,,,,,,,,,,,,,,,,,,,,,,,,,,,,,,,,,,,,,,,,,,814.4319574990002,821.0482254730002,,,,,,,,,,,,,,,,,,,,,,,,,,,,,,,,,,,,,,,,,,,,,,,,,,,,,092021,0,3,2,3,0,1,1,0,18,2021_Sep_20_0934,listening_fmri,3.2.4,60.42201770348166,
,2,parcelated_audio/41/41_30.ogg,,,,,,,,,0,0,0,0,0,2,2,2,0,0,0,0,,,,,,,,,0,0,0,0,0,29,29,29,,,,,,,,,,,,,,,,,,,,,,,,,,,,,,,,,,,,,,,,,,,,,,,,,,,,,,,,,,,,,,,,,,,,,,,,,,,,,,,,,,,,,,,,,,,,,,,,,,,,,,,,,,,,,,,,,,821.0485738210002,829.7570078460001,,,,,,,,,,,,,,,,,,,,,,,,,,,,,,,,,,,,,,,,,,,,,,,,,,,,,092021,0,3,2,3,0,1,1,0,18,2021_Sep_20_0934,listening_fmri,3.2.4,60.42201770348166,
,2,parcelated_audio/41/41_31.ogg,,,,,,,,,0,0,0,0,0,2,2,2,0,0,0,0,,,,,,,,,0,0,0,0,0,30,30,30,,,,,,,,,,,,,,,,,,,,,,,,,,,,,,,,,,,,,,,,,,,,,,,,,,,,,,,,,,,,,,,,,,,,,,,,,,,,,,,,,,,,,,,,,,,,,,,,,,,,,,,,,,,,,,,,,,829.7580651350002,840.4984018060002,,,,,,,,,,,,,,,,,,,,,,,,,,,,,,,,,,,,,,,,,,,,,,,,,,,,,092021,0,3,2,3,0,1,1,0,18,2021_Sep_20_0934,listening_fmri,3.2.4,60.42201770348166,
