instructText,count,trials_5.thisRepN,trials_5.thisTrialN,trials_5.thisN,trials_5.thisIndex,trials_6.thisRepN,trials_6.thisTrialN,trials_6.thisN,trials_6.thisIndex,trials.thisRepN,trials.thisTrialN,trials.thisN,trials.thisIndex,trials_8.thisRepN,trials_8.thisTrialN,trials_8.thisN,trials_8.thisIndex,story_list_block1,action_list_block1,story_list_block2,action_list_block2,key_resp_3.keys,key_resp_3.rt,key_resp_3.started,key_resp_3.stopped,text_13.started,text_13.stopped,text_23.started,text_23.stopped,text_43.started,text_43.stopped,key_resp_11.keys,key_resp_11.rt,key_resp_11.started,key_resp_11.stopped,text_44.started,text_44.stopped,text_53.started,text_53.stopped,image_10.started,image_10.stopped,text_22.started,text_22.stopped,recall,question1_answer,order of question,text_14.started,text_14.stopped,text_15.started,text_15.stopped,image_6.started,image_6.stopped,polygon_3.started,polygon_3.stopped,bottom_line_3.started,bottom_line_3.stopped,right_line_3.started,right_line_3.stopped,left_line_3.started,left_line_3.stopped,question2_answer,text_16.started,text_16.stopped,text_17.started,text_17.stopped,image_7.started,image_7.stopped,polygon_4.started,polygon_4.stopped,bottom_line_4.started,bottom_line_4.stopped,right_line_4.started,right_line_4.stopped,left_line_4.started,left_line_4.stopped,question3_answer,text_18.started,text_18.stopped,text_19.started,text_19.stopped,image_8.started,image_8.stopped,polygon_5.started,polygon_5.stopped,bottom_line_5.started,bottom_line_5.stopped,right_line_5.started,right_line_5.stopped,left_line_5.started,left_line_5.stopped,question4_answer,text_20.started,text_20.stopped,text_21.started,text_21.stopped,image_9.started,image_9.stopped,polygon_6.started,polygon_6.stopped,bottom_line_6.started,bottom_line_6.stopped,right_line_6.started,right_line_6.stopped,left_line_6.started,left_line_6.stopped,question5_answer,text_25.started,text_25.stopped,text_26.started,text_26.stopped,image_11.started,image_11.stopped,polygon_7.started,polygon_7.stopped,bottom_line_7.started,bottom_line_7.stopped,right_line_7.started,right_line_7.stopped,left_line_7.started,left_line_7.stopped,question6_answer,text_27.started,text_27.stopped,text_28.started,text_28.stopped,image_12.started,image_12.stopped,polygon_8.started,polygon_8.stopped,bottom_line_8.started,bottom_line_8.stopped,right_line_8.started,right_line_8.stopped,left_line_8.started,left_line_8.stopped,question7_answer,text_29.started,text_29.stopped,text_30.started,text_30.stopped,image_13.started,image_13.stopped,polygon_9.started,polygon_9.stopped,bottom_line_9.started,bottom_line_9.stopped,right_line_9.started,right_line_9.stopped,left_line_9.started,left_line_9.stopped,question8_answer,text_31.started,text_31.stopped,text_32.started,text_32.stopped,image_14.started,image_14.stopped,polygon_10.started,polygon_10.stopped,bottom_line_10.started,bottom_line_10.stopped,right_line_10.started,right_line_10.stopped,left_line_10.started,left_line_10.stopped,text_36.started,text_36.stopped,participant,sA,sB,lA,lB,block_struct,random_seed,date,expName,psychopyVersion,frameRate,
"In the final part of the experiment, please answer 8 questions about each story.",,0,0,0,0,,,,,,,,,,,,,[32 34 41 43 14 12 23 21],[4 2 1 3 3 1 2 4],[13 31 24 11 22 44 42 33],[3 4 2 1 4 3 1 2],space,41.36201265100044,7.530546266999863,None,7.530546266999863,None,7.530546266999863,None,,,,,,,,,,,,,,,,,,,,,,,,,,,,,,,,,,,,,,,,,,,,,,,,,,,,,,,,,,,,,,,,,,,,,,,,,,,,,,,,,,,,,,,,,,,,,,,,,,,,,,,,,,,,,,,,,,,,,,,,,,,,,,,,,,,,,,,,,,,092021,0,3,2,3,0,18,2021_Sep_20_1126,short_answer,3.2.4,60.35523157938189,
"We did not tell you to think of all or some of these questions during the story, but please do your best to answer them.",,0,1,1,1,,,,,,,,,,,,,,,,,space,6.254881181999735,48.94827939199968,None,48.94827939199968,None,48.94827939199968,None,,,,,,,,,,,,,,,,,,,,,,,,,,,,,,,,,,,,,,,,,,,,,,,,,,,,,,,,,,,,,,,,,,,,,,,,,,,,,,,,,,,,,,,,,,,,,,,,,,,,,,,,,,,,,,,,,,,,,,,,,,,,,,,,,,,,,,,,,,,092021,0,3,2,3,0,18,2021_Sep_20_1126,short_answer,3.2.4,60.35523157938189,
"Answer as much as you remember, and be specific and concrete in your answers. It is best to try to be as faithful as possible to what the story actually said.
",,0,2,2,2,,,,,,,,,,,,,,,,,space,7.704610594999849,55.24725846599995,None,55.24725846599995,None,55.24725846599995,None,,,,,,,,,,,,,,,,,,,,,,,,,,,,,,,,,,,,,,,,,,,,,,,,,,,,,,,,,,,,,,,,,,,,,,,,,,,,,,,,,,,,,,,,,,,,,,,,,,,,,,,,,,,,,,,,,,,,,,,,,,,,,,,,,,,,,,,,,,,092021,0,3,2,3,0,18,2021_Sep_20_1126,short_answer,3.2.4,60.35523157938189,
"When you have finished typing your answer, hit ‘return’ to submit your answer and move onto the next question. ",,0,3,3,3,,,,,,,,,,,,,,,,,space,5.203724026000145,62.997049240999786,None,62.997049240999786,None,62.997049240999786,None,,,,,,,,,,,,,,,,,,,,,,,,,,,,,,,,,,,,,,,,,,,,,,,,,,,,,,,,,,,,,,,,,,,,,,,,,,,,,,,,,,,,,,,,,,,,,,,,,,,,,,,,,,,,,,,,,,,,,,,,,,,,,,,,,,,,,,,,,,,092021,0,3,2,3,0,18,2021_Sep_20_1126,short_answer,3.2.4,60.35523157938189,
,0,,,,,0,0,0,0,0,0,0,0,,,,,,,,,,,,,,,,,68.2476598989997,None,space,26.789920317999986,68.2476598989997,None,68.2476598989997,None,68.2476598989997,None,95.1300153559996,None,95.1300153559996,None,Both are seated at business class,Jeff is seller of a winery company and william is a representant of a selling wine company ,"[1, 2]",97.14746837699977,None,97.14746837699977,None,97.14746837699977,None,97.14746837699977,None,97.14746837699977,None,97.14746837699977,None,97.14746837699977,None,800,214.36236625799984,None,214.36236625799984,None,214.36236625799984,None,214.36236625799984,None,214.36236625799984,None,214.36236625799984,None,214.36236625799984,None,,229.9287591059997,None,229.9287591059997,None,229.9287591059997,None,229.9287591059997,None,229.9287591059997,None,229.9287591059997,None,229.9287591059997,None,Hand shake,234.26277378399982,None,234.26277378399982,None,234.26277378399982,None,234.26277378399982,None,234.26277378399982,None,234.26277378399982,None,234.26277378399982,None,Three hours,243.87836245499966,None,243.87836245499966,None,243.87836245499966,None,243.87836245499966,None,243.87836245499966,None,243.87836245499966,None,243.87836245499966,None,,260.3450894289999,None,260.3450894289999,None,260.3450894289999,None,260.3450894289999,None,260.3450894289999,None,260.3450894289999,None,260.3450894289999,None,4,266.5617556399998,None,266.5617556399998,None,266.5617556399998,None,266.5617556399998,None,266.5617556399998,None,266.5617556399998,None,266.5617556399998,None,Both are seated at business class,271.74519096099993,None,271.74519096099993,None,271.74519096099993,None,271.74519096099993,None,271.74519096099993,None,271.74519096099993,None,271.74519096099993,None,,,092021,0,3,2,3,0,18,2021_Sep_20_1126,short_answer,3.2.4,60.35523157938189,
,0,,,,,0,0,0,0,,,,,,,,,,,,,,,,,,,,,,,,,,,,,,,,,,,,,,,,,,,,,,,,,,,,,,,,,,,,,,,,,,,,,,,,,,,,,,,,,,,,,,,,,,,,,,,,,,,,,,,,,,,,,,,,,,,,,,,,,,,,,,,,,,,,,,,,,,,,,,,,,,,,,,,,,,,,,,,092021,0,3,2,3,0,18,2021_Sep_20_1126,short_answer,3.2.4,60.35523157938189,
,1,,,,,0,1,1,1,0,0,0,0,,,,,,,,,,,,,,,,,292.59470642999986,None,space,2.546709945999737,292.59470642999986,None,292.59470642999986,None,292.59470642999986,None,295.17683671299983,None,295.17683671299983,None,Next monday a midterm ,Alma is ceo and founder and charlie is the president of a finance club,"[1, 2]",297.0438970209998,None,297.0438970209998,None,297.0438970209998,None,297.0438970209998,None,297.0438970209998,None,297.0438970209998,None,297.0438970209998,None,28000,326.6109108859996,None,326.6109108859996,None,326.6109108859996,None,326.6109108859996,None,326.6109108859996,None,326.6109108859996,None,326.6109108859996,None,,343.54414781399964,None,343.54414781399964,None,343.54414781399964,None,343.54414781399964,None,343.54414781399964,None,343.54414781399964,None,343.54414781399964,None,Hug,347.393343449,None,347.393343449,None,347.393343449,None,347.393343449,None,347.393343449,None,347.393343449,None,347.393343449,None,Medium size auditorium and modern,352.6609359019999,None,352.6609359019999,None,352.6609359019999,None,352.6609359019999,None,352.6609359019999,None,352.6609359019999,None,352.6609359019999,None,,374.07737061499984,None,374.07737061499984,None,374.07737061499984,None,374.07737061499984,None,374.07737061499984,None,374.07737061499984,None,374.07737061499984,None,,385.27729429899955,None,385.27729429899955,None,385.27729429899955,None,385.27729429899955,None,385.27729429899955,None,385.27729429899955,None,385.27729429899955,None,Next monday a midterm ,391.12767760199995,None,391.12767760199995,None,391.12767760199995,None,391.12767760199995,None,391.12767760199995,None,391.12767760199995,None,391.12767760199995,None,,,092021,0,3,2,3,0,18,2021_Sep_20_1126,short_answer,3.2.4,60.35523157938189,
,1,,,,,0,1,1,1,,,,,,,,,,,,,,,,,,,,,,,,,,,,,,,,,,,,,,,,,,,,,,,,,,,,,,,,,,,,,,,,,,,,,,,,,,,,,,,,,,,,,,,,,,,,,,,,,,,,,,,,,,,,,,,,,,,,,,,,,,,,,,,,,,,,,,,,,,,,,,,,,,,,,,,,,,,,,,,092021,0,3,2,3,0,18,2021_Sep_20_1126,short_answer,3.2.4,60.35523157938189,
,2,,,,,0,2,2,2,0,0,0,0,,,,,,,,,,,,,,,,,412.47592731099985,None,space,4.547348763999707,412.47592731099985,None,412.47592731099985,None,412.47592731099985,None,417.05993819399964,None,417.05993819399964,None,They really like it.,His phone,"[1, 2]",424.0267927089999,None,424.0267927089999,None,424.0267927089999,None,424.0267927089999,None,424.0267927089999,None,424.0267927089999,None,424.0267927089999,None,"If she was okay, concerned that she might have a concussion. to which she replied if he has been bitten by an escorpion, and he said no and she said being hit by the door is nothing compared  to being bitten by a door.",446.9266010209999,None,446.9266010209999,None,446.9266010209999,None,446.9266010209999,None,446.9266010209999,None,446.9266010209999,None,446.9266010209999,None,A concert and that same day night.,596.7243252559997,None,596.7243252559997,None,596.7243252559997,None,596.7243252559997,None,596.7243252559997,None,596.7243252559997,None,596.7243252559997,None,3 o'clock,622.8747895049996,None,622.8747895049996,None,622.8747895049996,None,622.8747895049996,None,622.8747895049996,None,622.8747895049996,None,622.8747895049996,None,Modern and hip,633.223766742,None,633.223766742,None,633.223766742,None,633.223766742,None,633.223766742,None,633.223766742,None,633.223766742,None,They nice,641.756209227,None,641.756209227,None,641.756209227,None,641.756209227,None,641.756209227,None,641.756209227,None,641.756209227,None,"Teresa order a salmon roll and japanese beer, and james orders veggie roll and tuna roll.",652.5735437019998,None,652.5735437019998,None,652.5735437019998,None,652.5735437019998,None,652.5735437019998,None,652.5735437019998,None,652.5735437019998,None,They really like it.,735.3552716229997,None,735.3552716229997,None,735.3552716229997,None,735.3552716229997,None,735.3552716229997,None,735.3552716229997,None,735.3552716229997,None,,,092021,0,3,2,3,0,18,2021_Sep_20_1126,short_answer,3.2.4,60.35523157938189,
,2,,,,,0,2,2,2,,,,,,,,,,,,,,,,,,,,,,,,,,,,,,,,,,,,,,,,,,,,,,,,,,,,,,,,,,,,,,,,,,,,,,,,,,,,,,,,,,,,,,,,,,,,,,,,,,,,,,,,,,,,,,,,,,,,,,,,,,,,,,,,,,,,,,,,,,,,,,,,,,,,,,,,,,,,,,,092021,0,3,2,3,0,18,2021_Sep_20_1126,short_answer,3.2.4,60.35523157938189,
,3,,,,,0,3,3,3,,,,,,,,,,,,,,,,,,,,,,,,,,,,,,,,,,,,,,,,,,,,,,,,,,,,,,,,,,,,,,,,,,,,,,,,,,,,,,,,,,,,,,,,,,,,,,,,,,,,,,,,,,,,,,,,,,,,,,,,,,,,,,,,,,,,,,,,,,,,,,,,,,,,,,,,,,,,,,,092021,0,3,2,3,0,18,2021_Sep_20_1126,short_answer,3.2.4,60.35523157938189,
,4,,,,,0,4,4,4,,,,,,,,,,,,,,,,,,,,,,,,,,,,,,,,,,,,,,,,,,,,,,,,,,,,,,,,,,,,,,,,,,,,,,,,,,,,,,,,,,,,,,,,,,,,,,,,,,,,,,,,,,,,,,,,,,,,,,,,,,,,,,,,,,,,,,,,,,,,,,,,,,,,,,,,,,,,,,,092021,0,3,2,3,0,18,2021_Sep_20_1126,short_answer,3.2.4,60.35523157938189,
,5,,,,,0,5,5,5,0,0,0,0,,,,,,,,,,,,,,,,,747.4223726739997,None,space,1.6747327419998328,747.4223726739997,None,747.4223726739997,None,747.4223726739997,None,749.1382083669996,None,749.1382083669996,None,Calvin in business and jessie in tourist.,For six weeks before the vacation trip.,"[1, 2]",751.0049922979997,None,751.0049922979997,None,751.0049922979997,None,751.0049922979997,None,751.0049922979997,None,751.0049922979997,None,751.0049922979997,None,"Their personalities are not compatible, and she is annoyed by him.",769.5721443559996,None,769.5721443559996,None,769.5721443559996,None,769.5721443559996,None,769.5721443559996,None,769.5721443559996,None,769.5721443559996,None,"Not really, he feels hurt but he agrees if that is the way she fweels about him.",794.9717534829997,None,794.9717534829997,None,794.9717534829997,None,794.9717534829997,None,794.9717534829997,None,794.9717534829997,None,794.9717534829997,None,Jessie her philosophy books.,833.4214131949998,None,833.4214131949998,None,833.4214131949998,None,833.4214131949998,None,833.4214131949998,None,833.4214131949998,None,833.4214131949998,None,They get seated pretty much immediately the cross security.,851.9539027019996,None,851.9539027019996,None,851.9539027019996,None,851.9539027019996,None,851.9539027019996,None,851.9539027019996,None,851.9539027019996,None,Something in his pocket.,883.7044065649998,None,883.7044065649998,None,883.7044065649998,None,883.7044065649998,None,883.7044065649998,None,883.7044065649998,None,883.7044065649998,None,,896.6868390599998,None,896.6868390599998,None,896.6868390599998,None,896.6868390599998,None,896.6868390599998,None,896.6868390599998,None,896.6868390599998,None,Calvin in business and jessie in tourist.,898.9536344959997,None,898.9536344959997,None,898.9536344959997,None,898.9536344959997,None,898.9536344959997,None,898.9536344959997,None,898.9536344959997,None,,,092021,0,3,2,3,0,18,2021_Sep_20_1126,short_answer,3.2.4,60.35523157938189,
,5,,,,,0,5,5,5,,,,,,,,,,,,,,,,,,,,,,,,,,,,,,,,,,,,,,,,,,,,,,,,,,,,,,,,,,,,,,,,,,,,,,,,,,,,,,,,,,,,,,,,,,,,,,,,,,,,,,,,,,,,,,,,,,,,,,,,,,,,,,,,,,,,,,,,,,,,,,,,,,,,,,,,,,,,,,,092021,0,3,2,3,0,18,2021_Sep_20_1126,short_answer,3.2.4,60.35523157938189,
,6,,,,,0,6,6,6,0,0,0,0,,,,,,,,,,,,,,,,,921.1528682459998,None,space,1.280317703000037,921.1528682459998,None,921.1528682459998,None,921.1528682459998,None,922.4693136149999,None,922.4693136149999,None,Her family,Halloween decor,"[2, 1]",924.1364355899996,None,924.1364355899996,None,924.1364355899996,None,924.1364355899996,None,924.1364355899996,None,924.1364355899996,None,924.1364355899996,None,"Pies, and turkey",934.3874509829998,None,934.3874509829998,None,934.3874509829998,None,934.3874509829998,None,934.3874509829998,None,934.3874509829998,None,934.3874509829998,None,There arfe five checkout lanes open and the step into checkout number six.,946.4866614009998,None,946.4866614009998,None,946.4866614009998,None,946.4866614009998,None,946.4866614009998,None,946.4866614009998,None,946.4866614009998,None,14 dollars and alex pays in cash,987.2526668289997,None,987.2526668289997,None,987.2526668289997,None,987.2526668289997,None,987.2526668289997,None,987.2526668289997,None,987.2526668289997,None,11 months,1005.4528163479999,None,1005.4528163479999,None,1005.4528163479999,None,1005.4528163479999,None,1005.4528163479999,None,1005.4528163479999,None,1005.4528163479999,None,There are five diamonds clear,1017.4356677239998,None,1017.4356677239998,None,1017.4356677239998,None,1017.4356677239998,None,1017.4356677239998,None,1017.4356677239998,None,1017.4356677239998,None,In a box,1049.3689296959997,None,1049.3689296959997,None,1049.3689296959997,None,1049.3689296959997,None,1049.3689296959997,None,1049.3689296959997,None,1049.3689296959997,None,Her family,1056.6515638919996,None,1056.6515638919996,None,1056.6515638919996,None,1056.6515638919996,None,1056.6515638919996,None,1056.6515638919996,None,1056.6515638919996,None,,,092021,0,3,2,3,0,18,2021_Sep_20_1126,short_answer,3.2.4,60.35523157938189,
,6,,,,,0,6,6,6,,,,,,,,,,,,,,,,,,,,,,,,,,,,,,,,,,,,,,,,,,,,,,,,,,,,,,,,,,,,,,,,,,,,,,,,,,,,,,,,,,,,,,,,,,,,,,,,,,,,,,,,,,,,,,,,,,,,,,,,,,,,,,,,,,,,,,,,,,,,,,,,,,,,,,,,,,,,,,,092021,0,3,2,3,0,18,2021_Sep_20_1126,short_answer,3.2.4,60.35523157938189,
,7,,,,,0,7,7,7,0,0,0,0,,,,,,,,,,,,,,,,,1074.9680326019998,None,space,1.997636034000152,1074.9680326019998,None,1074.9680326019998,None,1074.9680326019998,None,1077.001683341,None,1077.001683341,None,Her dad,It has huge arch windows that shows the sea view and is elegant,"[2, 1]",1078.1515589249998,None,1078.1515589249998,None,1078.1515589249998,None,1078.1515589249998,None,1078.1515589249998,None,1078.1515589249998,None,1078.1515589249998,None,Very nice and are written in calligraphy,1107.883632478,None,1107.883632478,None,1107.883632478,None,1107.883632478,None,1107.883632478,None,1107.883632478,None,1107.883632478,None,Alvira orders oysters and senna order fish and cake for dessert,1135.0508712789997,None,1135.0508712789997,None,1135.0508712789997,None,1135.0508712789997,None,1135.0508712789997,None,1135.0508712789997,None,1135.0508712789997,None,They really enjoy it alvira believes it taste like the sea.,1159.0842199949998,None,1159.0842199949998,None,1159.0842199949998,None,1159.0842199949998,None,1159.0842199949998,None,1159.0842199949998,None,1159.0842199949998,None,For 11 months,1187.7500094889997,None,1187.7500094889997,None,1187.7500094889997,None,1187.7500094889997,None,1187.7500094889997,None,1187.7500094889997,None,1187.7500094889997,None,1 clear diamond,1199.5497275509997,None,1199.5497275509997,None,1199.5497275509997,None,1199.5497275509997,None,1199.5497275509997,None,1199.5497275509997,None,1199.5497275509997,None,On the cake,1215.8819061099998,None,1215.8819061099998,None,1215.8819061099998,None,1215.8819061099998,None,1215.8819061099998,None,1215.8819061099998,None,1215.8819061099998,None,Her dad,1231.016237595,None,1231.016237595,None,1231.016237595,None,1231.016237595,None,1231.016237595,None,1231.016237595,None,1231.016237595,None,,,092021,0,3,2,3,0,18,2021_Sep_20_1126,short_answer,3.2.4,60.35523157938189,
,7,,,,,0,7,7,7,,,,,,,,,,,,,,,,,,,,,,,,,,,,,,,,,,,,,,,,,,,,,,,,,,,,,,,,,,,,,,,,,,,,,,,,,,,,,,,,,,,,,,,,,,,,,,,,,,,,,,,,,,,,,,,,,,,,,,,,,,,,,,,,,,,,,,,,,,,,,,,,,,,,,,,,,,,,,,,092021,0,3,2,3,0,18,2021_Sep_20_1126,short_answer,3.2.4,60.35523157938189,
,8,,,,,0,8,8,8,,,,,,,,,,,,,,,,,,,,,,,,,,,,,,,,,,,,,,,,,,,,,,,,,,,,,,,,,,,,,,,,,,,,,,,,,,,,,,,,,,,,,,,,,,,,,,,,,,,,,,,,,,,,,,,,,,,,,,,,,,,,,,,,,,,,,,,,,,,,,,,,,,,,,,,,,,,,,,,092021,0,3,2,3,0,18,2021_Sep_20_1126,short_answer,3.2.4,60.35523157938189,
,9,,,,,0,9,9,9,0,0,0,0,,,,,,,,,,,,,,,,,1237.549606778,None,space,1.3768451629998708,1237.549606778,None,1237.549606778,None,1237.549606778,None,1238.9650267309999,None,1238.9650267309999,None,Hug,It has dead animals heads on the walls and has wood panels on the ceiling and floor,"[2, 1]",1240.1490125589999,None,1240.1490125589999,None,1240.1490125589999,None,1240.1490125589999,None,1240.1490125589999,None,1240.1490125589999,None,1240.1490125589999,None,Laminated,1268.3482892519996,None,1268.3482892519996,None,1268.3482892519996,None,1268.3482892519996,None,1268.3482892519996,None,1268.3482892519996,None,1268.3482892519996,None,,1272.6320353829997,None,1272.6320353829997,None,1272.6320353829997,None,1272.6320353829997,None,1272.6320353829997,None,1272.6320353829997,None,1272.6320353829997,None,They do,1276.6317961689997,None,1276.6317961689997,None,1276.6317961689997,None,1276.6317961689997,None,1276.6317961689997,None,1276.6317961689997,None,1276.6317961689997,None,Mr shelton cfo and mr gordon ceo,1281.4494543749997,None,1281.4494543749997,None,1281.4494543749997,None,1281.4494543749997,None,1281.4494543749997,None,1281.4494543749997,None,1281.4494543749997,None,,1299.6155014189999,None,1299.6155014189999,None,1299.6155014189999,None,1299.6155014189999,None,1299.6155014189999,None,1299.6155014189999,None,1299.6155014189999,None,,1309.232026405,None,1309.232026405,None,1309.232026405,None,1309.232026405,None,1309.232026405,None,1309.232026405,None,1309.232026405,None,Hug,1311.1985260359997,None,1311.1985260359997,None,1311.1985260359997,None,1311.1985260359997,None,1311.1985260359997,None,1311.1985260359997,None,1311.1985260359997,None,,,092021,0,3,2,3,0,18,2021_Sep_20_1126,short_answer,3.2.4,60.35523157938189,
,9,,,,,0,9,9,9,,,,,,,,,,,,,,,,,,,,,,,,,,,,,,,,,,,,,,,,,,,,,,,,,,,,,,,,,,,,,,,,,,,,,,,,,,,,,,,,,,,,,,,,,,,,,,,,,,,,,,,,,,,,,,,,,,,,,,,,,,,,,,,,,,,,,,,,,,,,,,,,,,,,,,,,,,,,,,,092021,0,3,2,3,0,18,2021_Sep_20_1126,short_answer,3.2.4,60.35523157938189,
,10,,,,,0,10,10,10,0,0,0,0,,,,,,,,,,,,,,,,,1319.331648383,None,space,1.3774818179999784,1319.331648383,None,1319.331648383,None,1319.331648383,None,1320.7486311159996,None,1320.7486311159996,None,Her sister,"It has chandeliers, is really nice ","[2, 1]",1321.7322554789998,None,1321.7322554789998,None,1321.7322554789998,None,1321.7322554789998,None,1321.7322554789998,None,1321.7322554789998,None,1321.7322554789998,None,Intro to chemistry,1346.6307344479997,None,1346.6307344479997,None,1346.6307344479997,None,1346.6307344479997,None,1346.6307344479997,None,1346.6307344479997,None,1346.6307344479997,None,The elements of the periodic table and their properties,1353.6981750659997,None,1353.6981750659997,None,1353.6981750659997,None,1353.6981750659997,None,1353.6981750659997,None,1353.6981750659997,None,1353.6981750659997,None,Is a midterm of the firsts four weeks classes,1378.730259127,None,1378.730259127,None,1378.730259127,None,1378.730259127,None,1378.730259127,None,1378.730259127,None,1378.730259127,None,3 years,1402.4141539739999,None,1402.4141539739999,None,1402.4141539739999,None,1402.4141539739999,None,1402.4141539739999,None,1402.4141539739999,None,1402.4141539739999,None,"Three rubies, which goes with her style since she isn't traditional more retro and vintange",1410.4810811069997,None,1410.4810811069997,None,1410.4810811069997,None,1410.4810811069997,None,1410.4810811069997,None,1410.4810811069997,None,1410.4810811069997,None,On the box,1465.0299133759995,None,1465.0299133759995,None,1465.0299133759995,None,1465.0299133759995,None,1465.0299133759995,None,1465.0299133759995,None,1465.0299133759995,None,Her sister,1472.1304316370001,None,1472.1304316370001,None,1472.1304316370001,None,1472.1304316370001,None,1472.1304316370001,None,1472.1304316370001,None,1472.1304316370001,None,,,092021,0,3,2,3,0,18,2021_Sep_20_1126,short_answer,3.2.4,60.35523157938189,
,10,,,,,0,10,10,10,,,,,,,,,,,,,,,,,,,,,,,,,,,,,,,,,,,,,,,,,,,,,,,,,,,,,,,,,,,,,,,,,,,,,,,,,,,,,,,,,,,,,,,,,,,,,,,,,,,,,,,,,,,,,,,,,,,,,,,,,,,,,,,,,,,,,,,,,,,,,,,,,,,,,,,,,,,,,,,092021,0,3,2,3,0,18,2021_Sep_20_1126,short_answer,3.2.4,60.35523157938189,
,11,,,,,0,11,11,11,0,0,0,0,,,,,,,,,,,,,,,,,1477.2300051979996,None,space,0.9707181570001922,1477.2300051979996,None,1477.2300051979996,None,1477.2300051979996,None,1478.2464543359997,None,1478.2464543359997,None,The wants the beatles poster back and her books,Is dinner a bit dark and nice and traditional,"[2, 1]",1480.029936415,None,1480.029936415,None,1480.029936415,None,1480.029936415,None,1480.029936415,None,1480.029936415,None,1480.029936415,None,Normal,1498.7301188549995,None,1498.7301188549995,None,1498.7301188549995,None,1498.7301188549995,None,1498.7301188549995,None,1498.7301188549995,None,1498.7301188549995,None,Thomas aburger without tomatoes and sadie a ruben,1507.296171685,None,1507.296171685,None,1507.296171685,None,1507.296171685,None,1507.296171685,None,1507.296171685,None,1507.296171685,None,Thomas doesn't like his food since it taste a bit salty,1525.978513644,None,1525.978513644,None,1525.978513644,None,1525.978513644,None,1525.978513644,None,1525.978513644,None,1525.978513644,None,For two months,1554.4790082499999,None,1554.4790082499999,None,1554.4790082499999,None,1554.4790082499999,None,1554.4790082499999,None,1554.4790082499999,None,1554.4790082499999,None,His work scheduled and the possibility of changing career path,1563.3625235739996,None,1563.3625235739996,None,1563.3625235739996,None,1563.3625235739996,None,1563.3625235739996,None,1563.3625235739996,None,1563.3625235739996,None,"No, sadie explains they can see eachother less frequently and she's there for him.",1594.3451151859995,None,1594.3451151859995,None,1594.3451151859995,None,1594.3451151859995,None,1594.3451151859995,None,1594.3451151859995,None,1594.3451151859995,None,The wants the beatles poster back and her books,1647.677027712,None,1647.677027712,None,1647.677027712,None,1647.677027712,None,1647.677027712,None,1647.677027712,None,1647.677027712,None,,,092021,0,3,2,3,0,18,2021_Sep_20_1126,short_answer,3.2.4,60.35523157938189,
,11,,,,,0,11,11,11,,,,,,,,,,,,,,,,,,,,,,,,,,,,,,,,,,,,,,,,,,,,,,,,,,,,,,,,,,,,,,,,,,,,,,,,,,,,,,,,,,,,,,,,,,,,,,,,,,,,,,,,,,,,,,,,,,,,,,,,,,,,,,,,,,,,,,,,,,,,,,,,,,,,,,,,,,,,,,,092021,0,3,2,3,0,18,2021_Sep_20_1126,short_answer,3.2.4,60.35523157938189,
,12,,,,,0,12,12,12,0,0,0,0,,,,,,,,,,,,,,,,,1666.5775510540002,None,space,0.793041233000622,1666.5775510540002,None,1666.5775510540002,None,1666.5775510540002,None,1667.4104151709994,None,1667.4104151709994,None,Her friends,1 hour 15 minutes,"[2, 1]",1668.6609181259996,None,1668.6609181259996,None,1668.6609181259996,None,1668.6609181259996,None,1668.6609181259996,None,1668.6609181259996,None,1668.6609181259996,None,Because sven has the engament ring box in his pocket,1685.3943228699995,None,1685.3943228699995,None,1685.3943228699995,None,1685.3943228699995,None,1685.3943228699995,None,1685.3943228699995,None,1685.3943228699995,None,,1725.9271029629995,None,1725.9271029629995,None,1725.9271029629995,None,1725.9271029629995,None,1725.9271029629995,None,1725.9271029629995,None,1725.9271029629995,None,,1727.6104717940002,None,1727.6104717940002,None,1727.6104717940002,None,1727.6104717940002,None,1727.6104717940002,None,1727.6104717940002,None,1727.6104717940002,None,8 months,1729.71011435,None,1729.71011435,None,1729.71011435,None,1729.71011435,None,1729.71011435,None,1729.71011435,None,1729.71011435,None,1 diamond and clear,1736.4770498659996,None,1736.4770498659996,None,1736.4770498659996,None,1736.4770498659996,None,1736.4770498659996,None,1736.4770498659996,None,1736.4770498659996,None,On the box,1746.393693171,None,1746.393693171,None,1746.393693171,None,1746.393693171,None,1746.393693171,None,1746.393693171,None,1746.393693171,None,Her friends,1751.7433800919994,None,1751.7433800919994,None,1751.7433800919994,None,1751.7433800919994,None,1751.7433800919994,None,1751.7433800919994,None,1751.7433800919994,None,,,092021,0,3,2,3,0,18,2021_Sep_20_1126,short_answer,3.2.4,60.35523157938189,
,12,,,,,0,12,12,12,,,,,,,,,,,,,,,,,,,,,,,,,,,,,,,,,,,,,,,,,,,,,,,,,,,,,,,,,,,,,,,,,,,,,,,,,,,,,,,,,,,,,,,,,,,,,,,,,,,,,,,,,,,,,,,,,,,,,,,,,,,,,,,,,,,,,,,,,,,,,,,,,,,,,,,,,,,,,,,092021,0,3,2,3,0,18,2021_Sep_20_1126,short_answer,3.2.4,60.35523157938189,
,13,,,,,0,13,13,13,,,,,,,,,,,,,,,,,,,,,,,,,,,,,,,,,,,,,,,,,,,,,,,,,,,,,,,,,,,,,,,,,,,,,,,,,,,,,,,,,,,,,,,,,,,,,,,,,,,,,,,,,,,,,,,,,,,,,,,,,,,,,,,,,,,,,,,,,,,,,,,,,,,,,,,,,,,,,,,092021,0,3,2,3,0,18,2021_Sep_20_1126,short_answer,3.2.4,60.35523157938189,
,14,,,,,0,14,14,14,0,0,0,0,,,,,,,,,,,,,,,,,1757.459553798,None,space,0.7429230060006375,1757.459553798,None,1757.459553798,None,1757.459553798,None,1758.2421248059995,None,1758.2421248059995,None,,A book,"[1, 2]",1759.0932996420001,None,1759.0932996420001,None,1759.0932996420001,None,1759.0932996420001,None,1759.0932996420001,None,1759.0932996420001,None,1759.0932996420001,None,If anna is alright,1765.9422221789996,None,1765.9422221789996,None,1765.9422221789996,None,1765.9422221789996,None,1765.9422221789996,None,1765.9422221789996,None,1765.9422221789996,None,In a week and for dinner for a date,1776.876395498,None,1776.876395498,None,1776.876395498,None,1776.876395498,None,1776.876395498,None,1776.876395498,None,1776.876395498,None,5 minutes before anna flight,1797.94199541,None,1797.94199541,None,1797.94199541,None,1797.94199541,None,1797.94199541,None,1797.94199541,None,1797.94199541,None,David has three hours and anna 35 minutes,1812.441954167,None,1812.441954167,None,1812.441954167,None,1812.441954167,None,1812.441954167,None,1812.441954167,None,1812.441954167,None,None,1831.5425564269995,None,1831.5425564269995,None,1831.5425564269995,None,1831.5425564269995,None,1831.5425564269995,None,1831.5425564269995,None,1831.5425564269995,None,,1837.675481496,None,1837.675481496,None,1837.675481496,None,1837.675481496,None,1837.675481496,None,1837.675481496,None,1837.675481496,None,,1839.0752075309997,None,1839.0752075309997,None,1839.0752075309997,None,1839.0752075309997,None,1839.0752075309997,None,1839.0752075309997,None,1839.0752075309997,None,,,092021,0,3,2,3,0,18,2021_Sep_20_1126,short_answer,3.2.4,60.35523157938189,
,14,,,,,0,14,14,14,,,,,,,,,,,,,,,,,,,,,,,,,,,,,,,,,,,,,,,,,,,,,,,,,,,,,,,,,,,,,,,,,,,,,,,,,,,,,,,,,,,,,,,,,,,,,,,,,,,,,,,,,,,,,,,,,,,,,,,,,,,,,,,,,,,,,,,,,,,,,,,,,,,,,,,,,,,,,,,092021,0,3,2,3,0,18,2021_Sep_20_1126,short_answer,3.2.4,60.35523157938189,
,15,,,,,0,15,15,15,0,0,0,0,,,,,,,,,,,,,,,,,1841.7749213249995,None,space,1.1818115719997877,1841.7749213249995,None,1841.7749213249995,None,1841.7749213249995,None,1842.9920295019997,None,1842.9920295019997,None,,Ms bianchi is a representant of a cheese and ms morrison is is the executive of a grocery store,"[1, 2]",1845.042338097,None,1845.042338097,None,1845.042338097,None,1845.042338097,None,1845.042338097,None,1845.042338097,None,1845.042338097,None,28 000,1923.4580049519996,None,1923.4580049519996,None,1923.4580049519996,None,1923.4580049519996,None,1923.4580049519996,None,1923.4580049519996,None,1923.4580049519996,None,,1929.357948896,None,1929.357948896,None,1929.357948896,None,1929.357948896,None,1929.357948896,None,1929.357948896,None,1929.357948896,None,Hug and share champagne,1932.1403799089999,None,1932.1403799089999,None,1932.1403799089999,None,1932.1403799089999,None,1932.1403799089999,None,1932.1403799089999,None,1932.1403799089999,None,Clean and organized,1943.3577977720001,None,1943.3577977720001,None,1943.3577977720001,None,1943.3577977720001,None,1943.3577977720001,None,1943.3577977720001,None,1943.3577977720001,None,"Crackers, jam, wine",1952.4739455329996,None,1952.4739455329996,None,1952.4739455329996,None,1952.4739455329996,None,1952.4739455329996,None,1952.4739455329996,None,1952.4739455329996,None,,1963.6413880329997,None,1963.6413880329997,None,1963.6413880329997,None,1963.6413880329997,None,1963.6413880329997,None,1963.6413880329997,None,1963.6413880329997,None,,1967.540582835,None,1967.540582835,None,1967.540582835,None,1967.540582835,None,1967.540582835,None,1967.540582835,None,1967.540582835,None,,,092021,0,3,2,3,0,18,2021_Sep_20_1126,short_answer,3.2.4,60.35523157938189,
,15,,,,,0,15,15,15,,,,,,,,,,,,,,,,,,,,,,,,,,,,,,,,,,,,,,,,,,,,,,,,,,,,,,,,,,,,,,,,,,,,,,,,,,,,,,,,,,,,,,,,,,,,,,,,,,,,,,,,,,,,,,,,,,,,,,,,,,,,,,,,,,,,,,,,,,,,,,,,,,,,,,,,,,,,,,,092021,0,3,2,3,0,18,2021_Sep_20_1126,short_answer,3.2.4,60.35523157938189,
,,,,,,,,,,,,,,0,0,0,0,,,,,,,,,,,,,,,,,,,,,,,,,,,,,,,,,,,,,,,,,,,,,,,,,,,,,,,,,,,,,,,,,,,,,,,,,,,,,,,,,,,,,,,,,,,,,,,,,,,,,,,,,,,,,,,,,,,,,,,,,,,,,,,,,,,,,,,,,,,,,,,,,,,,,1970.622348935,None,092021,0,3,2,3,0,18,2021_Sep_20_1126,short_answer,3.2.4,60.35523157938189,
