instructText,count,trials_5.thisRepN,trials_5.thisTrialN,trials_5.thisN,trials_5.thisIndex,trials_6.thisRepN,trials_6.thisTrialN,trials_6.thisN,trials_6.thisIndex,trials.thisRepN,trials.thisTrialN,trials.thisN,trials.thisIndex,trials_8.thisRepN,trials_8.thisTrialN,trials_8.thisN,trials_8.thisIndex,story_list_block1,action_list_block1,story_list_block2,action_list_block2,key_resp_3.keys,key_resp_3.rt,key_resp_3.started,key_resp_3.stopped,text_13.started,text_13.stopped,text_23.started,text_23.stopped,text_43.started,text_43.stopped,key_resp_11.keys,key_resp_11.rt,key_resp_11.started,key_resp_11.stopped,text_44.started,text_44.stopped,text_53.started,text_53.stopped,image_10.started,image_10.stopped,text_22.started,text_22.stopped,recall,question1_answer,order of question,text_14.started,text_14.stopped,text_15.started,text_15.stopped,image_6.started,image_6.stopped,polygon_3.started,polygon_3.stopped,bottom_line_3.started,bottom_line_3.stopped,right_line_3.started,right_line_3.stopped,left_line_3.started,left_line_3.stopped,question2_answer,text_16.started,text_16.stopped,text_17.started,text_17.stopped,image_7.started,image_7.stopped,polygon_4.started,polygon_4.stopped,bottom_line_4.started,bottom_line_4.stopped,right_line_4.started,right_line_4.stopped,left_line_4.started,left_line_4.stopped,question3_answer,text_18.started,text_18.stopped,text_19.started,text_19.stopped,image_8.started,image_8.stopped,polygon_5.started,polygon_5.stopped,bottom_line_5.started,bottom_line_5.stopped,right_line_5.started,right_line_5.stopped,left_line_5.started,left_line_5.stopped,question4_answer,text_20.started,text_20.stopped,text_21.started,text_21.stopped,image_9.started,image_9.stopped,polygon_6.started,polygon_6.stopped,bottom_line_6.started,bottom_line_6.stopped,right_line_6.started,right_line_6.stopped,left_line_6.started,left_line_6.stopped,question5_answer,text_25.started,text_25.stopped,text_26.started,text_26.stopped,image_11.started,image_11.stopped,polygon_7.started,polygon_7.stopped,bottom_line_7.started,bottom_line_7.stopped,right_line_7.started,right_line_7.stopped,left_line_7.started,left_line_7.stopped,question6_answer,text_27.started,text_27.stopped,text_28.started,text_28.stopped,image_12.started,image_12.stopped,polygon_8.started,polygon_8.stopped,bottom_line_8.started,bottom_line_8.stopped,right_line_8.started,right_line_8.stopped,left_line_8.started,left_line_8.stopped,question7_answer,text_29.started,text_29.stopped,text_30.started,text_30.stopped,image_13.started,image_13.stopped,polygon_9.started,polygon_9.stopped,bottom_line_9.started,bottom_line_9.stopped,right_line_9.started,right_line_9.stopped,left_line_9.started,left_line_9.stopped,question8_answer,text_31.started,text_31.stopped,text_32.started,text_32.stopped,image_14.started,image_14.stopped,polygon_10.started,polygon_10.stopped,bottom_line_10.started,bottom_line_10.stopped,right_line_10.started,right_line_10.stopped,left_line_10.started,left_line_10.stopped,text_36.started,text_36.stopped,participant,sA,sB,lA,lB,block_struct,random_seed,date,expName,psychopyVersion,frameRate,
"In the final part of the experiment, please answer 8 questions about each story.",,0,0,0,0,,,,,,,,,,,,,[44 31 13 42 33 22 24 11],[3 1 2 1 3 4 2 4],[34 23 14 32 12 43 21 41],[3 2 2 1 4 3 4 1],space,4.622908606999999,6.693256969999993,None,6.693256969999993,None,6.693256969999993,None,,,,,,,,,,,,,,,,,,,,,,,,,,,,,,,,,,,,,,,,,,,,,,,,,,,,,,,,,,,,,,,,,,,,,,,,,,,,,,,,,,,,,,,,,,,,,,,,,,,,,,,,,,,,,,,,,,,,,,,,,,,,,,,,,,,,,,,,,,,082021,2,3,2,3,1,72,2021_Aug_20_1418,short_answer,3.2.4,59.54595849372726,
"We did not tell you to think of all or some of these questions during the story, but please do your best to answer them.",,0,1,1,1,,,,,,,,,,,,,,,,,space,5.234322284999962,11.359166029000107,None,11.359166029000107,None,11.359166029000107,None,,,,,,,,,,,,,,,,,,,,,,,,,,,,,,,,,,,,,,,,,,,,,,,,,,,,,,,,,,,,,,,,,,,,,,,,,,,,,,,,,,,,,,,,,,,,,,,,,,,,,,,,,,,,,,,,,,,,,,,,,,,,,,,,,,,,,,,,,,,082021,2,3,2,3,1,72,2021_Aug_20_1418,short_answer,3.2.4,59.54595849372726,
"Answer as much as you remember, and be specific and concrete in your answers. It is best to try to be as faithful as possible to what the story actually said.
",,0,2,2,2,,,,,,,,,,,,,,,,,space,7.428091020000011,16.643599345999974,None,16.643599345999974,None,16.643599345999974,None,,,,,,,,,,,,,,,,,,,,,,,,,,,,,,,,,,,,,,,,,,,,,,,,,,,,,,,,,,,,,,,,,,,,,,,,,,,,,,,,,,,,,,,,,,,,,,,,,,,,,,,,,,,,,,,,,,,,,,,,,,,,,,,,,,,,,,,,,,,082021,2,3,2,3,1,72,2021_Aug_20_1418,short_answer,3.2.4,59.54595849372726,
"When you have finished typing your answer, hit ‘return’ to submit your answer and move onto the next question. ",,0,3,3,3,,,,,,,,,,,,,,,,,space,4.774744165000129,24.110707616000127,None,24.110707616000127,None,24.110707616000127,None,,,,,,,,,,,,,,,,,,,,,,,,,,,,,,,,,,,,,,,,,,,,,,,,,,,,,,,,,,,,,,,,,,,,,,,,,,,,,,,,,,,,,,,,,,,,,,,,,,,,,,,,,,,,,,,,,,,,,,,,,,,,,,,,,,,,,,,,,,,082021,2,3,2,3,1,72,2021_Aug_20_1418,short_answer,3.2.4,59.54595849372726,
,0,,,,,0,0,0,0,,,,,,,,,,,,,,,,,,,,,,,,,,,,,,,,,,,,,,,,,,,,,,,,,,,,,,,,,,,,,,,,,,,,,,,,,,,,,,,,,,,,,,,,,,,,,,,,,,,,,,,,,,,,,,,,,,,,,,,,,,,,,,,,,,,,,,,,,,,,,,,,,,,,,,,,,,,,,,,082021,2,3,2,3,1,72,2021_Aug_20_1418,short_answer,3.2.4,59.54595849372726,
,1,,,,,0,1,1,1,0,0,0,0,,,,,,,,,,,,,,,,,28.92725567499997,None,space,17.120042106000028,28.92725567499997,None,28.92725567499997,None,28.92725567499997,None,46.126443477000066,None,46.126443477000066,None,Cheers of their drinks,"Wood-panelled, chandeliers, taxidermied animals","[2, 1]",48.260155864000126,None,48.260155864000126,None,48.260155864000126,None,48.260155864000126,None,48.260155864000126,None,48.260155864000126,None,48.260155864000126,None,"Heavy, velvety exterior, long drink menu",85.59325848000003,None,85.59325848000003,None,85.59325848000003,None,85.59325848000003,None,85.59325848000003,None,85.59325848000003,None,85.59325848000003,None,Shelton orders veal; gordon orders steak,104.49292422100007,None,104.49292422100007,None,104.49292422100007,None,104.49292422100007,None,104.49292422100007,None,104.49292422100007,None,104.49292422100007,None,Both agree the meats are overcooked and they think the food is subpar,122.00908598000001,None,122.00908598000001,None,122.00908598000001,None,122.00908598000001,None,122.00908598000001,None,122.00908598000001,None,122.00908598000001,None,Shelton cfo; gordon ceo,137.74245207400008,None,137.74245207400008,None,137.74245207400008,None,137.74245207400008,None,137.74245207400008,None,137.74245207400008,None,137.74245207400008,None,600 million,151.30897134299994,None,151.30897134299994,None,151.30897134299994,None,151.30897134299994,None,151.30897134299994,None,151.30897134299994,None,151.30897134299994,None,,156.5593298220001,None,156.5593298220001,None,156.5593298220001,None,156.5593298220001,None,156.5593298220001,None,156.5593298220001,None,156.5593298220001,None,Cheers of their drinks,169.02641666599993,None,169.02641666599993,None,169.02641666599993,None,169.02641666599993,None,169.02641666599993,None,169.02641666599993,None,169.02641666599993,None,,,082021,2,3,2,3,1,72,2021_Aug_20_1418,short_answer,3.2.4,59.54595849372726,
,1,,,,,0,1,1,1,,,,,,,,,,,,,,,,,,,,,,,,,,,,,,,,,,,,,,,,,,,,,,,,,,,,,,,,,,,,,,,,,,,,,,,,,,,,,,,,,,,,,,,,,,,,,,,,,,,,,,,,,,,,,,,,,,,,,,,,,,,,,,,,,,,,,,,,,,,,,,,,,,,,,,,,,,,,,,,082021,2,3,2,3,1,72,2021_Aug_20_1418,short_answer,3.2.4,59.54595849372726,
,2,,,,,0,2,2,2,0,0,0,0,,,,,,,,,,,,,,,,,181.85752008300005,None,space,3.2687952080000287,181.85752008300005,None,181.85752008300005,None,181.85752008300005,None,185.17489061600008,None,185.17489061600008,None,Liam wants his cat,"Dimly lit, smells like lavender, organic produce display in the front","[2, 1]",186.47592898400012,None,186.47592898400012,None,186.47592898400012,None,186.47592898400012,None,186.47592898400012,None,186.47592898400012,None,186.47592898400012,None,"Bowtie pasta, vodka sauce, olives",209.17528661999995,None,209.17528661999995,None,209.17528661999995,None,209.17528661999995,None,209.17528661999995,None,209.17528661999995,None,209.17528661999995,None,"1, that 1",221.52511072200014,None,221.52511072200014,None,221.52511072200014,None,221.52511072200014,None,221.52511072200014,None,221.52511072200014,None,221.52511072200014,None,13 or 30 dollars; credit card,231.2254613980001,None,231.2254613980001,None,231.2254613980001,None,231.2254613980001,None,231.2254613980001,None,231.2254613980001,None,231.2254613980001,None,"Months, i think 6",243.67493476799996,None,243.67493476799996,None,243.67493476799996,None,243.67493476799996,None,243.67493476799996,None,243.67493476799996,None,243.67493476799996,None,They always get into arguments and emmanuella is tired of fighting over trivial things,275.0078100850001,None,275.0078100850001,None,275.0078100850001,None,275.0078100850001,None,275.0078100850001,None,275.0078100850001,None,275.0078100850001,None,"Yes liam agrees they should break up, because they'd both be happier with other people",297.290544641,None,297.290544641,None,297.290544641,None,297.290544641,None,297.290544641,None,297.290544641,None,297.290544641,None,Liam wants his cat,322.057351616,None,322.057351616,None,322.057351616,None,322.057351616,None,322.057351616,None,322.057351616,None,322.057351616,None,,,082021,2,3,2,3,1,72,2021_Aug_20_1418,short_answer,3.2.4,59.54595849372726,
,2,,,,,0,2,2,2,,,,,,,,,,,,,,,,,,,,,,,,,,,,,,,,,,,,,,,,,,,,,,,,,,,,,,,,,,,,,,,,,,,,,,,,,,,,,,,,,,,,,,,,,,,,,,,,,,,,,,,,,,,,,,,,,,,,,,,,,,,,,,,,,,,,,,,,,,,,,,,,,,,,,,,,,,,,,,,082021,2,3,2,3,1,72,2021_Aug_20_1418,short_answer,3.2.4,59.54595849372726,
,3,,,,,0,3,3,3,0,0,0,0,,,,,,,,,,,,,,,,,337.65654969699995,None,space,1.570710169999984,337.65654969699995,None,337.65654969699995,None,337.65654969699995,None,339.27282702799994,None,339.27282702799994,None,3,David 3 hours; anna 30 minutes,"[2, 1]",345.3890372620001,None,345.3890372620001,None,345.3890372620001,None,345.3890372620001,None,345.3890372620001,None,345.3890372620001,None,345.3890372620001,None,Technical issue i think,371.65655668599993,None,371.65655668599993,None,371.65655668599993,None,371.65655668599993,None,371.65655668599993,None,371.65655668599993,None,371.65655668599993,None,,386.122537878,None,386.122537878,None,386.122537878,None,386.122537878,None,386.122537878,None,386.122537878,None,386.122537878,None,,390.12261746000013,None,390.12261746000013,None,390.12261746000013,None,390.12261746000013,None,390.12261746000013,None,390.12261746000013,None,390.12261746000013,None,,397.3234891280001,None,397.3234891280001,None,397.3234891280001,None,397.3234891280001,None,397.3234891280001,None,397.3234891280001,None,397.3234891280001,None,"Are you a gymnast, david asks anna",399.805933437,None,399.805933437,None,399.805933437,None,399.805933437,None,399.805933437,None,399.805933437,None,399.805933437,None,They'll get drinks when they both return from their trips on tuesday,412.15605596599994,None,412.15605596599994,None,412.15605596599994,None,412.15605596599994,None,412.15605596599994,None,412.15605596599994,None,412.15605596599994,None,3,427.4726459420001,None,427.4726459420001,None,427.4726459420001,None,427.4726459420001,None,427.4726459420001,None,427.4726459420001,None,427.4726459420001,None,,,082021,2,3,2,3,1,72,2021_Aug_20_1418,short_answer,3.2.4,59.54595849372726,
,3,,,,,0,3,3,3,,,,,,,,,,,,,,,,,,,,,,,,,,,,,,,,,,,,,,,,,,,,,,,,,,,,,,,,,,,,,,,,,,,,,,,,,,,,,,,,,,,,,,,,,,,,,,,,,,,,,,,,,,,,,,,,,,,,,,,,,,,,,,,,,,,,,,,,,,,,,,,,,,,,,,,,,,,,,,,082021,2,3,2,3,1,72,2021_Aug_20_1418,short_answer,3.2.4,59.54595849372726,
,4,,,,,0,4,4,4,,,,,,,,,,,,,,,,,,,,,,,,,,,,,,,,,,,,,,,,,,,,,,,,,,,,,,,,,,,,,,,,,,,,,,,,,,,,,,,,,,,,,,,,,,,,,,,,,,,,,,,,,,,,,,,,,,,,,,,,,,,,,,,,,,,,,,,,,,,,,,,,,,,,,,,,,,,,,,,082021,2,3,2,3,1,72,2021_Aug_20_1418,short_answer,3.2.4,59.54595849372726,
,5,,,,,0,5,5,5,0,0,0,0,,,,,,,,,,,,,,,,,430.222152239,None,space,2.6808951069999694,430.222152239,None,430.222152239,None,430.222152239,None,432.9382422220001,None,432.9382422220001,None,Her friends,,"[2, 1]",434.20530768000003,None,434.20530768000003,None,434.20530768000003,None,434.20530768000003,None,434.20530768000003,None,434.20530768000003,None,434.20530768000003,None,Sven leaves the engagement ring in his pocket,438.00509891699994,None,438.00509891699994,None,438.00509891699994,None,438.00509891699994,None,438.00509891699994,None,438.00509891699994,None,438.00509891699994,None,,454.82137448799995,None,454.82137448799995,None,454.82137448799995,None,454.82137448799995,None,454.82137448799995,None,454.82137448799995,None,454.82137448799995,None,,456.454633049,None,456.454633049,None,456.454633049,None,456.454633049,None,456.454633049,None,456.454633049,None,456.454633049,None,,457.77177103500003,None,457.77177103500003,None,457.77177103500003,None,457.77177103500003,None,457.77177103500003,None,457.77177103500003,None,457.77177103500003,None,,461.721399798,None,461.721399798,None,461.721399798,None,461.721399798,None,461.721399798,None,461.721399798,None,461.721399798,None,Sven's hand,464.7720737750001,None,464.7720737750001,None,464.7720737750001,None,464.7720737750001,None,464.7720737750001,None,464.7720737750001,None,464.7720737750001,None,Her friends,474.037892455,None,474.037892455,None,474.037892455,None,474.037892455,None,474.037892455,None,474.037892455,None,474.037892455,None,,,082021,2,3,2,3,1,72,2021_Aug_20_1418,short_answer,3.2.4,59.54595849372726,
,5,,,,,0,5,5,5,,,,,,,,,,,,,,,,,,,,,,,,,,,,,,,,,,,,,,,,,,,,,,,,,,,,,,,,,,,,,,,,,,,,,,,,,,,,,,,,,,,,,,,,,,,,,,,,,,,,,,,,,,,,,,,,,,,,,,,,,,,,,,,,,,,,,,,,,,,,,,,,,,,,,,,,,,,,,,,082021,2,3,2,3,1,72,2021_Aug_20_1418,short_answer,3.2.4,59.54595849372726,
,6,,,,,0,6,6,6,0,0,0,0,,,,,,,,,,,,,,,,,486.670638394,None,space,1.2025147379999908,486.670638394,None,486.670638394,None,486.670638394,None,487.921514245,None,487.921514245,None,Final on friday, ,"[1, 2]",488.972342946,None,488.972342946,None,488.972342946,None,488.972342946,None,488.972342946,None,488.972342946,None,488.972342946,None,"Red, 5",492.721266348,None,492.721266348,None,492.721266348,None,492.721266348,None,492.721266348,None,492.721266348,None,492.721266348,None,Aaron's notebook,498.187585378,None,498.187585378,None,498.187585378,None,498.187585378,None,498.187585378,None,498.187585378,None,498.187585378,None,Her dad,505.6548591390001,None,505.6548591390001,None,505.6548591390001,None,505.6548591390001,None,505.6548591390001,None,505.6548591390001,None,505.6548591390001,None,"Rows of desks, stage at front for professor",508.77121172700004,None,508.77121172700004,None,508.77121172700004,None,508.77121172700004,None,508.77121172700004,None,508.77121172700004,None,508.77121172700004,None,"Ancient philosophy, aristotle",529.588565127,None,529.588565127,None,529.588565127,None,529.588565127,None,529.588565127,None,529.588565127,None,529.588565127,None,Categories,540.987273191,None,540.987273191,None,540.987273191,None,540.987273191,None,540.987273191,None,540.987273191,None,540.987273191,None,Final on friday,545.5711305080001,None,545.5711305080001,None,545.5711305080001,None,545.5711305080001,None,545.5711305080001,None,545.5711305080001,None,545.5711305080001,None,,,082021,2,3,2,3,1,72,2021_Aug_20_1418,short_answer,3.2.4,59.54595849372726,
,6,,,,,0,6,6,6,,,,,,,,,,,,,,,,,,,,,,,,,,,,,,,,,,,,,,,,,,,,,,,,,,,,,,,,,,,,,,,,,,,,,,,,,,,,,,,,,,,,,,,,,,,,,,,,,,,,,,,,,,,,,,,,,,,,,,,,,,,,,,,,,,,,,,,,,,,,,,,,,,,,,,,,,,,,,,,082021,2,3,2,3,1,72,2021_Aug_20_1418,short_answer,3.2.4,59.54595849372726,
,7,,,,,0,7,7,7,0,0,0,0,,,,,,,,,,,,,,,,,552.187513615,None,space,1.3988167189997966,552.187513615,None,552.187513615,None,552.187513615,None,553.636967531,None,553.636967531,None,Sadie wants her beatles poster and polaroid,"Diner, booths","[2, 1]",555.1205784220001,None,555.1205784220001,None,555.1205784220001,None,555.1205784220001,None,555.1205784220001,None,555.1205784220001,None,555.1205784220001,None,Laminated,564.5873390940001,None,564.5873390940001,None,564.5873390940001,None,564.5873390940001,None,564.5873390940001,None,564.5873390940001,None,564.5873390940001,None,"Thomas burger without tomatoes, sadie reuben",568.5695998589999,None,568.5695998589999,None,568.5695998589999,None,568.5695998589999,None,568.5695998589999,None,568.5695998589999,None,568.5695998589999,None,Thomas finds his fishy,581.236927534,None,581.236927534,None,581.236927534,None,581.236927534,None,581.236927534,None,581.236927534,None,581.236927534,None,,594.3538422409999,None,594.3538422409999,None,594.3538422409999,None,594.3538422409999,None,594.3538422409999,None,594.3538422409999,None,594.3538422409999,None,"Thomas wants to focus on his career, changing careers and his current job",602.2708734550001,None,602.2708734550001,None,602.2708734550001,None,602.2708734550001,None,602.2708734550001,None,602.2708734550001,None,602.2708734550001,None,No she thinks they are fine and can just spend less time together,623.7035422420001,None,623.7035422420001,None,623.7035422420001,None,623.7035422420001,None,623.7035422420001,None,623.7035422420001,None,623.7035422420001,None,Sadie wants her beatles poster and polaroid,641.836096947,None,641.836096947,None,641.836096947,None,641.836096947,None,641.836096947,None,641.836096947,None,641.836096947,None,,,082021,2,3,2,3,1,72,2021_Aug_20_1418,short_answer,3.2.4,59.54595849372726,
,7,,,,,0,7,7,7,,,,,,,,,,,,,,,,,,,,,,,,,,,,,,,,,,,,,,,,,,,,,,,,,,,,,,,,,,,,,,,,,,,,,,,,,,,,,,,,,,,,,,,,,,,,,,,,,,,,,,,,,,,,,,,,,,,,,,,,,,,,,,,,,,,,,,,,,,,,,,,,,,,,,,,,,,,,,,,082021,2,3,2,3,1,72,2021_Aug_20_1418,short_answer,3.2.4,59.54595849372726,
,8,,,,,0,8,8,8,,,,,,,,,,,,,,,,,,,,,,,,,,,,,,,,,,,,,,,,,,,,,,,,,,,,,,,,,,,,,,,,,,,,,,,,,,,,,,,,,,,,,,,,,,,,,,,,,,,,,,,,,,,,,,,,,,,,,,,,,,,,,,,,,,,,,,,,,,,,,,,,,,,,,,,,,,,,,,,082021,2,3,2,3,1,72,2021_Aug_20_1418,short_answer,3.2.4,59.54595849372726,
,9,,,,,0,9,9,9,0,0,0,0,,,,,,,,,,,,,,,,,650.91865196,None,space,1.0865778790000604,650.91865196,None,650.91865196,None,650.91865196,None,652.052456571,None,652.052456571,None,,,"[1, 2]",653.7359428469999,None,653.7359428469999,None,653.7359428469999,None,653.7359428469999,None,653.7359428469999,None,653.7359428469999,None,653.7359428469999,None,"1 diamon, sparkly clear",657.903067896,None,657.903067896,None,657.903067896,None,657.903067896,None,657.903067896,None,657.903067896,None,657.903067896,None,Ring box,670.102448508,None,670.102448508,None,670.102448508,None,670.102448508,None,670.102448508,None,670.102448508,None,670.102448508,None,,681.1027768629999,None,681.1027768629999,None,681.1027768629999,None,681.1027768629999,None,681.1027768629999,None,681.1027768629999,None,681.1027768629999,None,,687.3859791760001,None,687.3859791760001,None,687.3859791760001,None,687.3859791760001,None,687.3859791760001,None,687.3859791760001,None,687.3859791760001,None,,689.2518614319999,None,689.2518614319999,None,689.2518614319999,None,689.2518614319999,None,689.2518614319999,None,689.2518614319999,None,689.2518614319999,None,,693.1859126680001,None,693.1859126680001,None,693.1859126680001,None,693.1859126680001,None,693.1859126680001,None,693.1859126680001,None,693.1859126680001,None,,695.035913836,None,695.035913836,None,695.035913836,None,695.035913836,None,695.035913836,None,695.035913836,None,695.035913836,None,,,082021,2,3,2,3,1,72,2021_Aug_20_1418,short_answer,3.2.4,59.54595849372726,
,9,,,,,0,9,9,9,,,,,,,,,,,,,,,,,,,,,,,,,,,,,,,,,,,,,,,,,,,,,,,,,,,,,,,,,,,,,,,,,,,,,,,,,,,,,,,,,,,,,,,,,,,,,,,,,,,,,,,,,,,,,,,,,,,,,,,,,,,,,,,,,,,,,,,,,,,,,,,,,,,,,,,,,,,,,,,082021,2,3,2,3,1,72,2021_Aug_20_1418,short_answer,3.2.4,59.54595849372726,
,10,,,,,0,10,10,10,0,0,0,0,,,,,,,,,,,,,,,,,698.085107273,None,space,2.1394730150000214,698.085107273,None,698.085107273,None,698.085107273,None,700.2682273310002,None,700.2682273310002,None,,Week,"[1, 2]",701.9521825900001,None,701.9521825900001,None,701.9521825900001,None,701.9521825900001,None,701.9521825900001,None,701.9521825900001,None,701.9521825900001,None,She wants to focus on her study abroad and doesnt want to do long distance,715.9521977240001,None,715.9521977240001,None,715.9521977240001,None,715.9521977240001,None,715.9521977240001,None,715.9521977240001,None,715.9521977240001,None,"No he loves her and wants to stay together, suggests he can visit",730.385050763,None,730.385050763,None,730.385050763,None,730.385050763,None,730.385050763,None,730.385050763,None,730.385050763,None,She wants her alpaca sweater,741.4015144539999,None,741.4015144539999,None,741.4015144539999,None,741.4015144539999,None,741.4015144539999,None,741.4015144539999,None,741.4015144539999,None,,747.834826239,None,747.834826239,None,747.834826239,None,747.834826239,None,747.834826239,None,747.834826239,None,747.834826239,None,,750.734618645,None,750.734618645,None,750.734618645,None,750.734618645,None,750.734618645,None,750.734618645,None,750.734618645,None,,757.651149799,None,757.651149799,None,757.651149799,None,757.651149799,None,757.651149799,None,757.651149799,None,757.651149799,None,,759.7517131600002,None,759.7517131600002,None,759.7517131600002,None,759.7517131600002,None,759.7517131600002,None,759.7517131600002,None,759.7517131600002,None,,,082021,2,3,2,3,1,72,2021_Aug_20_1418,short_answer,3.2.4,59.54595849372726,
,10,,,,,0,10,10,10,,,,,,,,,,,,,,,,,,,,,,,,,,,,,,,,,,,,,,,,,,,,,,,,,,,,,,,,,,,,,,,,,,,,,,,,,,,,,,,,,,,,,,,,,,,,,,,,,,,,,,,,,,,,,,,,,,,,,,,,,,,,,,,,,,,,,,,,,,,,,,,,,,,,,,,,,,,,,,,082021,2,3,2,3,1,72,2021_Aug_20_1418,short_answer,3.2.4,59.54595849372726,
,11,,,,,0,11,11,11,0,0,0,0,,,,,,,,,,,,,,,,,762.1172921960001,None,space,1.526311699999951,762.1172921960001,None,762.1172921960001,None,762.1172921960001,None,763.6842710350002,None,763.6842710350002,None,,"Jeff salesperson, william buyer for events","[1, 2]",765.3009360420001,None,765.3009360420001,None,765.3009360420001,None,765.3009360420001,None,765.3009360420001,None,765.3009360420001,None,765.3009360420001,None,800,779.0680688080001,None,779.0680688080001,None,779.0680688080001,None,779.0680688080001,None,779.0680688080001,None,779.0680688080001,None,779.0680688080001,None,Yankee wines,782.0347615410001,None,782.0347615410001,None,782.0347615410001,None,782.0347615410001,None,782.0347615410001,None,782.0347615410001,None,782.0347615410001,None,Handshake,788.517783712,None,788.517783712,None,788.517783712,None,788.517783712,None,788.517783712,None,788.517783712,None,788.517783712,None,,792.4509849599999,None,792.4509849599999,None,792.4509849599999,None,792.4509849599999,None,792.4509849599999,None,792.4509849599999,None,792.4509849599999,None,,794.9843354119998,None,794.9843354119998,None,794.9843354119998,None,794.9843354119998,None,794.9843354119998,None,794.9843354119998,None,794.9843354119998,None,,796.9173525860001,None,796.9173525860001,None,796.9173525860001,None,796.9173525860001,None,796.9173525860001,None,796.9173525860001,None,796.9173525860001,None,,799.450444348,None,799.450444348,None,799.450444348,None,799.450444348,None,799.450444348,None,799.450444348,None,799.450444348,None,,,082021,2,3,2,3,1,72,2021_Aug_20_1418,short_answer,3.2.4,59.54595849372726,
,11,,,,,0,11,11,11,,,,,,,,,,,,,,,,,,,,,,,,,,,,,,,,,,,,,,,,,,,,,,,,,,,,,,,,,,,,,,,,,,,,,,,,,,,,,,,,,,,,,,,,,,,,,,,,,,,,,,,,,,,,,,,,,,,,,,,,,,,,,,,,,,,,,,,,,,,,,,,,,,,,,,,,,,,,,,,082021,2,3,2,3,1,72,2021_Aug_20_1418,short_answer,3.2.4,59.54595849372726,
,12,,,,,0,12,12,12,0,0,0,0,,,,,,,,,,,,,,,,,800.3166250630002,None,space,2.0075811069996234,800.3166250630002,None,800.3166250630002,None,800.3166250630002,None,802.3671107790001,None,802.3671107790001,None,,,"[1, 2]",803.9012824229999,None,803.9012824229999,None,803.9012824229999,None,803.9012824229999,None,803.9012824229999,None,803.9012824229999,None,803.9012824229999,None,She doesnt think their personalities are compatible,810.0007529330001,None,810.0007529330001,None,810.0007529330001,None,810.0007529330001,None,810.0007529330001,None,810.0007529330001,None,810.0007529330001,None,"He is frustrated bc he's been trying to appease her, but agrees it wont work out",820.4337116209999,None,820.4337116209999,None,820.4337116209999,None,820.4337116209999,None,820.4337116209999,None,820.4337116209999,None,820.4337116209999,None,She wants her philosophy books,839.7337978629998,None,839.7337978629998,None,839.7337978629998,None,839.7337978629998,None,839.7337978629998,None,839.7337978629998,None,839.7337978629998,None,,846.766985841,None,846.766985841,None,846.766985841,None,846.766985841,None,846.766985841,None,846.766985841,None,846.766985841,None,,848.8836255340002,None,848.8836255340002,None,848.8836255340002,None,848.8836255340002,None,848.8836255340002,None,848.8836255340002,None,848.8836255340002,None,,850.7999192980001,None,850.7999192980001,None,850.7999192980001,None,850.7999192980001,None,850.7999192980001,None,850.7999192980001,None,850.7999192980001,None,,851.9329564600002,None,851.9329564600002,None,851.9329564600002,None,851.9329564600002,None,851.9329564600002,None,851.9329564600002,None,851.9329564600002,None,,,082021,2,3,2,3,1,72,2021_Aug_20_1418,short_answer,3.2.4,59.54595849372726,
,12,,,,,0,12,12,12,,,,,,,,,,,,,,,,,,,,,,,,,,,,,,,,,,,,,,,,,,,,,,,,,,,,,,,,,,,,,,,,,,,,,,,,,,,,,,,,,,,,,,,,,,,,,,,,,,,,,,,,,,,,,,,,,,,,,,,,,,,,,,,,,,,,,,,,,,,,,,,,,,,,,,,,,,,,,,,082021,2,3,2,3,1,72,2021_Aug_20_1418,short_answer,3.2.4,59.54595849372726,
,13,,,,,0,13,13,13,,,,,,,,,,,,,,,,,,,,,,,,,,,,,,,,,,,,,,,,,,,,,,,,,,,,,,,,,,,,,,,,,,,,,,,,,,,,,,,,,,,,,,,,,,,,,,,,,,,,,,,,,,,,,,,,,,,,,,,,,,,,,,,,,,,,,,,,,,,,,,,,,,,,,,,,,,,,,,,082021,2,3,2,3,1,72,2021_Aug_20_1418,short_answer,3.2.4,59.54595849372726,
,14,,,,,0,14,14,14,0,0,0,0,,,,,,,,,,,,,,,,,852.5335806890002,None,space,0.871893172,852.5335806890002,None,852.5335806890002,None,852.5335806890002,None,853.4500149350001,None,853.4500149350001,None,Both enjoy, ,"[1, 2]",854.9502943090001,None,854.9502943090001,None,854.9502943090001,None,854.9502943090001,None,854.9502943090001,None,854.9502943090001,None,854.9502943090001,None,,857.5839017419999,None,857.5839017419999,None,857.5839017419999,None,857.5839017419999,None,857.5839017419999,None,857.5839017419999,None,857.5839017419999,None,Small cake,859.0171603620001,None,859.0171603620001,None,859.0171603620001,None,859.0171603620001,None,859.0171603620001,None,859.0171603620001,None,859.0171603620001,None,,862.6503966549999,None,862.6503966549999,None,862.6503966549999,None,862.6503966549999,None,862.6503966549999,None,862.6503966549999,None,862.6503966549999,None,"Nice views, small priceless menus, fancy",864.333775095,None,864.333775095,None,864.333775095,None,864.333775095,None,864.333775095,None,864.333775095,None,864.333775095,None,"Small with fancy script and no prices, few items selected by chef",878.133127052,None,878.133127052,None,878.133127052,None,878.133127052,None,878.133127052,None,878.133127052,None,878.133127052,None,,892.5325218319999,None,892.5325218319999,None,892.5325218319999,None,892.5325218319999,None,892.5325218319999,None,892.5325218319999,None,892.5325218319999,None,Both enjoy,896.9495280860001,None,896.9495280860001,None,896.9495280860001,None,896.9495280860001,None,896.9495280860001,None,896.9495280860001,None,896.9495280860001,None,,,082021,2,3,2,3,1,72,2021_Aug_20_1418,short_answer,3.2.4,59.54595849372726,
,14,,,,,0,14,14,14,,,,,,,,,,,,,,,,,,,,,,,,,,,,,,,,,,,,,,,,,,,,,,,,,,,,,,,,,,,,,,,,,,,,,,,,,,,,,,,,,,,,,,,,,,,,,,,,,,,,,,,,,,,,,,,,,,,,,,,,,,,,,,,,,,,,,,,,,,,,,,,,,,,,,,,,,,,,,,,082021,2,3,2,3,1,72,2021_Aug_20_1418,short_answer,3.2.4,59.54595849372726,
,15,,,,,0,15,15,15,0,0,0,0,,,,,,,,,,,,,,,,,904.0662732979999,None,space,1.218529763999868,904.0662732979999,None,904.0662732979999,None,904.0662732979999,None,905.3323149130001,None,905.3323149130001,None,, ,"[1, 2]",907.0494840030001,None,907.0494840030001,None,907.0494840030001,None,907.0494840030001,None,907.0494840030001,None,907.0494840030001,None,907.0494840030001,None,,910.5825860670002,None,910.5825860670002,None,910.5825860670002,None,910.5825860670002,None,910.5825860670002,None,910.5825860670002,None,910.5825860670002,None,Concert that tonight,912.9993510529998,None,912.9993510529998,None,912.9993510529998,None,912.9993510529998,None,912.9993510529998,None,912.9993510529998,None,912.9993510529998,None,,919.6165353480001,None,919.6165353480001,None,919.6165353480001,None,919.6165353480001,None,919.6165353480001,None,919.6165353480001,None,919.6165353480001,None,"Sushi restaurant, they sit at a bar",921.6489958769998,None,921.6489958769998,None,921.6489958769998,None,921.6489958769998,None,921.6489958769998,None,921.6489958769998,None,921.6489958769998,None,,932.7156668590001,None,932.7156668590001,None,932.7156668590001,None,932.7156668590001,None,932.7156668590001,None,932.7156668590001,None,932.7156668590001,None,"James vegetable and tuna roll, teresa salmon roll and beer",934.5160563160002,None,934.5160563160002,None,934.5160563160002,None,934.5160563160002,None,934.5160563160002,None,934.5160563160002,None,934.5160563160002,None,,948.3657996920001,None,948.3657996920001,None,948.3657996920001,None,948.3657996920001,None,948.3657996920001,None,948.3657996920001,None,948.3657996920001,None,,,082021,2,3,2,3,1,72,2021_Aug_20_1418,short_answer,3.2.4,59.54595849372726,
,15,,,,,0,15,15,15,,,,,,,,,,,,,,,,,,,,,,,,,,,,,,,,,,,,,,,,,,,,,,,,,,,,,,,,,,,,,,,,,,,,,,,,,,,,,,,,,,,,,,,,,,,,,,,,,,,,,,,,,,,,,,,,,,,,,,,,,,,,,,,,,,,,,,,,,,,,,,,,,,,,,,,,,,,,,,,082021,2,3,2,3,1,72,2021_Aug_20_1418,short_answer,3.2.4,59.54595849372726,
,,,,,,,,,,,,,,0,0,0,0,,,,,,,,,,,,,,,,,,,,,,,,,,,,,,,,,,,,,,,,,,,,,,,,,,,,,,,,,,,,,,,,,,,,,,,,,,,,,,,,,,,,,,,,,,,,,,,,,,,,,,,,,,,,,,,,,,,,,,,,,,,,,,,,,,,,,,,,,,,,,,,,,,,,,951.0143642930002,None,082021,2,3,2,3,1,72,2021_Aug_20_1418,short_answer,3.2.4,59.54595849372726,
