count,audio,trials_14.thisRepN,trials_14.thisTrialN,trials_14.thisN,trials_14.thisIndex,trials_3.thisRepN,trials_3.thisTrialN,trials_3.thisN,trials_3.thisIndex,trials_4.thisRepN,trials_4.thisTrialN,trials_4.thisN,trials_4.thisIndex,trials_6.thisRepN,trials_6.thisTrialN,trials_6.thisN,trials_6.thisIndex,trials_9.thisRepN,trials_9.thisTrialN,trials_9.thisN,trials_9.thisIndex,trials_10.thisRepN,trials_10.thisTrialN,trials_10.thisN,trials_10.thisIndex,trials_11.thisRepN,trials_11.thisTrialN,trials_11.thisN,trials_11.thisIndex,trials_12.thisRepN,trials_12.thisTrialN,trials_12.thisN,trials_12.thisIndex,trials_25.thisRepN,trials_25.thisTrialN,trials_25.thisN,trials_25.thisIndex,trials_15.thisRepN,trials_15.thisTrialN,trials_15.thisN,trials_15.thisIndex,trials_26.thisRepN,trials_26.thisTrialN,trials_26.thisN,trials_26.thisIndex,trials_8.thisRepN,trials_8.thisTrialN,trials_8.thisN,trials_8.thisIndex,story_list_block2,action_list_block2,textTrigger.started,textTrigger.stopped,getTrigger.keys,getTrigger.rt,getTrigger.started,getTrigger.stopped,triggerTime,text_76.started,text_76.stopped,text_77.started,text_77.stopped,startWait,endWait,image_23.started,image_23.stopped,text_55.started,text_55.stopped,text_56.started,text_56.stopped,key_resp_2.keys,key_resp_2.rt,key_resp_2.started,key_resp_2.stopped,text_82.started,text_82.stopped,text_57.started,text_57.stopped,key_resp_17.keys,key_resp_17.rt,key_resp_17.started,key_resp_17.stopped,text_83.started,text_83.stopped,text_60.started,text_60.stopped,image_2.started,image_2.stopped,text_58.started,text_58.stopped,key_resp_23.keys,key_resp_23.rt,key_resp_23.started,key_resp_23.stopped,text_62.started,text_62.stopped,key_resp_18.keys,key_resp_18.rt,key_resp_18.started,key_resp_18.stopped,text_84.started,text_84.stopped,question1_2.started,question1_2.stopped,question2_2.started,question2_2.stopped,question3_2.started,question3_2.stopped,question4_2.started,question4_2.stopped,question5_2.started,question5_2.stopped,question6_2.started,question6_2.stopped,image_15.started,image_15.stopped,key_resp.keys,key_resp.started,key_resp.stopped,text_59.started,text_59.stopped,key_resp_19.keys,key_resp_19.rt,key_resp_19.started,key_resp_19.stopped,text_85.started,text_85.stopped,text_61.started,text_61.stopped,image_17.started,image_17.stopped,text_63.started,text_63.stopped,key_resp_24.keys,key_resp_24.rt,key_resp_24.started,key_resp_24.stopped,text_64.started,text_64.stopped,key_resp_20.keys,key_resp_20.rt,key_resp_20.started,key_resp_20.stopped,storyImage_StartTime,storyImage_EndTime,clip_StartTime,clip_EndTime,text_67.started,text_67.stopped,text_68.started,text_68.stopped,text_36.started,text_36.stopped,participant,sA,sB,lA,lB,block_struct,play_stories,block,behavioral,random_seed,date,expName,psychopyVersion,frameRate,
0,,,,,,,,,,0,0,0,0,0,0,0,0,,,,,,,,,,,,,,,,,,,,,,,,,,,,,,,,,[34 23 14 32 12 43 21 41],[3 2 2 1 4 3 4 1],26.16215232399918,None,equal,16.46609920300034,26.16215232399918,None,16.482202095999128,26.16215232399918,None,26.16215232399918,None,0.00032422399999632034,5.999193649000517,42.649951761999546,None,,,,,,,,,,,,,,,,,,,,,,,,,,,,,,,,,,,,,,,,,,,,,,,,,,,,,,,,,,,,,,,,,,,,,,,,,,,,,,,,,,,,,,,,082021,2,3,2,3,1,1,2,0,72,2021_Aug_20_1310,listening_fmri,3.2.4,59.99981376080142,
1,,,,,,,,,,0,0,0,0,0,1,1,1,0,0,0,0,0,0,0,0,0,0,0,0,,,,,,,,,,,,,,,,,,,,,,,,,,,,,,,,,,,,,,48.66245718399932,None,48.66245718399932,None,2,2.883784208000179,48.66245718399932,None,48.66245718399932,None,51.57860737699957,None,2,0.7795214070001748,51.57860737699957,None,51.57860737699957,None,52.39919128999918,None,52.39919128999918,None,52.39919128999918,None,2,0.9629413710008521,52.39919128999918,None,53.38261886499913,None,2,0.8966537549995337,53.38261886499913,None,53.38261886499913,None,54.378395168999305,None,54.378395168999305,None,54.378395168999305,None,54.378395168999305,None,54.378395168999305,None,54.378395168999305,None,54.378395168999305,None,None,54.378395168999305,None,,,,,,,,,,,,,,,,,,,,,,,,,,,,,,,,,,,082021,2,3,2,3,1,1,2,0,72,2021_Aug_20_1310,listening_fmri,3.2.4,59.99981376080142,
1,,,,,,,,,,0,0,0,0,0,1,1,1,0,0,0,0,0,0,0,0,,,,,,,,,,,,,,,,,,,,,,,,,,,,,,,,,,,,,,,,,,,,,,,,,,,,,,,,,,,,,,,,,,,,,,,,,,,,,,,,,,,,,,,,,,,,,,,76.39588803099923,None,2,0.616265310000017,76.39588803099923,None,76.39588803099923,None,77.06280146999961,None,77.06280146999961,None,77.06280146999961,None,2,0.5334352850004507,77.06280146999961,None,,,,,,,,,,,,,,,,,082021,2,3,2,3,1,1,2,0,72,2021_Aug_20_1310,listening_fmri,3.2.4,59.99981376080142,
1,parcelated_audio/23/23_1.ogg,,,,,,,,,0,0,0,0,0,1,1,1,0,0,0,0,,,,,,,,,,,,,0,0,0,0,0,0,0,0,,,,,,,,,,,,,,,,,,,,,,,,,,,,,,,,,,,,,,,,,,,,,,,,,,,,,,,,,,,,,,,,,,,,,,,,,,,,,,,,,,,,,,,,,,,,,,,,,77.61637742899984,None,2,1.327756409000358,77.61637742899984,None,36.34335544000078,39.34508956100035,39.350832082000125,49.77189228100087,,,,,,,082021,2,3,2,3,1,1,2,0,72,2021_Aug_20_1310,listening_fmri,3.2.4,59.99981376080142,
1,parcelated_audio/23/23_2.ogg,,,,,,,,,0,0,0,0,0,1,1,1,0,0,0,0,,,,,,,,,,,,,0,0,0,0,0,1,1,1,,,,,,,,,,,,,,,,,,,,,,,,,,,,,,,,,,,,,,,,,,,,,,,,,,,,,,,,,,,,,,,,,,,,,,,,,,,,,,,,,,,,,,,,,,,,,,,,,,,,,,,,,49.772241509000196,56.660238293000475,,,,,,,082021,2,3,2,3,1,1,2,0,72,2021_Aug_20_1310,listening_fmri,3.2.4,59.99981376080142,
1,parcelated_audio/23/23_3.ogg,,,,,,,,,0,0,0,0,0,1,1,1,0,0,0,0,,,,,,,,,,,,,0,0,0,0,0,2,2,2,,,,,,,,,,,,,,,,,,,,,,,,,,,,,,,,,,,,,,,,,,,,,,,,,,,,,,,,,,,,,,,,,,,,,,,,,,,,,,,,,,,,,,,,,,,,,,,,,,,,,,,,,56.6605935080006,62.45416257100078,,,,,,,082021,2,3,2,3,1,1,2,0,72,2021_Aug_20_1310,listening_fmri,3.2.4,59.99981376080142,
1,parcelated_audio/23/23_4.ogg,,,,,,,,,0,0,0,0,0,1,1,1,0,0,0,0,,,,,,,,,,,,,0,0,0,0,0,3,3,3,,,,,,,,,,,,,,,,,,,,,,,,,,,,,,,,,,,,,,,,,,,,,,,,,,,,,,,,,,,,,,,,,,,,,,,,,,,,,,,,,,,,,,,,,,,,,,,,,,,,,,,,,62.45458233200043,73.73022336100075,,,,,,,082021,2,3,2,3,1,1,2,0,72,2021_Aug_20_1310,listening_fmri,3.2.4,59.99981376080142,
1,parcelated_audio/23/23_5.ogg,,,,,,,,,0,0,0,0,0,1,1,1,0,0,0,0,,,,,,,,,,,,,0,0,0,0,0,4,4,4,,,,,,,,,,,,,,,,,,,,,,,,,,,,,,,,,,,,,,,,,,,,,,,,,,,,,,,,,,,,,,,,,,,,,,,,,,,,,,,,,,,,,,,,,,,,,,,,,,,,,,,,,73.73056550000001,79.96540019300028,,,,,,,082021,2,3,2,3,1,1,2,0,72,2021_Aug_20_1310,listening_fmri,3.2.4,59.99981376080142,
1,parcelated_audio/23/23_6.ogg,,,,,,,,,0,0,0,0,0,1,1,1,0,0,0,0,,,,,,,,,,,,,0,0,0,0,0,5,5,5,,,,,,,,,,,,,,,,,,,,,,,,,,,,,,,,,,,,,,,,,,,,,,,,,,,,,,,,,,,,,,,,,,,,,,,,,,,,,,,,,,,,,,,,,,,,,,,,,,,,,,,,,79.96694933500021,87.38224671100033,,,,,,,082021,2,3,2,3,1,1,2,0,72,2021_Aug_20_1310,listening_fmri,3.2.4,59.99981376080142,
1,parcelated_audio/23/23_7.ogg,,,,,,,,,0,0,0,0,0,1,1,1,0,0,0,0,,,,,,,,,,,,,0,0,0,0,0,6,6,6,,,,,,,,,,,,,,,,,,,,,,,,,,,,,,,,,,,,,,,,,,,,,,,,,,,,,,,,,,,,,,,,,,,,,,,,,,,,,,,,,,,,,,,,,,,,,,,,,,,,,,,,,87.38259418500002,94.14217509800073,,,,,,,082021,2,3,2,3,1,1,2,0,72,2021_Aug_20_1310,listening_fmri,3.2.4,59.99981376080142,
1,parcelated_audio/23/23_8.ogg,,,,,,,,,0,0,0,0,0,1,1,1,0,0,0,0,,,,,,,,,,,,,0,0,0,0,0,7,7,7,,,,,,,,,,,,,,,,,,,,,,,,,,,,,,,,,,,,,,,,,,,,,,,,,,,,,,,,,,,,,,,,,,,,,,,,,,,,,,,,,,,,,,,,,,,,,,,,,,,,,,,,,94.1431823440007,99.5614224230003,,,,,,,082021,2,3,2,3,1,1,2,0,72,2021_Aug_20_1310,listening_fmri,3.2.4,59.99981376080142,
1,parcelated_audio/23/23_9.ogg,,,,,,,,,0,0,0,0,0,1,1,1,0,0,0,0,,,,,,,,,,,,,0,0,0,0,0,8,8,8,,,,,,,,,,,,,,,,,,,,,,,,,,,,,,,,,,,,,,,,,,,,,,,,,,,,,,,,,,,,,,,,,,,,,,,,,,,,,,,,,,,,,,,,,,,,,,,,,,,,,,,,,99.56174492900027,103.96785963100047,,,,,,,082021,2,3,2,3,1,1,2,0,72,2021_Aug_20_1310,listening_fmri,3.2.4,59.99981376080142,
1,parcelated_audio/23/23_10.ogg,,,,,,,,,0,0,0,0,0,1,1,1,0,0,0,0,,,,,,,,,,,,,0,0,0,0,0,9,9,9,,,,,,,,,,,,,,,,,,,,,,,,,,,,,,,,,,,,,,,,,,,,,,,,,,,,,,,,,,,,,,,,,,,,,,,,,,,,,,,,,,,,,,,,,,,,,,,,,,,,,,,,,103.96820601400032,107.94210501000089,,,,,,,082021,2,3,2,3,1,1,2,0,72,2021_Aug_20_1310,listening_fmri,3.2.4,59.99981376080142,
1,parcelated_audio/23/23_11.ogg,,,,,,,,,0,0,0,0,0,1,1,1,0,0,0,0,,,,,,,,,,,,,0,0,0,0,0,10,10,10,,,,,,,,,,,,,,,,,,,,,,,,,,,,,,,,,,,,,,,,,,,,,,,,,,,,,,,,,,,,,,,,,,,,,,,,,,,,,,,,,,,,,,,,,,,,,,,,,,,,,,,,,107.94547058700027,116.09137168100006,,,,,,,082021,2,3,2,3,1,1,2,0,72,2021_Aug_20_1310,listening_fmri,3.2.4,59.99981376080142,
1,parcelated_audio/23/23_12.ogg,,,,,,,,,0,0,0,0,0,1,1,1,0,0,0,0,,,,,,,,,,,,,0,0,0,0,0,11,11,11,,,,,,,,,,,,,,,,,,,,,,,,,,,,,,,,,,,,,,,,,,,,,,,,,,,,,,,,,,,,,,,,,,,,,,,,,,,,,,,,,,,,,,,,,,,,,,,,,,,,,,,,,116.09189680100008,123.25224668700048,,,,,,,082021,2,3,2,3,1,1,2,0,72,2021_Aug_20_1310,listening_fmri,3.2.4,59.99981376080142,
1,parcelated_audio/23/23_13.ogg,,,,,,,,,0,0,0,0,0,1,1,1,0,0,0,0,,,,,,,,,,,,,0,0,0,0,0,12,12,12,,,,,,,,,,,,,,,,,,,,,,,,,,,,,,,,,,,,,,,,,,,,,,,,,,,,,,,,,,,,,,,,,,,,,,,,,,,,,,,,,,,,,,,,,,,,,,,,,,,,,,,,,123.25254813000083,130.04713626300054,,,,,,,082021,2,3,2,3,1,1,2,0,72,2021_Aug_20_1310,listening_fmri,3.2.4,59.99981376080142,
1,parcelated_audio/23/23_14.ogg,,,,,,,,,0,0,0,0,0,1,1,1,0,0,0,0,,,,,,,,,,,,,0,0,0,0,0,13,13,13,,,,,,,,,,,,,,,,,,,,,,,,,,,,,,,,,,,,,,,,,,,,,,,,,,,,,,,,,,,,,,,,,,,,,,,,,,,,,,,,,,,,,,,,,,,,,,,,,,,,,,,,,130.04748379500052,134.42724839200037,,,,,,,082021,2,3,2,3,1,1,2,0,72,2021_Aug_20_1310,listening_fmri,3.2.4,59.99981376080142,
1,parcelated_audio/23/23_15.ogg,,,,,,,,,0,0,0,0,0,1,1,1,0,0,0,0,,,,,,,,,,,,,0,0,0,0,0,14,14,14,,,,,,,,,,,,,,,,,,,,,,,,,,,,,,,,,,,,,,,,,,,,,,,,,,,,,,,,,,,,,,,,,,,,,,,,,,,,,,,,,,,,,,,,,,,,,,,,,,,,,,,,,134.42759771500005,138.86295956700087,,,,,,,082021,2,3,2,3,1,1,2,0,72,2021_Aug_20_1310,listening_fmri,3.2.4,59.99981376080142,
1,parcelated_audio/23/23_16.ogg,,,,,,,,,0,0,0,0,0,1,1,1,0,0,0,0,,,,,,,,,,,,,0,0,0,0,0,15,15,15,,,,,,,,,,,,,,,,,,,,,,,,,,,,,,,,,,,,,,,,,,,,,,,,,,,,,,,,,,,,,,,,,,,,,,,,,,,,,,,,,,,,,,,,,,,,,,,,,,,,,,,,,138.86330368000017,145.4512766050002,,,,,,,082021,2,3,2,3,1,1,2,0,72,2021_Aug_20_1310,listening_fmri,3.2.4,59.99981376080142,
1,parcelated_audio/23/23_17.ogg,,,,,,,,,0,0,0,0,0,1,1,1,0,0,0,0,,,,,,,,,,,,,0,0,0,0,0,16,16,16,,,,,,,,,,,,,,,,,,,,,,,,,,,,,,,,,,,,,,,,,,,,,,,,,,,,,,,,,,,,,,,,,,,,,,,,,,,,,,,,,,,,,,,,,,,,,,,,,,,,,,,,,145.4518359470003,152.2052389520004,,,,,,,082021,2,3,2,3,1,1,2,0,72,2021_Aug_20_1310,listening_fmri,3.2.4,59.99981376080142,
1,parcelated_audio/23/23_18.ogg,,,,,,,,,0,0,0,0,0,1,1,1,0,0,0,0,,,,,,,,,,,,,0,0,0,0,0,17,17,17,,,,,,,,,,,,,,,,,,,,,,,,,,,,,,,,,,,,,,,,,,,,,,,,,,,,,,,,,,,,,,,,,,,,,,,,,,,,,,,,,,,,,,,,,,,,,,,,,,,,,,,,,152.2058252120005,164.20639507100077,,,,,,,082021,2,3,2,3,1,1,2,0,72,2021_Aug_20_1310,listening_fmri,3.2.4,59.99981376080142,
1,parcelated_audio/23/23_19.ogg,,,,,,,,,0,0,0,0,0,1,1,1,0,0,0,0,,,,,,,,,,,,,0,0,0,0,0,18,18,18,,,,,,,,,,,,,,,,,,,,,,,,,,,,,,,,,,,,,,,,,,,,,,,,,,,,,,,,,,,,,,,,,,,,,,,,,,,,,,,,,,,,,,,,,,,,,,,,,,,,,,,,,164.20674300600058,169.97172198600038,,,,,,,082021,2,3,2,3,1,1,2,0,72,2021_Aug_20_1310,listening_fmri,3.2.4,59.99981376080142,
1,parcelated_audio/23/23_20.ogg,,,,,,,,,0,0,0,0,0,1,1,1,0,0,0,0,,,,,,,,,,,,,0,0,0,0,0,19,19,19,,,,,,,,,,,,,,,,,,,,,,,,,,,,,,,,,,,,,,,,,,,,,,,,,,,,,,,,,,,,,,,,,,,,,,,,,,,,,,,,,,,,,,,,,,,,,,,,,,,,,,,,,169.9720695240003,172.87031780900088,,,,,,,082021,2,3,2,3,1,1,2,0,72,2021_Aug_20_1310,listening_fmri,3.2.4,59.99981376080142,
1,parcelated_audio/23/23_21.ogg,,,,,,,,,0,0,0,0,0,1,1,1,0,0,0,0,,,,,,,,,,,,,0,0,0,0,0,20,20,20,,,,,,,,,,,,,,,,,,,,,,,,,,,,,,,,,,,,,,,,,,,,,,,,,,,,,,,,,,,,,,,,,,,,,,,,,,,,,,,,,,,,,,,,,,,,,,,,,,,,,,,,,172.87086802900012,180.55900997400022,,,,,,,082021,2,3,2,3,1,1,2,0,72,2021_Aug_20_1310,listening_fmri,3.2.4,59.99981376080142,
1,parcelated_audio/23/23_22.ogg,,,,,,,,,0,0,0,0,0,1,1,1,0,0,0,0,,,,,,,,,,,,,0,0,0,0,0,21,21,21,,,,,,,,,,,,,,,,,,,,,,,,,,,,,,,,,,,,,,,,,,,,,,,,,,,,,,,,,,,,,,,,,,,,,,,,,,,,,,,,,,,,,,,,,,,,,,,,,,,,,,,,,180.5593731350009,183.2420317570004,,,,,,,082021,2,3,2,3,1,1,2,0,72,2021_Aug_20_1310,listening_fmri,3.2.4,59.99981376080142,
1,parcelated_audio/23/23_23.ogg,,,,,,,,,0,0,0,0,0,1,1,1,0,0,0,0,,,,,,,,,,,,,0,0,0,0,0,22,22,22,,,,,,,,,,,,,,,,,,,,,,,,,,,,,,,,,,,,,,,,,,,,,,,,,,,,,,,,,,,,,,,,,,,,,,,,,,,,,,,,,,,,,,,,,,,,,,,,,,,,,,,,,183.24236922600085,187.41019413200047,,,,,,,082021,2,3,2,3,1,1,2,0,72,2021_Aug_20_1310,listening_fmri,3.2.4,59.99981376080142,
1,parcelated_audio/23/23_24.ogg,,,,,,,,,0,0,0,0,0,1,1,1,0,0,0,0,,,,,,,,,,,,,0,0,0,0,0,23,23,23,,,,,,,,,,,,,,,,,,,,,,,,,,,,,,,,,,,,,,,,,,,,,,,,,,,,,,,,,,,,,,,,,,,,,,,,,,,,,,,,,,,,,,,,,,,,,,,,,,,,,,,,,187.410738992,190.87821388000066,,,,,,,082021,2,3,2,3,1,1,2,0,72,2021_Aug_20_1310,listening_fmri,3.2.4,59.99981376080142,
1,parcelated_audio/23/23_25.ogg,,,,,,,,,0,0,0,0,0,1,1,1,0,0,0,0,,,,,,,,,,,,,0,0,0,0,0,24,24,24,,,,,,,,,,,,,,,,,,,,,,,,,,,,,,,,,,,,,,,,,,,,,,,,,,,,,,,,,,,,,,,,,,,,,,,,,,,,,,,,,,,,,,,,,,,,,,,,,,,,,,,,,190.87856259800083,195.04224308800076,,,,,,,082021,2,3,2,3,1,1,2,0,72,2021_Aug_20_1310,listening_fmri,3.2.4,59.99981376080142,
1,parcelated_audio/23/23_26.ogg,,,,,,,,,0,0,0,0,0,1,1,1,0,0,0,0,,,,,,,,,,,,,0,0,0,0,0,25,25,25,,,,,,,,,,,,,,,,,,,,,,,,,,,,,,,,,,,,,,,,,,,,,,,,,,,,,,,,,,,,,,,,,,,,,,,,,,,,,,,,,,,,,,,,,,,,,,,,,,,,,,,,,195.04258970000046,201.3012673380008,,,,,,,082021,2,3,2,3,1,1,2,0,72,2021_Aug_20_1310,listening_fmri,3.2.4,59.99981376080142,
1,parcelated_audio/23/23_27.ogg,,,,,,,,,0,0,0,0,0,1,1,1,0,0,0,0,,,,,,,,,,,,,0,0,0,0,0,26,26,26,,,,,,,,,,,,,,,,,,,,,,,,,,,,,,,,,,,,,,,,,,,,,,,,,,,,,,,,,,,,,,,,,,,,,,,,,,,,,,,,,,,,,,,,,,,,,,,,,,,,,,,,,201.30181742900004,206.59153642600086,,,,,,,082021,2,3,2,3,1,1,2,0,72,2021_Aug_20_1310,listening_fmri,3.2.4,59.99981376080142,
1,parcelated_audio/23/23_28.ogg,,,,,,,,,0,0,0,0,0,1,1,1,0,0,0,0,,,,,,,,,,,,,0,0,0,0,0,27,27,27,,,,,,,,,,,,,,,,,,,,,,,,,,,,,,,,,,,,,,,,,,,,,,,,,,,,,,,,,,,,,,,,,,,,,,,,,,,,,,,,,,,,,,,,,,,,,,,,,,,,,,,,,206.59188346700012,214.55630971000028,,,,,,,082021,2,3,2,3,1,1,2,0,72,2021_Aug_20_1310,listening_fmri,3.2.4,59.99981376080142,
1,parcelated_audio/23/23_29.ogg,,,,,,,,,0,0,0,0,0,1,1,1,0,0,0,0,,,,,,,,,,,,,0,0,0,0,0,28,28,28,,,,,,,,,,,,,,,,,,,,,,,,,,,,,,,,,,,,,,,,,,,,,,,,,,,,,,,,,,,,,,,,,,,,,,,,,,,,,,,,,,,,,,,,,,,,,,,,,,,,,,,,,214.55684864200066,218.32317743000021,,,,,,,082021,2,3,2,3,1,1,2,0,72,2021_Aug_20_1310,listening_fmri,3.2.4,59.99981376080142,
1,parcelated_audio/23/23_30.ogg,,,,,,,,,0,0,0,0,0,1,1,1,0,0,0,0,,,,,,,,,,,,,0,0,0,0,0,29,29,29,,,,,,,,,,,,,,,,,,,,,,,,,,,,,,,,,,,,,,,,,,,,,,,,,,,,,,,,,,,,,,,,,,,,,,,,,,,,,,,,,,,,,,,,,,,,,,,,,,,,,,,,,218.32349888800036,224.25320100300087,,,,,,,082021,2,3,2,3,1,1,2,0,72,2021_Aug_20_1310,listening_fmri,3.2.4,59.99981376080142,
1,parcelated_audio/23/23_31.ogg,,,,,,,,,0,0,0,0,0,1,1,1,0,0,0,0,,,,,,,,,,,,,0,0,0,0,0,30,30,30,,,,,,,,,,,,,,,,,,,,,,,,,,,,,,,,,,,,,,,,,,,,,,,,,,,,,,,,,,,,,,,,,,,,,,,,,,,,,,,,,,,,,,,,,,,,,,,,,,,,,,,,,224.2535490900009,226.28904821600008,,,,,,,082021,2,3,2,3,1,1,2,0,72,2021_Aug_20_1310,listening_fmri,3.2.4,59.99981376080142,
1,parcelated_audio/23/23_32.ogg,,,,,,,,,0,0,0,0,0,1,1,1,0,0,0,0,,,,,,,,,,,,,0,0,0,0,0,31,31,31,,,,,,,,,,,,,,,,,,,,,,,,,,,,,,,,,,,,,,,,,,,,,,,,,,,,,,,,,,,,,,,,,,,,,,,,,,,,,,,,,,,,,,,,,,,,,,,,,,,,,,,,,226.28939231300046,229.90096243600055,,,,,,,082021,2,3,2,3,1,1,2,0,72,2021_Aug_20_1310,listening_fmri,3.2.4,59.99981376080142,
1,parcelated_audio/23/23_33.ogg,,,,,,,,,0,0,0,0,0,1,1,1,0,0,0,0,,,,,,,,,,,,,0,0,0,0,0,32,32,32,,,,,,,,,,,,,,,,,,,,,,,,,,,,,,,,,,,,,,,,,,,,,,,,,,,,,,,,,,,,,,,,,,,,,,,,,,,,,,,,,,,,,,,,,,,,,,,,,,,,,,,,,229.901254892,235.95557897300023,,,,,,,082021,2,3,2,3,1,1,2,0,72,2021_Aug_20_1310,listening_fmri,3.2.4,59.99981376080142,
1,parcelated_audio/23/23_34.ogg,,,,,,,,,0,0,0,0,0,1,1,1,0,0,0,0,,,,,,,,,,,,,0,0,0,0,0,33,33,33,,,,,,,,,,,,,,,,,,,,,,,,,,,,,,,,,,,,,,,,,,,,,,,,,,,,,,,,,,,,,,,,,,,,,,,,,,,,,,,,,,,,,,,,,,,,,,,,,,,,,,,,,235.9559261100003,239.5211422530001,,,,,,,082021,2,3,2,3,1,1,2,0,72,2021_Aug_20_1310,listening_fmri,3.2.4,59.99981376080142,
1,parcelated_audio/23/23_35.ogg,,,,,,,,,0,0,0,0,0,1,1,1,0,0,0,0,,,,,,,,,,,,,0,0,0,0,0,34,34,34,,,,,,,,,,,,,,,,,,,,,,,,,,,,,,,,,,,,,,,,,,,,,,,,,,,,,,,,,,,,,,,,,,,,,,,,,,,,,,,,,,,,,,,,,,,,,,,,,,,,,,,,,239.52167592500064,243.8124748650007,,,,,,,082021,2,3,2,3,1,1,2,0,72,2021_Aug_20_1310,listening_fmri,3.2.4,59.99981376080142,
1,parcelated_audio/23/23_36.ogg,,,,,,,,,0,0,0,0,0,1,1,1,0,0,0,0,,,,,,,,,,,,,0,0,0,0,0,35,35,35,,,,,,,,,,,,,,,,,,,,,,,,,,,,,,,,,,,,,,,,,,,,,,,,,,,,,,,,,,,,,,,,,,,,,,,,,,,,,,,,,,,,,,,,,,,,,,,,,,,,,,,,,243.81274488300005,248.45924712400029,,,,,,,082021,2,3,2,3,1,1,2,0,72,2021_Aug_20_1310,listening_fmri,3.2.4,59.99981376080142,
1,parcelated_audio/23/23_37.ogg,,,,,,,,,0,0,0,0,0,1,1,1,0,0,0,0,,,,,,,,,,,,,0,0,0,0,0,36,36,36,,,,,,,,,,,,,,,,,,,,,,,,,,,,,,,,,,,,,,,,,,,,,,,,,,,,,,,,,,,,,,,,,,,,,,,,,,,,,,,,,,,,,,,,,,,,,,,,,,,,,,,,,248.45977243400012,253.27121895900018,,,,,,,082021,2,3,2,3,1,1,2,0,72,2021_Aug_20_1310,listening_fmri,3.2.4,59.99981376080142,
1,parcelated_audio/23/23_38.ogg,,,,,,,,,0,0,0,0,0,1,1,1,0,0,0,0,,,,,,,,,,,,,0,0,0,0,0,37,37,37,,,,,,,,,,,,,,,,,,,,,,,,,,,,,,,,,,,,,,,,,,,,,,,,,,,,,,,,,,,,,,,,,,,,,,,,,,,,,,,,,,,,,,,,,,,,,,,,,,,,,,,,,253.27155977100028,260.7772613650004,,,,,,,082021,2,3,2,3,1,1,2,0,72,2021_Aug_20_1310,listening_fmri,3.2.4,59.99981376080142,
1,parcelated_audio/23/23_39.ogg,,,,,,,,,0,0,0,0,0,1,1,1,0,0,0,0,,,,,,,,,,,,,0,0,0,0,0,38,38,38,,,,,,,,,,,,,,,,,,,,,,,,,,,,,,,,,,,,,,,,,,,,,,,,,,,,,,,,,,,,,,,,,,,,,,,,,,,,,,,,,,,,,,,,,,,,,,,,,,,,,,,,,260.77760550900075,267.0571224060004,,,,,,,082021,2,3,2,3,1,1,2,0,72,2021_Aug_20_1310,listening_fmri,3.2.4,59.99981376080142,
1,,,,,,,,,,0,0,0,0,0,1,1,1,0,0,0,0,,,,,,,,,,,,,0,0,0,0,,,,,,,,,,,,,,,,,,,,,,,,,,,,,,,,,,,,,,,,,,,,,,,,,,,,,,,,,,,,,,,,,,,,,,,,,,,,,,,,,,,,,,,,,,,,,,,,,,,,,,,,,,,,,,,,,,,,,082021,2,3,2,3,1,1,2,0,72,2021_Aug_20_1310,listening_fmri,3.2.4,59.99981376080142,
1,,,,,,,,,,0,0,0,0,0,1,1,1,0,0,0,0,,,,,,,,,,,,,,,,,,,,,,,,,,,,,,,,,,,,,,,,,,267.05758900800083,273.05866206500014,309.70079291099955,None,,,,,,,,,,,,,,,,,,,,,,,,,,,,,,,,,,,,,,,,,,,,,,,,,,,,,,,,,,,,,,,,,,,,,,,,,,,,,,,,,,315.7170208939997,None,315.7170208939997,None,,,082021,2,3,2,3,1,1,2,0,72,2021_Aug_20_1310,listening_fmri,3.2.4,59.99981376080142,
1,,,,,,,,,,0,0,0,0,0,1,1,1,,,,,,,,,,,,,,,,,,,,,,,,,,,,,,,,,,,,,,,,,,,,,,,,,,,,,,,,,,,,,,,,,,,,,,,,,,,,,,,,,,,,,,,,,,,,,,,,,,,,,,,,,,,,,,,,,,,,,,,,,,,,,,,,,,,,,,,,,082021,2,3,2,3,1,1,2,0,72,2021_Aug_20_1310,listening_fmri,3.2.4,59.99981376080142,
2,,,,,,,,,,0,0,0,0,0,2,2,2,0,0,0,0,0,0,0,0,0,0,0,0,,,,,,,,,,,,,,,,,,,,,,,,,,,,,,,,,,,,,,316.72600929299915,None,316.72600929299915,None,2,0.9231248160003815,316.72600929299915,None,316.72600929299915,None,317.6668707919998,None,2,0.7803954420005539,317.6668707919998,None,317.6668707919998,None,318.483157998,None,318.483157998,None,318.483157998,None,2,0.7761062720001064,318.483157998,None,319.28403506499944,None,2,0.7281810820004466,319.28403506499944,None,319.28403506499944,None,320.1248725689993,None,320.1248725689993,None,320.1248725689993,None,320.1248725689993,None,320.1248725689993,None,320.1248725689993,None,320.1248725689993,None,None,320.1248725689993,None,,,,,,,,,,,,,,,,,,,,,,,,,,,,,,,,,,,082021,2,3,2,3,1,1,2,0,72,2021_Aug_20_1310,listening_fmri,3.2.4,59.99981376080142,
2,,,,,,,,,,0,0,0,0,0,2,2,2,0,0,0,0,0,0,0,0,,,,,,,,,,,,,,,,,,,,,,,,,,,,,,,,,,,,,,,,,,,,,,,,,,,,,,,,,,,,,,,,,,,,,,,,,,,,,,,,,,,,,,,,,,,,,,,335.2167649539997,None,2,0.43938144499952614,335.2167649539997,None,335.2167649539997,None,335.70079651999913,None,335.70079651999913,None,335.70079651999913,None,2,0.3223206800003027,335.70079651999913,None,,,,,,,,,,,,,,,,,082021,2,3,2,3,1,1,2,0,72,2021_Aug_20_1310,listening_fmri,3.2.4,59.99981376080142,
2,parcelated_audio/14/14_1.ogg,,,,,,,,,0,0,0,0,0,2,2,2,0,0,0,0,,,,,,,,,,,,,0,0,0,0,0,0,0,0,,,,,,,,,,,,,,,,,,,,,,,,,,,,,,,,,,,,,,,,,,,,,,,,,,,,,,,,,,,,,,,,,,,,,,,,,,,,,,,,,,,,,,,,,,,,,,,,,336.05004072999964,None,2,0.5242040490002182,336.05004072999964,None,293.9586824170001,296.9669393180002,296.97496648800006,303.8408839800004,,,,,,,082021,2,3,2,3,1,1,2,0,72,2021_Aug_20_1310,listening_fmri,3.2.4,59.99981376080142,
2,parcelated_audio/14/14_2.ogg,,,,,,,,,0,0,0,0,0,2,2,2,0,0,0,0,,,,,,,,,,,,,0,0,0,0,0,1,1,1,,,,,,,,,,,,,,,,,,,,,,,,,,,,,,,,,,,,,,,,,,,,,,,,,,,,,,,,,,,,,,,,,,,,,,,,,,,,,,,,,,,,,,,,,,,,,,,,,,,,,,,,,303.8422878750007,310.41161290200034,,,,,,,082021,2,3,2,3,1,1,2,0,72,2021_Aug_20_1310,listening_fmri,3.2.4,59.99981376080142,
2,parcelated_audio/14/14_3.ogg,,,,,,,,,0,0,0,0,0,2,2,2,0,0,0,0,,,,,,,,,,,,,0,0,0,0,0,2,2,2,,,,,,,,,,,,,,,,,,,,,,,,,,,,,,,,,,,,,,,,,,,,,,,,,,,,,,,,,,,,,,,,,,,,,,,,,,,,,,,,,,,,,,,,,,,,,,,,,,,,,,,,,310.41196176200083,314.1181721950006,,,,,,,082021,2,3,2,3,1,1,2,0,72,2021_Aug_20_1310,listening_fmri,3.2.4,59.99981376080142,
2,parcelated_audio/14/14_4.ogg,,,,,,,,,0,0,0,0,0,2,2,2,0,0,0,0,,,,,,,,,,,,,0,0,0,0,0,3,3,3,,,,,,,,,,,,,,,,,,,,,,,,,,,,,,,,,,,,,,,,,,,,,,,,,,,,,,,,,,,,,,,,,,,,,,,,,,,,,,,,,,,,,,,,,,,,,,,,,,,,,,,,,314.11865317900083,322.0779793360007,,,,,,,082021,2,3,2,3,1,1,2,0,72,2021_Aug_20_1310,listening_fmri,3.2.4,59.99981376080142,
2,parcelated_audio/14/14_5.ogg,,,,,,,,,0,0,0,0,0,2,2,2,0,0,0,0,,,,,,,,,,,,,0,0,0,0,0,4,4,4,,,,,,,,,,,,,,,,,,,,,,,,,,,,,,,,,,,,,,,,,,,,,,,,,,,,,,,,,,,,,,,,,,,,,,,,,,,,,,,,,,,,,,,,,,,,,,,,,,,,,,,,,322.0784670160001,326.9540740190005,,,,,,,082021,2,3,2,3,1,1,2,0,72,2021_Aug_20_1310,listening_fmri,3.2.4,59.99981376080142,
2,parcelated_audio/14/14_6.ogg,,,,,,,,,0,0,0,0,0,2,2,2,0,0,0,0,,,,,,,,,,,,,0,0,0,0,0,5,5,5,,,,,,,,,,,,,,,,,,,,,,,,,,,,,,,,,,,,,,,,,,,,,,,,,,,,,,,,,,,,,,,,,,,,,,,,,,,,,,,,,,,,,,,,,,,,,,,,,,,,,,,,,326.9544258250007,332.81406077200063,,,,,,,082021,2,3,2,3,1,1,2,0,72,2021_Aug_20_1310,listening_fmri,3.2.4,59.99981376080142,
2,parcelated_audio/14/14_7.ogg,,,,,,,,,0,0,0,0,0,2,2,2,0,0,0,0,,,,,,,,,,,,,0,0,0,0,0,6,6,6,,,,,,,,,,,,,,,,,,,,,,,,,,,,,,,,,,,,,,,,,,,,,,,,,,,,,,,,,,,,,,,,,,,,,,,,,,,,,,,,,,,,,,,,,,,,,,,,,,,,,,,,,332.81441334600004,342.4735710060004,,,,,,,082021,2,3,2,3,1,1,2,0,72,2021_Aug_20_1310,listening_fmri,3.2.4,59.99981376080142,
2,parcelated_audio/14/14_8.ogg,,,,,,,,,0,0,0,0,0,2,2,2,0,0,0,0,,,,,,,,,,,,,0,0,0,0,0,7,7,7,,,,,,,,,,,,,,,,,,,,,,,,,,,,,,,,,,,,,,,,,,,,,,,,,,,,,,,,,,,,,,,,,,,,,,,,,,,,,,,,,,,,,,,,,,,,,,,,,,,,,,,,,342.4738698630008,347.7111373330008,,,,,,,082021,2,3,2,3,1,1,2,0,72,2021_Aug_20_1310,listening_fmri,3.2.4,59.99981376080142,
2,parcelated_audio/14/14_9.ogg,,,,,,,,,0,0,0,0,0,2,2,2,0,0,0,0,,,,,,,,,,,,,0,0,0,0,0,8,8,8,,,,,,,,,,,,,,,,,,,,,,,,,,,,,,,,,,,,,,,,,,,,,,,,,,,,,,,,,,,,,,,,,,,,,,,,,,,,,,,,,,,,,,,,,,,,,,,,,,,,,,,,,347.7116472710004,351.48301936400003,,,,,,,082021,2,3,2,3,1,1,2,0,72,2021_Aug_20_1310,listening_fmri,3.2.4,59.99981376080142,
2,parcelated_audio/14/14_10.ogg,,,,,,,,,0,0,0,0,0,2,2,2,0,0,0,0,,,,,,,,,,,,,0,0,0,0,0,9,9,9,,,,,,,,,,,,,,,,,,,,,,,,,,,,,,,,,,,,,,,,,,,,,,,,,,,,,,,,,,,,,,,,,,,,,,,,,,,,,,,,,,,,,,,,,,,,,,,,,,,,,,,,,351.4832957050003,362.75714950400015,,,,,,,082021,2,3,2,3,1,1,2,0,72,2021_Aug_20_1310,listening_fmri,3.2.4,59.99981376080142,
2,parcelated_audio/14/14_11.ogg,,,,,,,,,0,0,0,0,0,2,2,2,0,0,0,0,,,,,,,,,,,,,0,0,0,0,0,10,10,10,,,,,,,,,,,,,,,,,,,,,,,,,,,,,,,,,,,,,,,,,,,,,,,,,,,,,,,,,,,,,,,,,,,,,,,,,,,,,,,,,,,,,,,,,,,,,,,,,,,,,,,,,362.7585959850003,369.9825013590007,,,,,,,082021,2,3,2,3,1,1,2,0,72,2021_Aug_20_1310,listening_fmri,3.2.4,59.99981376080142,
2,parcelated_audio/14/14_12.ogg,,,,,,,,,0,0,0,0,0,2,2,2,0,0,0,0,,,,,,,,,,,,,0,0,0,0,0,11,11,11,,,,,,,,,,,,,,,,,,,,,,,,,,,,,,,,,,,,,,,,,,,,,,,,,,,,,,,,,,,,,,,,,,,,,,,,,,,,,,,,,,,,,,,,,,,,,,,,,,,,,,,,,369.98354275900056,378.0154993560009,,,,,,,082021,2,3,2,3,1,1,2,0,72,2021_Aug_20_1310,listening_fmri,3.2.4,59.99981376080142,
2,parcelated_audio/14/14_13.ogg,,,,,,,,,0,0,0,0,0,2,2,2,0,0,0,0,,,,,,,,,,,,,0,0,0,0,0,12,12,12,,,,,,,,,,,,,,,,,,,,,,,,,,,,,,,,,,,,,,,,,,,,,,,,,,,,,,,,,,,,,,,,,,,,,,,,,,,,,,,,,,,,,,,,,,,,,,,,,,,,,,,,,378.0158409500009,384.1424946980005,,,,,,,082021,2,3,2,3,1,1,2,0,72,2021_Aug_20_1310,listening_fmri,3.2.4,59.99981376080142,
2,parcelated_audio/14/14_14.ogg,,,,,,,,,0,0,0,0,0,2,2,2,0,0,0,0,,,,,,,,,,,,,0,0,0,0,0,13,13,13,,,,,,,,,,,,,,,,,,,,,,,,,,,,,,,,,,,,,,,,,,,,,,,,,,,,,,,,,,,,,,,,,,,,,,,,,,,,,,,,,,,,,,,,,,,,,,,,,,,,,,,,,384.14285581700005,390.71021480500076,,,,,,,082021,2,3,2,3,1,1,2,0,72,2021_Aug_20_1310,listening_fmri,3.2.4,59.99981376080142,
2,parcelated_audio/14/14_15.ogg,,,,,,,,,0,0,0,0,0,2,2,2,0,0,0,0,,,,,,,,,,,,,0,0,0,0,0,14,14,14,,,,,,,,,,,,,,,,,,,,,,,,,,,,,,,,,,,,,,,,,,,,,,,,,,,,,,,,,,,,,,,,,,,,,,,,,,,,,,,,,,,,,,,,,,,,,,,,,,,,,,,,,390.7112294950002,397.8352143300008,,,,,,,082021,2,3,2,3,1,1,2,0,72,2021_Aug_20_1310,listening_fmri,3.2.4,59.99981376080142,
2,parcelated_audio/14/14_16.ogg,,,,,,,,,0,0,0,0,0,2,2,2,0,0,0,0,,,,,,,,,,,,,0,0,0,0,0,15,15,15,,,,,,,,,,,,,,,,,,,,,,,,,,,,,,,,,,,,,,,,,,,,,,,,,,,,,,,,,,,,,,,,,,,,,,,,,,,,,,,,,,,,,,,,,,,,,,,,,,,,,,,,,397.83554133300004,403.2730460110006,,,,,,,082021,2,3,2,3,1,1,2,0,72,2021_Aug_20_1310,listening_fmri,3.2.4,59.99981376080142,
2,parcelated_audio/14/14_17.ogg,,,,,,,,,0,0,0,0,0,2,2,2,0,0,0,0,,,,,,,,,,,,,0,0,0,0,0,16,16,16,,,,,,,,,,,,,,,,,,,,,,,,,,,,,,,,,,,,,,,,,,,,,,,,,,,,,,,,,,,,,,,,,,,,,,,,,,,,,,,,,,,,,,,,,,,,,,,,,,,,,,,,,403.27339252100046,412.9718379520009,,,,,,,082021,2,3,2,3,1,1,2,0,72,2021_Aug_20_1310,listening_fmri,3.2.4,59.99981376080142,
2,parcelated_audio/14/14_18.ogg,,,,,,,,,0,0,0,0,0,2,2,2,0,0,0,0,,,,,,,,,,,,,0,0,0,0,0,17,17,17,,,,,,,,,,,,,,,,,,,,,,,,,,,,,,,,,,,,,,,,,,,,,,,,,,,,,,,,,,,,,,,,,,,,,,,,,,,,,,,,,,,,,,,,,,,,,,,,,,,,,,,,,412.97242082400044,420.5713123450005,,,,,,,082021,2,3,2,3,1,1,2,0,72,2021_Aug_20_1310,listening_fmri,3.2.4,59.99981376080142,
2,parcelated_audio/14/14_19.ogg,,,,,,,,,0,0,0,0,0,2,2,2,0,0,0,0,,,,,,,,,,,,,0,0,0,0,0,18,18,18,,,,,,,,,,,,,,,,,,,,,,,,,,,,,,,,,,,,,,,,,,,,,,,,,,,,,,,,,,,,,,,,,,,,,,,,,,,,,,,,,,,,,,,,,,,,,,,,,,,,,,,,,420.5716654020007,423.4401886250007,,,,,,,082021,2,3,2,3,1,1,2,0,72,2021_Aug_20_1310,listening_fmri,3.2.4,59.99981376080142,
2,parcelated_audio/14/14_20.ogg,,,,,,,,,0,0,0,0,0,2,2,2,0,0,0,0,,,,,,,,,,,,,0,0,0,0,0,19,19,19,,,,,,,,,,,,,,,,,,,,,,,,,,,,,,,,,,,,,,,,,,,,,,,,,,,,,,,,,,,,,,,,,,,,,,,,,,,,,,,,,,,,,,,,,,,,,,,,,,,,,,,,,423.44174840600044,425.6051340420008,,,,,,,082021,2,3,2,3,1,1,2,0,72,2021_Aug_20_1310,listening_fmri,3.2.4,59.99981376080142,
2,parcelated_audio/14/14_21.ogg,,,,,,,,,0,0,0,0,0,2,2,2,0,0,0,0,,,,,,,,,,,,,0,0,0,0,0,20,20,20,,,,,,,,,,,,,,,,,,,,,,,,,,,,,,,,,,,,,,,,,,,,,,,,,,,,,,,,,,,,,,,,,,,,,,,,,,,,,,,,,,,,,,,,,,,,,,,,,,,,,,,,,425.606127817,435.18438449900077,,,,,,,082021,2,3,2,3,1,1,2,0,72,2021_Aug_20_1310,listening_fmri,3.2.4,59.99981376080142,
2,parcelated_audio/14/14_22.ogg,,,,,,,,,0,0,0,0,0,2,2,2,0,0,0,0,,,,,,,,,,,,,0,0,0,0,0,21,21,21,,,,,,,,,,,,,,,,,,,,,,,,,,,,,,,,,,,,,,,,,,,,,,,,,,,,,,,,,,,,,,,,,,,,,,,,,,,,,,,,,,,,,,,,,,,,,,,,,,,,,,,,,435.1847393600001,441.5332730100008,,,,,,,082021,2,3,2,3,1,1,2,0,72,2021_Aug_20_1310,listening_fmri,3.2.4,59.99981376080142,
2,parcelated_audio/14/14_23.ogg,,,,,,,,,0,0,0,0,0,2,2,2,0,0,0,0,,,,,,,,,,,,,0,0,0,0,0,22,22,22,,,,,,,,,,,,,,,,,,,,,,,,,,,,,,,,,,,,,,,,,,,,,,,,,,,,,,,,,,,,,,,,,,,,,,,,,,,,,,,,,,,,,,,,,,,,,,,,,,,,,,,,,441.53361390200007,446.6152872950006,,,,,,,082021,2,3,2,3,1,1,2,0,72,2021_Aug_20_1310,listening_fmri,3.2.4,59.99981376080142,
2,parcelated_audio/14/14_24.ogg,,,,,,,,,0,0,0,0,0,2,2,2,0,0,0,0,,,,,,,,,,,,,0,0,0,0,0,23,23,23,,,,,,,,,,,,,,,,,,,,,,,,,,,,,,,,,,,,,,,,,,,,,,,,,,,,,,,,,,,,,,,,,,,,,,,,,,,,,,,,,,,,,,,,,,,,,,,,,,,,,,,,,446.61563642800047,457.539302614,,,,,,,082021,2,3,2,3,1,1,2,0,72,2021_Aug_20_1310,listening_fmri,3.2.4,59.99981376080142,
2,parcelated_audio/14/14_25.ogg,,,,,,,,,0,0,0,0,0,2,2,2,0,0,0,0,,,,,,,,,,,,,0,0,0,0,0,24,24,24,,,,,,,,,,,,,,,,,,,,,,,,,,,,,,,,,,,,,,,,,,,,,,,,,,,,,,,,,,,,,,,,,,,,,,,,,,,,,,,,,,,,,,,,,,,,,,,,,,,,,,,,,457.53965557300035,464.2181402690003,,,,,,,082021,2,3,2,3,1,1,2,0,72,2021_Aug_20_1310,listening_fmri,3.2.4,59.99981376080142,
2,parcelated_audio/14/14_26.ogg,,,,,,,,,0,0,0,0,0,2,2,2,0,0,0,0,,,,,,,,,,,,,0,0,0,0,0,25,25,25,,,,,,,,,,,,,,,,,,,,,,,,,,,,,,,,,,,,,,,,,,,,,,,,,,,,,,,,,,,,,,,,,,,,,,,,,,,,,,,,,,,,,,,,,,,,,,,,,,,,,,,,,464.2184817640009,466.4086347220009,,,,,,,082021,2,3,2,3,1,1,2,0,72,2021_Aug_20_1310,listening_fmri,3.2.4,59.99981376080142,
2,parcelated_audio/14/14_27.ogg,,,,,,,,,0,0,0,0,0,2,2,2,0,0,0,0,,,,,,,,,,,,,0,0,0,0,0,26,26,26,,,,,,,,,,,,,,,,,,,,,,,,,,,,,,,,,,,,,,,,,,,,,,,,,,,,,,,,,,,,,,,,,,,,,,,,,,,,,,,,,,,,,,,,,,,,,,,,,,,,,,,,,466.4089834460001,472.44967913300025,,,,,,,082021,2,3,2,3,1,1,2,0,72,2021_Aug_20_1310,listening_fmri,3.2.4,59.99981376080142,
2,parcelated_audio/14/14_28.ogg,,,,,,,,,0,0,0,0,0,2,2,2,0,0,0,0,,,,,,,,,,,,,0,0,0,0,0,27,27,27,,,,,,,,,,,,,,,,,,,,,,,,,,,,,,,,,,,,,,,,,,,,,,,,,,,,,,,,,,,,,,,,,,,,,,,,,,,,,,,,,,,,,,,,,,,,,,,,,,,,,,,,,472.4499938550007,475.44426365600066,,,,,,,082021,2,3,2,3,1,1,2,0,72,2021_Aug_20_1310,listening_fmri,3.2.4,59.99981376080142,
2,parcelated_audio/14/14_29.ogg,,,,,,,,,0,0,0,0,0,2,2,2,0,0,0,0,,,,,,,,,,,,,0,0,0,0,0,28,28,28,,,,,,,,,,,,,,,,,,,,,,,,,,,,,,,,,,,,,,,,,,,,,,,,,,,,,,,,,,,,,,,,,,,,,,,,,,,,,,,,,,,,,,,,,,,,,,,,,,,,,,,,,475.4445353300007,477.8329051390001,,,,,,,082021,2,3,2,3,1,1,2,0,72,2021_Aug_20_1310,listening_fmri,3.2.4,59.99981376080142,
2,parcelated_audio/14/14_30.ogg,,,,,,,,,0,0,0,0,0,2,2,2,0,0,0,0,,,,,,,,,,,,,0,0,0,0,0,29,29,29,,,,,,,,,,,,,,,,,,,,,,,,,,,,,,,,,,,,,,,,,,,,,,,,,,,,,,,,,,,,,,,,,,,,,,,,,,,,,,,,,,,,,,,,,,,,,,,,,,,,,,,,,477.83325549500023,482.1022931560001,,,,,,,082021,2,3,2,3,1,1,2,0,72,2021_Aug_20_1310,listening_fmri,3.2.4,59.99981376080142,
2,parcelated_audio/14/14_31.ogg,,,,,,,,,0,0,0,0,0,2,2,2,0,0,0,0,,,,,,,,,,,,,0,0,0,0,0,30,30,30,,,,,,,,,,,,,,,,,,,,,,,,,,,,,,,,,,,,,,,,,,,,,,,,,,,,,,,,,,,,,,,,,,,,,,,,,,,,,,,,,,,,,,,,,,,,,,,,,,,,,,,,,482.1026320360006,489.38224499400076,,,,,,,082021,2,3,2,3,1,1,2,0,72,2021_Aug_20_1310,listening_fmri,3.2.4,59.99981376080142,
2,parcelated_audio/14/14_32.ogg,,,,,,,,,0,0,0,0,0,2,2,2,0,0,0,0,,,,,,,,,,,,,0,0,0,0,0,31,31,31,,,,,,,,,,,,,,,,,,,,,,,,,,,,,,,,,,,,,,,,,,,,,,,,,,,,,,,,,,,,,,,,,,,,,,,,,,,,,,,,,,,,,,,,,,,,,,,,,,,,,,,,,489.38259502000074,496.5370817560006,,,,,,,082021,2,3,2,3,1,1,2,0,72,2021_Aug_20_1310,listening_fmri,3.2.4,59.99981376080142,
2,parcelated_audio/14/14_33.ogg,,,,,,,,,0,0,0,0,0,2,2,2,0,0,0,0,,,,,,,,,,,,,0,0,0,0,0,32,32,32,,,,,,,,,,,,,,,,,,,,,,,,,,,,,,,,,,,,,,,,,,,,,,,,,,,,,,,,,,,,,,,,,,,,,,,,,,,,,,,,,,,,,,,,,,,,,,,,,,,,,,,,,496.5374304390007,503.1129059800005,,,,,,,082021,2,3,2,3,1,1,2,0,72,2021_Aug_20_1310,listening_fmri,3.2.4,59.99981376080142,
2,,,,,,,,,,0,0,0,0,0,2,2,2,0,0,0,0,,,,,,,,,,,,,0,0,0,0,,,,,,,,,,,,,,,,,,,,,,,,,,,,,,,,,,,,,,,,,,,,,,,,,,,,,,,,,,,,,,,,,,,,,,,,,,,,,,,,,,,,,,,,,,,,,,,,,,,,,,,,,,,,,,,,,,,,,082021,2,3,2,3,1,1,2,0,72,2021_Aug_20_1310,listening_fmri,3.2.4,59.99981376080142,
2,,,,,,,,,,0,0,0,0,0,2,2,2,0,0,0,0,,,,,,,,,,,,,,,,,,,,,,,,,,,,,,,,,,,,,,,,,,503.11338562900073,509.1056546580003,545.7500563779995,None,,,,,,,,,,,,,,,,,,,,,,,,,,,,,,,,,,,,,,,,,,,,,,,,,,,,,,,,,,,,,,,,,,,,,,,,,,,,,,,,,,551.7507838219999,None,551.7507838219999,None,,,082021,2,3,2,3,1,1,2,0,72,2021_Aug_20_1310,listening_fmri,3.2.4,59.99981376080142,
2,,,,,,,,,,0,0,0,0,0,2,2,2,,,,,,,,,,,,,,,,,,,,,,,,,,,,,,,,,,,,,,,,,,,,,,,,,,,,,,,,,,,,,,,,,,,,,,,,,,,,,,,,,,,,,,,,,,,,,,,,,,,,,,,,,,,,,,,,,,,,,,,,,,,,,,,,,,,,,,,,,082021,2,3,2,3,1,1,2,0,72,2021_Aug_20_1310,listening_fmri,3.2.4,59.99981376080142,
3,,,,,,,,,,0,0,0,0,0,3,3,3,0,0,0,0,0,0,0,0,0,0,0,0,,,,,,,,,,,,,,,,,,,,,,,,,,,,,,,,,,,,,,552.767822414,None,552.767822414,None,2,0.697314997999456,552.767822414,None,552.767822414,None,553.4840607029992,None,2,0.5152211979993808,553.4840607029992,None,553.4840607029992,None,554.0340448389998,None,554.0340448389998,None,554.0340448389998,None,2,0.8272280179999143,554.0340448389998,None,554.8842343159995,None,2,0.6809505759993044,554.8842343159995,None,554.8842343159995,None,555.6673436029996,None,555.6673436029996,None,555.6673436029996,None,555.6673436029996,None,555.6673436029996,None,555.6673436029996,None,555.6673436029996,None,None,555.6673436029996,None,,,,,,,,,,,,,,,,,,,,,,,,,,,,,,,,,,,082021,2,3,2,3,1,1,2,0,72,2021_Aug_20_1310,listening_fmri,3.2.4,59.99981376080142,
3,,,,,,,,,,0,0,0,0,0,3,3,3,0,0,0,0,0,0,0,0,,,,,,,,,,,,,,,,,,,,,,,,,,,,,,,,,,,,,,,,,,,,,,,,,,,,,,,,,,,,,,,,,,,,,,,,,,,,,,,,,,,,,,,,,,,,,,,576.083491937,None,2,1.4507621279999512,576.083491937,None,576.083491937,None,577.5676605619992,None,577.5676605619992,None,577.5676605619992,None,2,0.5745878380002978,577.5676605619992,None,,,,,,,,,,,,,,,,,082021,2,3,2,3,1,1,2,0,72,2021_Aug_20_1310,listening_fmri,3.2.4,59.99981376080142,
3,parcelated_audio/32/32_1.ogg,,,,,,,,,0,0,0,0,0,3,3,3,0,0,0,0,,,,,,,,,,,,,0,0,0,0,0,0,0,0,,,,,,,,,,,,,,,,,,,,,,,,,,,,,,,,,,,,,,,,,,,,,,,,,,,,,,,,,,,,,,,,,,,,,,,,,,,,,,,,,,,,,,,,,,,,,,,,,578.1675952429996,None,2,2.515585786999509,578.1675952429996,None,538.0577887510008,541.0666523080008,541.0747646130003,552.4410587230004,,,,,,,082021,2,3,2,3,1,1,2,0,72,2021_Aug_20_1310,listening_fmri,3.2.4,59.99981376080142,
3,parcelated_audio/32/32_2.ogg,,,,,,,,,0,0,0,0,0,3,3,3,0,0,0,0,,,,,,,,,,,,,0,0,0,0,0,1,1,1,,,,,,,,,,,,,,,,,,,,,,,,,,,,,,,,,,,,,,,,,,,,,,,,,,,,,,,,,,,,,,,,,,,,,,,,,,,,,,,,,,,,,,,,,,,,,,,,,,,,,,,,,552.4414109880008,560.7739871560007,,,,,,,082021,2,3,2,3,1,1,2,0,72,2021_Aug_20_1310,listening_fmri,3.2.4,59.99981376080142,
3,parcelated_audio/32/32_3.ogg,,,,,,,,,0,0,0,0,0,3,3,3,0,0,0,0,,,,,,,,,,,,,0,0,0,0,0,2,2,2,,,,,,,,,,,,,,,,,,,,,,,,,,,,,,,,,,,,,,,,,,,,,,,,,,,,,,,,,,,,,,,,,,,,,,,,,,,,,,,,,,,,,,,,,,,,,,,,,,,,,,,,,560.7748268770001,566.3637479890003,,,,,,,082021,2,3,2,3,1,1,2,0,72,2021_Aug_20_1310,listening_fmri,3.2.4,59.99981376080142,
3,parcelated_audio/32/32_4.ogg,,,,,,,,,0,0,0,0,0,3,3,3,0,0,0,0,,,,,,,,,,,,,0,0,0,0,0,3,3,3,,,,,,,,,,,,,,,,,,,,,,,,,,,,,,,,,,,,,,,,,,,,,,,,,,,,,,,,,,,,,,,,,,,,,,,,,,,,,,,,,,,,,,,,,,,,,,,,,,,,,,,,,566.3640972310004,573.0814311490003,,,,,,,082021,2,3,2,3,1,1,2,0,72,2021_Aug_20_1310,listening_fmri,3.2.4,59.99981376080142,
3,parcelated_audio/32/32_5.ogg,,,,,,,,,0,0,0,0,0,3,3,3,0,0,0,0,,,,,,,,,,,,,0,0,0,0,0,4,4,4,,,,,,,,,,,,,,,,,,,,,,,,,,,,,,,,,,,,,,,,,,,,,,,,,,,,,,,,,,,,,,,,,,,,,,,,,,,,,,,,,,,,,,,,,,,,,,,,,,,,,,,,,573.0818317540006,584.7829231110009,,,,,,,082021,2,3,2,3,1,1,2,0,72,2021_Aug_20_1310,listening_fmri,3.2.4,59.99981376080142,
3,parcelated_audio/32/32_6.ogg,,,,,,,,,0,0,0,0,0,3,3,3,0,0,0,0,,,,,,,,,,,,,0,0,0,0,0,5,5,5,,,,,,,,,,,,,,,,,,,,,,,,,,,,,,,,,,,,,,,,,,,,,,,,,,,,,,,,,,,,,,,,,,,,,,,,,,,,,,,,,,,,,,,,,,,,,,,,,,,,,,,,,584.7832813930008,593.2784716980004,,,,,,,082021,2,3,2,3,1,1,2,0,72,2021_Aug_20_1310,listening_fmri,3.2.4,59.99981376080142,
3,parcelated_audio/32/32_7.ogg,,,,,,,,,0,0,0,0,0,3,3,3,0,0,0,0,,,,,,,,,,,,,0,0,0,0,0,6,6,6,,,,,,,,,,,,,,,,,,,,,,,,,,,,,,,,,,,,,,,,,,,,,,,,,,,,,,,,,,,,,,,,,,,,,,,,,,,,,,,,,,,,,,,,,,,,,,,,,,,,,,,,,593.2788203720002,596.6790143810003,,,,,,,082021,2,3,2,3,1,1,2,0,72,2021_Aug_20_1310,listening_fmri,3.2.4,59.99981376080142,
3,parcelated_audio/32/32_8.ogg,,,,,,,,,0,0,0,0,0,3,3,3,0,0,0,0,,,,,,,,,,,,,0,0,0,0,0,7,7,7,,,,,,,,,,,,,,,,,,,,,,,,,,,,,,,,,,,,,,,,,,,,,,,,,,,,,,,,,,,,,,,,,,,,,,,,,,,,,,,,,,,,,,,,,,,,,,,,,,,,,,,,,596.6797179620007,601.1552414280004,,,,,,,082021,2,3,2,3,1,1,2,0,72,2021_Aug_20_1310,listening_fmri,3.2.4,59.99981376080142,
3,parcelated_audio/32/32_9.ogg,,,,,,,,,0,0,0,0,0,3,3,3,0,0,0,0,,,,,,,,,,,,,0,0,0,0,0,8,8,8,,,,,,,,,,,,,,,,,,,,,,,,,,,,,,,,,,,,,,,,,,,,,,,,,,,,,,,,,,,,,,,,,,,,,,,,,,,,,,,,,,,,,,,,,,,,,,,,,,,,,,,,,601.1555908150003,609.8436042180001,,,,,,,082021,2,3,2,3,1,1,2,0,72,2021_Aug_20_1310,listening_fmri,3.2.4,59.99981376080142,
3,parcelated_audio/32/32_10.ogg,,,,,,,,,0,0,0,0,0,3,3,3,0,0,0,0,,,,,,,,,,,,,0,0,0,0,0,9,9,9,,,,,,,,,,,,,,,,,,,,,,,,,,,,,,,,,,,,,,,,,,,,,,,,,,,,,,,,,,,,,,,,,,,,,,,,,,,,,,,,,,,,,,,,,,,,,,,,,,,,,,,,,609.8439540960007,614.533223679,,,,,,,082021,2,3,2,3,1,1,2,0,72,2021_Aug_20_1310,listening_fmri,3.2.4,59.99981376080142,
3,parcelated_audio/32/32_11.ogg,,,,,,,,,0,0,0,0,0,3,3,3,0,0,0,0,,,,,,,,,,,,,0,0,0,0,0,10,10,10,,,,,,,,,,,,,,,,,,,,,,,,,,,,,,,,,,,,,,,,,,,,,,,,,,,,,,,,,,,,,,,,,,,,,,,,,,,,,,,,,,,,,,,,,,,,,,,,,,,,,,,,,614.5335648230002,620.6250122670008,,,,,,,082021,2,3,2,3,1,1,2,0,72,2021_Aug_20_1310,listening_fmri,3.2.4,59.99981376080142,
3,parcelated_audio/32/32_12.ogg,,,,,,,,,0,0,0,0,0,3,3,3,0,0,0,0,,,,,,,,,,,,,0,0,0,0,0,11,11,11,,,,,,,,,,,,,,,,,,,,,,,,,,,,,,,,,,,,,,,,,,,,,,,,,,,,,,,,,,,,,,,,,,,,,,,,,,,,,,,,,,,,,,,,,,,,,,,,,,,,,,,,,620.6253562950005,630.0709930170005,,,,,,,082021,2,3,2,3,1,1,2,0,72,2021_Aug_20_1310,listening_fmri,3.2.4,59.99981376080142,
3,parcelated_audio/32/32_13.ogg,,,,,,,,,0,0,0,0,0,3,3,3,0,0,0,0,,,,,,,,,,,,,0,0,0,0,0,12,12,12,,,,,,,,,,,,,,,,,,,,,,,,,,,,,,,,,,,,,,,,,,,,,,,,,,,,,,,,,,,,,,,,,,,,,,,,,,,,,,,,,,,,,,,,,,,,,,,,,,,,,,,,,630.0713655710006,639.6952665710005,,,,,,,082021,2,3,2,3,1,1,2,0,72,2021_Aug_20_1310,listening_fmri,3.2.4,59.99981376080142,
3,parcelated_audio/32/32_14.ogg,,,,,,,,,0,0,0,0,0,3,3,3,0,0,0,0,,,,,,,,,,,,,0,0,0,0,0,13,13,13,,,,,,,,,,,,,,,,,,,,,,,,,,,,,,,,,,,,,,,,,,,,,,,,,,,,,,,,,,,,,,,,,,,,,,,,,,,,,,,,,,,,,,,,,,,,,,,,,,,,,,,,,639.6962256350007,647.8829257030002,,,,,,,082021,2,3,2,3,1,1,2,0,72,2021_Aug_20_1310,listening_fmri,3.2.4,59.99981376080142,
3,parcelated_audio/32/32_15.ogg,,,,,,,,,0,0,0,0,0,3,3,3,0,0,0,0,,,,,,,,,,,,,0,0,0,0,0,14,14,14,,,,,,,,,,,,,,,,,,,,,,,,,,,,,,,,,,,,,,,,,,,,,,,,,,,,,,,,,,,,,,,,,,,,,,,,,,,,,,,,,,,,,,,,,,,,,,,,,,,,,,,,,647.8832581350007,654.7768444020003,,,,,,,082021,2,3,2,3,1,1,2,0,72,2021_Aug_20_1310,listening_fmri,3.2.4,59.99981376080142,
3,parcelated_audio/32/32_16.ogg,,,,,,,,,0,0,0,0,0,3,3,3,0,0,0,0,,,,,,,,,,,,,0,0,0,0,0,15,15,15,,,,,,,,,,,,,,,,,,,,,,,,,,,,,,,,,,,,,,,,,,,,,,,,,,,,,,,,,,,,,,,,,,,,,,,,,,,,,,,,,,,,,,,,,,,,,,,,,,,,,,,,,654.7772613280003,662.3949856480003,,,,,,,082021,2,3,2,3,1,1,2,0,72,2021_Aug_20_1310,listening_fmri,3.2.4,59.99981376080142,
3,parcelated_audio/32/32_17.ogg,,,,,,,,,0,0,0,0,0,3,3,3,0,0,0,0,,,,,,,,,,,,,0,0,0,0,0,16,16,16,,,,,,,,,,,,,,,,,,,,,,,,,,,,,,,,,,,,,,,,,,,,,,,,,,,,,,,,,,,,,,,,,,,,,,,,,,,,,,,,,,,,,,,,,,,,,,,,,,,,,,,,,662.3953349000003,670.7091304680007,,,,,,,082021,2,3,2,3,1,1,2,0,72,2021_Aug_20_1310,listening_fmri,3.2.4,59.99981376080142,
3,parcelated_audio/32/32_18.ogg,,,,,,,,,0,0,0,0,0,3,3,3,0,0,0,0,,,,,,,,,,,,,0,0,0,0,0,17,17,17,,,,,,,,,,,,,,,,,,,,,,,,,,,,,,,,,,,,,,,,,,,,,,,,,,,,,,,,,,,,,,,,,,,,,,,,,,,,,,,,,,,,,,,,,,,,,,,,,,,,,,,,,670.7094830650003,675.0273958950002,,,,,,,082021,2,3,2,3,1,1,2,0,72,2021_Aug_20_1310,listening_fmri,3.2.4,59.99981376080142,
3,parcelated_audio/32/32_19.ogg,,,,,,,,,0,0,0,0,0,3,3,3,0,0,0,0,,,,,,,,,,,,,0,0,0,0,0,18,18,18,,,,,,,,,,,,,,,,,,,,,,,,,,,,,,,,,,,,,,,,,,,,,,,,,,,,,,,,,,,,,,,,,,,,,,,,,,,,,,,,,,,,,,,,,,,,,,,,,,,,,,,,,675.0277498780006,683.0861733240008,,,,,,,082021,2,3,2,3,1,1,2,0,72,2021_Aug_20_1310,listening_fmri,3.2.4,59.99981376080142,
3,parcelated_audio/32/32_20.ogg,,,,,,,,,0,0,0,0,0,3,3,3,0,0,0,0,,,,,,,,,,,,,0,0,0,0,0,19,19,19,,,,,,,,,,,,,,,,,,,,,,,,,,,,,,,,,,,,,,,,,,,,,,,,,,,,,,,,,,,,,,,,,,,,,,,,,,,,,,,,,,,,,,,,,,,,,,,,,,,,,,,,,683.0865246640005,693.9983574420003,,,,,,,082021,2,3,2,3,1,1,2,0,72,2021_Aug_20_1310,listening_fmri,3.2.4,59.99981376080142,
3,parcelated_audio/32/32_21.ogg,,,,,,,,,0,0,0,0,0,3,3,3,0,0,0,0,,,,,,,,,,,,,0,0,0,0,0,20,20,20,,,,,,,,,,,,,,,,,,,,,,,,,,,,,,,,,,,,,,,,,,,,,,,,,,,,,,,,,,,,,,,,,,,,,,,,,,,,,,,,,,,,,,,,,,,,,,,,,,,,,,,,,693.9987036020002,702.8781588800002,,,,,,,082021,2,3,2,3,1,1,2,0,72,2021_Aug_20_1310,listening_fmri,3.2.4,59.99981376080142,
3,parcelated_audio/32/32_22.ogg,,,,,,,,,0,0,0,0,0,3,3,3,0,0,0,0,,,,,,,,,,,,,0,0,0,0,0,21,21,21,,,,,,,,,,,,,,,,,,,,,,,,,,,,,,,,,,,,,,,,,,,,,,,,,,,,,,,,,,,,,,,,,,,,,,,,,,,,,,,,,,,,,,,,,,,,,,,,,,,,,,,,,702.8785066820001,716.9190602450008,,,,,,,082021,2,3,2,3,1,1,2,0,72,2021_Aug_20_1310,listening_fmri,3.2.4,59.99981376080142,
3,parcelated_audio/32/32_23.ogg,,,,,,,,,0,0,0,0,0,3,3,3,0,0,0,0,,,,,,,,,,,,,0,0,0,0,0,22,22,22,,,,,,,,,,,,,,,,,,,,,,,,,,,,,,,,,,,,,,,,,,,,,,,,,,,,,,,,,,,,,,,,,,,,,,,,,,,,,,,,,,,,,,,,,,,,,,,,,,,,,,,,,716.9194081750002,725.9586956970006,,,,,,,082021,2,3,2,3,1,1,2,0,72,2021_Aug_20_1310,listening_fmri,3.2.4,59.99981376080142,
3,parcelated_audio/32/32_24.ogg,,,,,,,,,0,0,0,0,0,3,3,3,0,0,0,0,,,,,,,,,,,,,0,0,0,0,0,23,23,23,,,,,,,,,,,,,,,,,,,,,,,,,,,,,,,,,,,,,,,,,,,,,,,,,,,,,,,,,,,,,,,,,,,,,,,,,,,,,,,,,,,,,,,,,,,,,,,,,,,,,,,,,725.9596037830006,737.2542484960004,,,,,,,082021,2,3,2,3,1,1,2,0,72,2021_Aug_20_1310,listening_fmri,3.2.4,59.99981376080142,
3,parcelated_audio/32/32_25.ogg,,,,,,,,,0,0,0,0,0,3,3,3,0,0,0,0,,,,,,,,,,,,,0,0,0,0,0,24,24,24,,,,,,,,,,,,,,,,,,,,,,,,,,,,,,,,,,,,,,,,,,,,,,,,,,,,,,,,,,,,,,,,,,,,,,,,,,,,,,,,,,,,,,,,,,,,,,,,,,,,,,,,,737.2548198920003,743.3126874630007,,,,,,,082021,2,3,2,3,1,1,2,0,72,2021_Aug_20_1310,listening_fmri,3.2.4,59.99981376080142,
3,parcelated_audio/32/32_26.ogg,,,,,,,,,0,0,0,0,0,3,3,3,0,0,0,0,,,,,,,,,,,,,0,0,0,0,0,25,25,25,,,,,,,,,,,,,,,,,,,,,,,,,,,,,,,,,,,,,,,,,,,,,,,,,,,,,,,,,,,,,,,,,,,,,,,,,,,,,,,,,,,,,,,,,,,,,,,,,,,,,,,,,743.3130329740006,756.7076783450002,,,,,,,082021,2,3,2,3,1,1,2,0,72,2021_Aug_20_1310,listening_fmri,3.2.4,59.99981376080142,
3,parcelated_audio/32/32_27.ogg,,,,,,,,,0,0,0,0,0,3,3,3,0,0,0,0,,,,,,,,,,,,,0,0,0,0,0,26,26,26,,,,,,,,,,,,,,,,,,,,,,,,,,,,,,,,,,,,,,,,,,,,,,,,,,,,,,,,,,,,,,,,,,,,,,,,,,,,,,,,,,,,,,,,,,,,,,,,,,,,,,,,,756.7080232240005,763.6642558800004,,,,,,,082021,2,3,2,3,1,1,2,0,72,2021_Aug_20_1310,listening_fmri,3.2.4,59.99981376080142,
3,parcelated_audio/32/32_28.ogg,,,,,,,,,0,0,0,0,0,3,3,3,0,0,0,0,,,,,,,,,,,,,0,0,0,0,0,27,27,27,,,,,,,,,,,,,,,,,,,,,,,,,,,,,,,,,,,,,,,,,,,,,,,,,,,,,,,,,,,,,,,,,,,,,,,,,,,,,,,,,,,,,,,,,,,,,,,,,,,,,,,,,763.6646068300006,770.3723118400003,,,,,,,082021,2,3,2,3,1,1,2,0,72,2021_Aug_20_1310,listening_fmri,3.2.4,59.99981376080142,
3,parcelated_audio/32/32_29.ogg,,,,,,,,,0,0,0,0,0,3,3,3,0,0,0,0,,,,,,,,,,,,,0,0,0,0,0,28,28,28,,,,,,,,,,,,,,,,,,,,,,,,,,,,,,,,,,,,,,,,,,,,,,,,,,,,,,,,,,,,,,,,,,,,,,,,,,,,,,,,,,,,,,,,,,,,,,,,,,,,,,,,,770.3725903880004,773.0304139590007,,,,,,,082021,2,3,2,3,1,1,2,0,72,2021_Aug_20_1310,listening_fmri,3.2.4,59.99981376080142,
3,parcelated_audio/32/32_30.ogg,,,,,,,,,0,0,0,0,0,3,3,3,0,0,0,0,,,,,,,,,,,,,0,0,0,0,0,29,29,29,,,,,,,,,,,,,,,,,,,,,,,,,,,,,,,,,,,,,,,,,,,,,,,,,,,,,,,,,,,,,,,,,,,,,,,,,,,,,,,,,,,,,,,,,,,,,,,,,,,,,,,,,773.030765642,780.0703347950002,,,,,,,082021,2,3,2,3,1,1,2,0,72,2021_Aug_20_1310,listening_fmri,3.2.4,59.99981376080142,
3,parcelated_audio/32/32_31.ogg,,,,,,,,,0,0,0,0,0,3,3,3,0,0,0,0,,,,,,,,,,,,,0,0,0,0,0,30,30,30,,,,,,,,,,,,,,,,,,,,,,,,,,,,,,,,,,,,,,,,,,,,,,,,,,,,,,,,,,,,,,,,,,,,,,,,,,,,,,,,,,,,,,,,,,,,,,,,,,,,,,,,,780.0706836600002,786.4100402370004,,,,,,,082021,2,3,2,3,1,1,2,0,72,2021_Aug_20_1310,listening_fmri,3.2.4,59.99981376080142,
3,parcelated_audio/32/32_32.ogg,,,,,,,,,0,0,0,0,0,3,3,3,0,0,0,0,,,,,,,,,,,,,0,0,0,0,0,31,31,31,,,,,,,,,,,,,,,,,,,,,,,,,,,,,,,,,,,,,,,,,,,,,,,,,,,,,,,,,,,,,,,,,,,,,,,,,,,,,,,,,,,,,,,,,,,,,,,,,,,,,,,,,786.4104845650008,796.1289650960007,,,,,,,082021,2,3,2,3,1,1,2,0,72,2021_Aug_20_1310,listening_fmri,3.2.4,59.99981376080142,
3,parcelated_audio/32/32_33.ogg,,,,,,,,,0,0,0,0,0,3,3,3,0,0,0,0,,,,,,,,,,,,,0,0,0,0,0,32,32,32,,,,,,,,,,,,,,,,,,,,,,,,,,,,,,,,,,,,,,,,,,,,,,,,,,,,,,,,,,,,,,,,,,,,,,,,,,,,,,,,,,,,,,,,,,,,,,,,,,,,,,,,,796.1294312500004,801.8913508980004,,,,,,,082021,2,3,2,3,1,1,2,0,72,2021_Aug_20_1310,listening_fmri,3.2.4,59.99981376080142,
3,,,,,,,,,,0,0,0,0,0,3,3,3,0,0,0,0,,,,,,,,,,,,,0,0,0,0,,,,,,,,,,,,,,,,,,,,,,,,,,,,,,,,,,,,,,,,,,,,,,,,,,,,,,,,,,,,,,,,,,,,,,,,,,,,,,,,,,,,,,,,,,,,,,,,,,,,,,,,,,,,,,,,,,,,,082021,2,3,2,3,1,1,2,0,72,2021_Aug_20_1310,listening_fmri,3.2.4,59.99981376080142,
3,,,,,,,,,,0,0,0,0,0,3,3,3,0,0,0,0,,,,,,,,,,,,,,,,,,,,,,,,,,,,,,,,,,,,,,,,,,801.8918357270004,807.8830540680001,844.5345201709997,None,,,,,,,,,,,,,,,,,,,,,,,,,,,,,,,,,,,,,,,,,,,,,,,,,,,,,,,,,,,,,,,,,,,,,,,,,,,,,,,,,,850.5348060739998,None,850.5348060739998,None,,,082021,2,3,2,3,1,1,2,0,72,2021_Aug_20_1310,listening_fmri,3.2.4,59.99981376080142,
3,,,,,,,,,,0,0,0,0,0,3,3,3,,,,,,,,,,,,,,,,,,,,,,,,,,,,,,,,,,,,,,,,,,,,,,,,,,,,,,,,,,,,,,,,,,,,,,,,,,,,,,,,,,,,,,,,,,,,,,,,,,,,,,,,,,,,,,,,,,,,,,,,,,,,,,,,,,,,,,,,,082021,2,3,2,3,1,1,2,0,72,2021_Aug_20_1310,listening_fmri,3.2.4,59.99981376080142,
4,parcelated_audio/12/12_1.ogg,,,,,,,,,0,0,0,0,0,4,4,4,0,0,0,0,,,,,,,,,,,,,0,0,0,0,0,0,0,0,,,,,,,,,,,,,,,,,,,,,,,,,,851.5516846559995,None,851.5516846559995,None,2,0.9435795039998993,851.5516846559995,None,851.5516846559995,None,,,,,,,,,,,,,,,,,,,,,,,,,,,,,,,,,,,,,,,,,,,,,,,,,,,,,,,,,,,,,,852.517145068,None,2,0.6311119449992475,852.517145068,None,810.5250593840001,813.5331848360001,813.5399071680004,823.4112161680005,,,,,,,082021,2,3,2,3,1,1,2,0,72,2021_Aug_20_1310,listening_fmri,3.2.4,59.99981376080142,
4,parcelated_audio/12/12_2.ogg,,,,,,,,,0,0,0,0,0,4,4,4,0,0,0,0,,,,,,,,,,,,,0,0,0,0,0,1,1,1,,,,,,,,,,,,,,,,,,,,,,,,,,,,,,,,,,,,,,,,,,,,,,,,,,,,,,,,,,,,,,,,,,,,,,,,,,,,,,,,,,,,,,,,,,,,,,,,,,,,,,,,,823.4115396750003,831.1721888750008,,,,,,,082021,2,3,2,3,1,1,2,0,72,2021_Aug_20_1310,listening_fmri,3.2.4,59.99981376080142,
4,parcelated_audio/12/12_3.ogg,,,,,,,,,0,0,0,0,0,4,4,4,0,0,0,0,,,,,,,,,,,,,0,0,0,0,0,2,2,2,,,,,,,,,,,,,,,,,,,,,,,,,,,,,,,,,,,,,,,,,,,,,,,,,,,,,,,,,,,,,,,,,,,,,,,,,,,,,,,,,,,,,,,,,,,,,,,,,,,,,,,,,831.1724898260009,838.5131991750004,,,,,,,082021,2,3,2,3,1,1,2,0,72,2021_Aug_20_1310,listening_fmri,3.2.4,59.99981376080142,
4,parcelated_audio/12/12_4.ogg,,,,,,,,,0,0,0,0,0,4,4,4,0,0,0,0,,,,,,,,,,,,,0,0,0,0,0,3,3,3,,,,,,,,,,,,,,,,,,,,,,,,,,,,,,,,,,,,,,,,,,,,,,,,,,,,,,,,,,,,,,,,,,,,,,,,,,,,,,,,,,,,,,,,,,,,,,,,,,,,,,,,,838.5136053640008,845.0831572840007,,,,,,,082021,2,3,2,3,1,1,2,0,72,2021_Aug_20_1310,listening_fmri,3.2.4,59.99981376080142,
4,parcelated_audio/12/12_5.ogg,,,,,,,,,0,0,0,0,0,4,4,4,0,0,0,0,,,,,,,,,,,,,0,0,0,0,0,4,4,4,,,,,,,,,,,,,,,,,,,,,,,,,,,,,,,,,,,,,,,,,,,,,,,,,,,,,,,,,,,,,,,,,,,,,,,,,,,,,,,,,,,,,,,,,,,,,,,,,,,,,,,,,845.0841155840008,853.0422978960005,,,,,,,082021,2,3,2,3,1,1,2,0,72,2021_Aug_20_1310,listening_fmri,3.2.4,59.99981376080142,
4,parcelated_audio/12/12_6.ogg,,,,,,,,,0,0,0,0,0,4,4,4,0,0,0,0,,,,,,,,,,,,,0,0,0,0,0,5,5,5,,,,,,,,,,,,,,,,,,,,,,,,,,,,,,,,,,,,,,,,,,,,,,,,,,,,,,,,,,,,,,,,,,,,,,,,,,,,,,,,,,,,,,,,,,,,,,,,,,,,,,,,,853.0425491520009,856.6542492500002,,,,,,,082021,2,3,2,3,1,1,2,0,72,2021_Aug_20_1310,listening_fmri,3.2.4,59.99981376080142,
4,parcelated_audio/12/12_7.ogg,,,,,,,,,0,0,0,0,0,4,4,4,0,0,0,0,,,,,,,,,,,,,0,0,0,0,0,6,6,6,,,,,,,,,,,,,,,,,,,,,,,,,,,,,,,,,,,,,,,,,,,,,,,,,,,,,,,,,,,,,,,,,,,,,,,,,,,,,,,,,,,,,,,,,,,,,,,,,,,,,,,,,856.6547923450007,866.9792595560002,,,,,,,082021,2,3,2,3,1,1,2,0,72,2021_Aug_20_1310,listening_fmri,3.2.4,59.99981376080142,
4,parcelated_audio/12/12_8.ogg,,,,,,,,,0,0,0,0,0,4,4,4,0,0,0,0,,,,,,,,,,,,,0,0,0,0,0,7,7,7,,,,,,,,,,,,,,,,,,,,,,,,,,,,,,,,,,,,,,,,,,,,,,,,,,,,,,,,,,,,,,,,,,,,,,,,,,,,,,,,,,,,,,,,,,,,,,,,,,,,,,,,,866.9796086890001,875.7581400960007,,,,,,,082021,2,3,2,3,1,1,2,0,72,2021_Aug_20_1310,listening_fmri,3.2.4,59.99981376080142,
4,parcelated_audio/12/12_9.ogg,,,,,,,,,0,0,0,0,0,4,4,4,0,0,0,0,,,,,,,,,,,,,0,0,0,0,0,8,8,8,,,,,,,,,,,,,,,,,,,,,,,,,,,,,,,,,,,,,,,,,,,,,,,,,,,,,,,,,,,,,,,,,,,,,,,,,,,,,,,,,,,,,,,,,,,,,,,,,,,,,,,,,875.7584889850004,879.6177446130005,,,,,,,082021,2,3,2,3,1,1,2,0,72,2021_Aug_20_1310,listening_fmri,3.2.4,59.99981376080142,
4,parcelated_audio/12/12_10.ogg,,,,,,,,,0,0,0,0,0,4,4,4,0,0,0,0,,,,,,,,,,,,,0,0,0,0,0,9,9,9,,,,,,,,,,,,,,,,,,,,,,,,,,,,,,,,,,,,,,,,,,,,,,,,,,,,,,,,,,,,,,,,,,,,,,,,,,,,,,,,,,,,,,,,,,,,,,,,,,,,,,,,,879.6180821580001,884.4152601630003,,,,,,,082021,2,3,2,3,1,1,2,0,72,2021_Aug_20_1310,listening_fmri,3.2.4,59.99981376080142,
4,parcelated_audio/12/12_11.ogg,,,,,,,,,0,0,0,0,0,4,4,4,0,0,0,0,,,,,,,,,,,,,0,0,0,0,0,10,10,10,,,,,,,,,,,,,,,,,,,,,,,,,,,,,,,,,,,,,,,,,,,,,,,,,,,,,,,,,,,,,,,,,,,,,,,,,,,,,,,,,,,,,,,,,,,,,,,,,,,,,,,,,884.4157820220007,887.3111156690002,,,,,,,082021,2,3,2,3,1,1,2,0,72,2021_Aug_20_1310,listening_fmri,3.2.4,59.99981376080142,
4,parcelated_audio/12/12_12.ogg,,,,,,,,,0,0,0,0,0,4,4,4,0,0,0,0,,,,,,,,,,,,,0,0,0,0,0,11,11,11,,,,,,,,,,,,,,,,,,,,,,,,,,,,,,,,,,,,,,,,,,,,,,,,,,,,,,,,,,,,,,,,,,,,,,,,,,,,,,,,,,,,,,,,,,,,,,,,,,,,,,,,,887.3114678880002,896.1662696040003,,,,,,,082021,2,3,2,3,1,1,2,0,72,2021_Aug_20_1310,listening_fmri,3.2.4,59.99981376080142,
4,parcelated_audio/12/12_13.ogg,,,,,,,,,0,0,0,0,0,4,4,4,0,0,0,0,,,,,,,,,,,,,0,0,0,0,0,12,12,12,,,,,,,,,,,,,,,,,,,,,,,,,,,,,,,,,,,,,,,,,,,,,,,,,,,,,,,,,,,,,,,,,,,,,,,,,,,,,,,,,,,,,,,,,,,,,,,,,,,,,,,,,896.1667160230008,901.4198011330009,,,,,,,082021,2,3,2,3,1,1,2,0,72,2021_Aug_20_1310,listening_fmri,3.2.4,59.99981376080142,
4,parcelated_audio/12/12_14.ogg,,,,,,,,,0,0,0,0,0,4,4,4,0,0,0,0,,,,,,,,,,,,,0,0,0,0,0,13,13,13,,,,,,,,,,,,,,,,,,,,,,,,,,,,,,,,,,,,,,,,,,,,,,,,,,,,,,,,,,,,,,,,,,,,,,,,,,,,,,,,,,,,,,,,,,,,,,,,,,,,,,,,,901.4201519880007,906.3491677580005,,,,,,,082021,2,3,2,3,1,1,2,0,72,2021_Aug_20_1310,listening_fmri,3.2.4,59.99981376080142,
4,parcelated_audio/12/12_15.ogg,,,,,,,,,0,0,0,0,0,4,4,4,0,0,0,0,,,,,,,,,,,,,0,0,0,0,0,14,14,14,,,,,,,,,,,,,,,,,,,,,,,,,,,,,,,,,,,,,,,,,,,,,,,,,,,,,,,,,,,,,,,,,,,,,,,,,,,,,,,,,,,,,,,,,,,,,,,,,,,,,,,,,906.3495154920001,912.3342516400007,,,,,,,082021,2,3,2,3,1,1,2,0,72,2021_Aug_20_1310,listening_fmri,3.2.4,59.99981376080142,
4,parcelated_audio/12/12_16.ogg,,,,,,,,,0,0,0,0,0,4,4,4,0,0,0,0,,,,,,,,,,,,,0,0,0,0,0,15,15,15,,,,,,,,,,,,,,,,,,,,,,,,,,,,,,,,,,,,,,,,,,,,,,,,,,,,,,,,,,,,,,,,,,,,,,,,,,,,,,,,,,,,,,,,,,,,,,,,,,,,,,,,,912.3345031420004,916.5480336030005,,,,,,,082021,2,3,2,3,1,1,2,0,72,2021_Aug_20_1310,listening_fmri,3.2.4,59.99981376080142,
4,parcelated_audio/12/12_17.ogg,,,,,,,,,0,0,0,0,0,4,4,4,0,0,0,0,,,,,,,,,,,,,0,0,0,0,0,16,16,16,,,,,,,,,,,,,,,,,,,,,,,,,,,,,,,,,,,,,,,,,,,,,,,,,,,,,,,,,,,,,,,,,,,,,,,,,,,,,,,,,,,,,,,,,,,,,,,,,,,,,,,,,916.5484056640007,921.5402696710007,,,,,,,082021,2,3,2,3,1,1,2,0,72,2021_Aug_20_1310,listening_fmri,3.2.4,59.99981376080142,
4,parcelated_audio/12/12_18.ogg,,,,,,,,,0,0,0,0,0,4,4,4,0,0,0,0,,,,,,,,,,,,,0,0,0,0,0,17,17,17,,,,,,,,,,,,,,,,,,,,,,,,,,,,,,,,,,,,,,,,,,,,,,,,,,,,,,,,,,,,,,,,,,,,,,,,,,,,,,,,,,,,,,,,,,,,,,,,,,,,,,,,,921.5405439870001,930.7516035910003,,,,,,,082021,2,3,2,3,1,1,2,0,72,2021_Aug_20_1310,listening_fmri,3.2.4,59.99981376080142,
4,parcelated_audio/12/12_19.ogg,,,,,,,,,0,0,0,0,0,4,4,4,0,0,0,0,,,,,,,,,,,,,0,0,0,0,0,18,18,18,,,,,,,,,,,,,,,,,,,,,,,,,,,,,,,,,,,,,,,,,,,,,,,,,,,,,,,,,,,,,,,,,,,,,,,,,,,,,,,,,,,,,,,,,,,,,,,,,,,,,,,,,930.751958371,940.7691095150003,,,,,,,082021,2,3,2,3,1,1,2,0,72,2021_Aug_20_1310,listening_fmri,3.2.4,59.99981376080142,
4,parcelated_audio/12/12_20.ogg,,,,,,,,,0,0,0,0,0,4,4,4,0,0,0,0,,,,,,,,,,,,,0,0,0,0,0,19,19,19,,,,,,,,,,,,,,,,,,,,,,,,,,,,,,,,,,,,,,,,,,,,,,,,,,,,,,,,,,,,,,,,,,,,,,,,,,,,,,,,,,,,,,,,,,,,,,,,,,,,,,,,,940.7694583030006,948.5795810320005,,,,,,,082021,2,3,2,3,1,1,2,0,72,2021_Aug_20_1310,listening_fmri,3.2.4,59.99981376080142,
4,parcelated_audio/12/12_21.ogg,,,,,,,,,0,0,0,0,0,4,4,4,0,0,0,0,,,,,,,,,,,,,0,0,0,0,0,20,20,20,,,,,,,,,,,,,,,,,,,,,,,,,,,,,,,,,,,,,,,,,,,,,,,,,,,,,,,,,,,,,,,,,,,,,,,,,,,,,,,,,,,,,,,,,,,,,,,,,,,,,,,,,948.5811373200004,954.0949660620008,,,,,,,082021,2,3,2,3,1,1,2,0,72,2021_Aug_20_1310,listening_fmri,3.2.4,59.99981376080142,
4,parcelated_audio/12/12_22.ogg,,,,,,,,,0,0,0,0,0,4,4,4,0,0,0,0,,,,,,,,,,,,,0,0,0,0,0,21,21,21,,,,,,,,,,,,,,,,,,,,,,,,,,,,,,,,,,,,,,,,,,,,,,,,,,,,,,,,,,,,,,,,,,,,,,,,,,,,,,,,,,,,,,,,,,,,,,,,,,,,,,,,,954.0953416220009,957.9601147010007,,,,,,,082021,2,3,2,3,1,1,2,0,72,2021_Aug_20_1310,listening_fmri,3.2.4,59.99981376080142,
4,parcelated_audio/12/12_23.ogg,,,,,,,,,0,0,0,0,0,4,4,4,0,0,0,0,,,,,,,,,,,,,0,0,0,0,0,22,22,22,,,,,,,,,,,,,,,,,,,,,,,,,,,,,,,,,,,,,,,,,,,,,,,,,,,,,,,,,,,,,,,,,,,,,,,,,,,,,,,,,,,,,,,,,,,,,,,,,,,,,,,,,957.9606066720007,964.8338118540005,,,,,,,082021,2,3,2,3,1,1,2,0,72,2021_Aug_20_1310,listening_fmri,3.2.4,59.99981376080142,
4,parcelated_audio/12/12_24.ogg,,,,,,,,,0,0,0,0,0,4,4,4,0,0,0,0,,,,,,,,,,,,,0,0,0,0,0,23,23,23,,,,,,,,,,,,,,,,,,,,,,,,,,,,,,,,,,,,,,,,,,,,,,,,,,,,,,,,,,,,,,,,,,,,,,,,,,,,,,,,,,,,,,,,,,,,,,,,,,,,,,,,,964.8341438250009,968.9906135750007,,,,,,,082021,2,3,2,3,1,1,2,0,72,2021_Aug_20_1310,listening_fmri,3.2.4,59.99981376080142,
4,parcelated_audio/12/12_25.ogg,,,,,,,,,0,0,0,0,0,4,4,4,0,0,0,0,,,,,,,,,,,,,0,0,0,0,0,24,24,24,,,,,,,,,,,,,,,,,,,,,,,,,,,,,,,,,,,,,,,,,,,,,,,,,,,,,,,,,,,,,,,,,,,,,,,,,,,,,,,,,,,,,,,,,,,,,,,,,,,,,,,,,968.9909390510002,979.3331094880004,,,,,,,082021,2,3,2,3,1,1,2,0,72,2021_Aug_20_1310,listening_fmri,3.2.4,59.99981376080142,
4,parcelated_audio/12/12_26.ogg,,,,,,,,,0,0,0,0,0,4,4,4,0,0,0,0,,,,,,,,,,,,,0,0,0,0,0,25,25,25,,,,,,,,,,,,,,,,,,,,,,,,,,,,,,,,,,,,,,,,,,,,,,,,,,,,,,,,,,,,,,,,,,,,,,,,,,,,,,,,,,,,,,,,,,,,,,,,,,,,,,,,,979.3334476830005,984.5761734010002,,,,,,,082021,2,3,2,3,1,1,2,0,72,2021_Aug_20_1310,listening_fmri,3.2.4,59.99981376080142,
4,parcelated_audio/12/12_27.ogg,,,,,,,,,0,0,0,0,0,4,4,4,0,0,0,0,,,,,,,,,,,,,0,0,0,0,0,26,26,26,,,,,,,,,,,,,,,,,,,,,,,,,,,,,,,,,,,,,,,,,,,,,,,,,,,,,,,,,,,,,,,,,,,,,,,,,,,,,,,,,,,,,,,,,,,,,,,,,,,,,,,,,984.5765256920004,992.2611731500001,,,,,,,082021,2,3,2,3,1,1,2,0,72,2021_Aug_20_1310,listening_fmri,3.2.4,59.99981376080142,
4,parcelated_audio/12/12_28.ogg,,,,,,,,,0,0,0,0,0,4,4,4,0,0,0,0,,,,,,,,,,,,,0,0,0,0,0,27,27,27,,,,,,,,,,,,,,,,,,,,,,,,,,,,,,,,,,,,,,,,,,,,,,,,,,,,,,,,,,,,,,,,,,,,,,,,,,,,,,,,,,,,,,,,,,,,,,,,,,,,,,,,,992.2615247360009,1003.2543074150008,,,,,,,082021,2,3,2,3,1,1,2,0,72,2021_Aug_20_1310,listening_fmri,3.2.4,59.99981376080142,
4,parcelated_audio/12/12_29.ogg,,,,,,,,,0,0,0,0,0,4,4,4,0,0,0,0,,,,,,,,,,,,,0,0,0,0,0,28,28,28,,,,,,,,,,,,,,,,,,,,,,,,,,,,,,,,,,,,,,,,,,,,,,,,,,,,,,,,,,,,,,,,,,,,,,,,,,,,,,,,,,,,,,,,,,,,,,,,,,,,,,,,,1003.2553886110009,1009.3572312710003,,,,,,,082021,2,3,2,3,1,1,2,0,72,2021_Aug_20_1310,listening_fmri,3.2.4,59.99981376080142,
4,parcelated_audio/12/12_30.ogg,,,,,,,,,0,0,0,0,0,4,4,4,0,0,0,0,,,,,,,,,,,,,0,0,0,0,0,29,29,29,,,,,,,,,,,,,,,,,,,,,,,,,,,,,,,,,,,,,,,,,,,,,,,,,,,,,,,,,,,,,,,,,,,,,,,,,,,,,,,,,,,,,,,,,,,,,,,,,,,,,,,,,1009.3582840560002,1016.3221984150005,,,,,,,082021,2,3,2,3,1,1,2,0,72,2021_Aug_20_1310,listening_fmri,3.2.4,59.99981376080142,
4,parcelated_audio/12/12_31.ogg,,,,,,,,,0,0,0,0,0,4,4,4,0,0,0,0,,,,,,,,,,,,,0,0,0,0,0,30,30,30,,,,,,,,,,,,,,,,,,,,,,,,,,,,,,,,,,,,,,,,,,,,,,,,,,,,,,,,,,,,,,,,,,,,,,,,,,,,,,,,,,,,,,,,,,,,,,,,,,,,,,,,,1016.3225388990004,1023.4657406750002,,,,,,,082021,2,3,2,3,1,1,2,0,72,2021_Aug_20_1310,listening_fmri,3.2.4,59.99981376080142,
4,,,,,,,,,,0,0,0,0,0,4,4,4,0,0,0,0,,,,,,,,,,,,,0,0,0,0,,,,,,,,,,,,,,,,,,,,,,,,,,,,,,,,,,,,,,,,,,,,,,,,,,,,,,,,,,,,,,,,,,,,,,,,,,,,,,,,,,,,,,,,,,,,,,,,,,,,,,,,,,,,,,,,,,,,,082021,2,3,2,3,1,1,2,0,72,2021_Aug_20_1310,listening_fmri,3.2.4,59.99981376080142,
4,,,,,,,,,,0,0,0,0,0,4,4,4,0,0,0,0,,,,,,,,,,,,,,,,,,,,,,,,,,,,,,,,,,,,,,,,,,1023.4661729820009,1029.4670636320006,1066.1154459189993,None,,,,,,,,,,,,,,,,,,,,,,,,,,,,,,,,,,,,,,,,,,,,,,,,,,,,,,,,,,,,,,,,,,,,,,,,,,,,,,,,,,1072.1182981339998,None,1072.1182981339998,None,,,082021,2,3,2,3,1,1,2,0,72,2021_Aug_20_1310,listening_fmri,3.2.4,59.99981376080142,
4,,,,,,,,,,0,0,0,0,0,4,4,4,,,,,,,,,,,,,,,,,,,,,,,,,,,,,,,,,,,,,,,,,,,,,,,,,,,,,,,,,,,,,,,,,,,,,,,,,,,,,,,,,,,,,,,,,,,,,,,,,,,,,,,,,,,,,,,,,,,,,,,,,,,,,,,,,,,,,,,,,082021,2,3,2,3,1,1,2,0,72,2021_Aug_20_1310,listening_fmri,3.2.4,59.99981376080142,
5,,,,,,,,,,0,0,0,0,0,5,5,5,,,,,,,,,,,,,,,,,,,,,,,,,,,,,,,,,,,,,,,,,,,,,,,,,,,,,,,,,,,,,,,,,,,,,,,,,,,,,,,,,,,,,,,,,,,,,,,,,,,,,,,,,,,,,,,,,,,,,,,,,,,,,,,,,,,,,,,,,082021,2,3,2,3,1,1,2,0,72,2021_Aug_20_1310,listening_fmri,3.2.4,59.99981376080142,
6,parcelated_audio/21/21_1.ogg,,,,,,,,,0,0,0,0,0,6,6,6,0,0,0,0,,,,,,,,,,,,,0,0,0,0,0,0,0,0,,,,,,,,,,,,,,,,,,,,,,,,,,1073.1484974879995,None,1073.1484974879995,None,2,0.05362353300006362,1073.1484974879995,None,1073.1484974879995,None,,,,,,,,,,,,,,,,,,,,,,,,,,,,,,,,,,,,,,,,,,,,,,,,,,,,,,,,,,,,,,1073.2351224929998,None,2,2.081089897000311,1073.2351224929998,None,1032.690277349,1035.7006628500003,1035.7080959470004,1049.9917177360003,,,,,,,082021,2,3,2,3,1,1,2,0,72,2021_Aug_20_1310,listening_fmri,3.2.4,59.99981376080142,
6,parcelated_audio/21/21_2.ogg,,,,,,,,,0,0,0,0,0,6,6,6,0,0,0,0,,,,,,,,,,,,,0,0,0,0,0,1,1,1,,,,,,,,,,,,,,,,,,,,,,,,,,,,,,,,,,,,,,,,,,,,,,,,,,,,,,,,,,,,,,,,,,,,,,,,,,,,,,,,,,,,,,,,,,,,,,,,,,,,,,,,,1049.9920590830006,1057.4292809020008,,,,,,,082021,2,3,2,3,1,1,2,0,72,2021_Aug_20_1310,listening_fmri,3.2.4,59.99981376080142,
6,parcelated_audio/21/21_3.ogg,,,,,,,,,0,0,0,0,0,6,6,6,0,0,0,0,,,,,,,,,,,,,0,0,0,0,0,2,2,2,,,,,,,,,,,,,,,,,,,,,,,,,,,,,,,,,,,,,,,,,,,,,,,,,,,,,,,,,,,,,,,,,,,,,,,,,,,,,,,,,,,,,,,,,,,,,,,,,,,,,,,,,1057.4303389670004,1065.1311609960003,,,,,,,082021,2,3,2,3,1,1,2,0,72,2021_Aug_20_1310,listening_fmri,3.2.4,59.99981376080142,
6,parcelated_audio/21/21_4.ogg,,,,,,,,,0,0,0,0,0,6,6,6,0,0,0,0,,,,,,,,,,,,,0,0,0,0,0,3,3,3,,,,,,,,,,,,,,,,,,,,,,,,,,,,,,,,,,,,,,,,,,,,,,,,,,,,,,,,,,,,,,,,,,,,,,,,,,,,,,,,,,,,,,,,,,,,,,,,,,,,,,,,,1065.1315159950009,1076.196954553,,,,,,,082021,2,3,2,3,1,1,2,0,72,2021_Aug_20_1310,listening_fmri,3.2.4,59.99981376080142,
6,parcelated_audio/21/21_5.ogg,,,,,,,,,0,0,0,0,0,6,6,6,0,0,0,0,,,,,,,,,,,,,0,0,0,0,0,4,4,4,,,,,,,,,,,,,,,,,,,,,,,,,,,,,,,,,,,,,,,,,,,,,,,,,,,,,,,,,,,,,,,,,,,,,,,,,,,,,,,,,,,,,,,,,,,,,,,,,,,,,,,,,1076.1974991710003,1081.2631890280009,,,,,,,082021,2,3,2,3,1,1,2,0,72,2021_Aug_20_1310,listening_fmri,3.2.4,59.99981376080142,
6,parcelated_audio/21/21_6.ogg,,,,,,,,,0,0,0,0,0,6,6,6,0,0,0,0,,,,,,,,,,,,,0,0,0,0,0,5,5,5,,,,,,,,,,,,,,,,,,,,,,,,,,,,,,,,,,,,,,,,,,,,,,,,,,,,,,,,,,,,,,,,,,,,,,,,,,,,,,,,,,,,,,,,,,,,,,,,,,,,,,,,,1081.2635425810004,1089.446439579,,,,,,,082021,2,3,2,3,1,1,2,0,72,2021_Aug_20_1310,listening_fmri,3.2.4,59.99981376080142,
6,parcelated_audio/21/21_7.ogg,,,,,,,,,0,0,0,0,0,6,6,6,0,0,0,0,,,,,,,,,,,,,0,0,0,0,0,6,6,6,,,,,,,,,,,,,,,,,,,,,,,,,,,,,,,,,,,,,,,,,,,,,,,,,,,,,,,,,,,,,,,,,,,,,,,,,,,,,,,,,,,,,,,,,,,,,,,,,,,,,,,,,1089.4469359100003,1093.9730692290004,,,,,,,082021,2,3,2,3,1,1,2,0,72,2021_Aug_20_1310,listening_fmri,3.2.4,59.99981376080142,
6,parcelated_audio/21/21_8.ogg,,,,,,,,,0,0,0,0,0,6,6,6,0,0,0,0,,,,,,,,,,,,,0,0,0,0,0,7,7,7,,,,,,,,,,,,,,,,,,,,,,,,,,,,,,,,,,,,,,,,,,,,,,,,,,,,,,,,,,,,,,,,,,,,,,,,,,,,,,,,,,,,,,,,,,,,,,,,,,,,,,,,,1093.973421144001,1104.8757772440003,,,,,,,082021,2,3,2,3,1,1,2,0,72,2021_Aug_20_1310,listening_fmri,3.2.4,59.99981376080142,
6,parcelated_audio/21/21_9.ogg,,,,,,,,,0,0,0,0,0,6,6,6,0,0,0,0,,,,,,,,,,,,,0,0,0,0,0,8,8,8,,,,,,,,,,,,,,,,,,,,,,,,,,,,,,,,,,,,,,,,,,,,,,,,,,,,,,,,,,,,,,,,,,,,,,,,,,,,,,,,,,,,,,,,,,,,,,,,,,,,,,,,,1104.8761397770004,1112.26759906,,,,,,,082021,2,3,2,3,1,1,2,0,72,2021_Aug_20_1310,listening_fmri,3.2.4,59.99981376080142,
6,parcelated_audio/21/21_10.ogg,,,,,,,,,0,0,0,0,0,6,6,6,0,0,0,0,,,,,,,,,,,,,0,0,0,0,0,9,9,9,,,,,,,,,,,,,,,,,,,,,,,,,,,,,,,,,,,,,,,,,,,,,,,,,,,,,,,,,,,,,,,,,,,,,,,,,,,,,,,,,,,,,,,,,,,,,,,,,,,,,,,,,1112.2687548910008,1119.1362301130002,,,,,,,082021,2,3,2,3,1,1,2,0,72,2021_Aug_20_1310,listening_fmri,3.2.4,59.99981376080142,
6,parcelated_audio/21/21_11.ogg,,,,,,,,,0,0,0,0,0,6,6,6,0,0,0,0,,,,,,,,,,,,,0,0,0,0,0,10,10,10,,,,,,,,,,,,,,,,,,,,,,,,,,,,,,,,,,,,,,,,,,,,,,,,,,,,,,,,,,,,,,,,,,,,,,,,,,,,,,,,,,,,,,,,,,,,,,,,,,,,,,,,,1119.1365656090002,1126.2436730120007,,,,,,,082021,2,3,2,3,1,1,2,0,72,2021_Aug_20_1310,listening_fmri,3.2.4,59.99981376080142,
6,parcelated_audio/21/21_12.ogg,,,,,,,,,0,0,0,0,0,6,6,6,0,0,0,0,,,,,,,,,,,,,0,0,0,0,0,11,11,11,,,,,,,,,,,,,,,,,,,,,,,,,,,,,,,,,,,,,,,,,,,,,,,,,,,,,,,,,,,,,,,,,,,,,,,,,,,,,,,,,,,,,,,,,,,,,,,,,,,,,,,,,1126.2440174010007,1134.5662398590002,,,,,,,082021,2,3,2,3,1,1,2,0,72,2021_Aug_20_1310,listening_fmri,3.2.4,59.99981376080142,
6,parcelated_audio/21/21_13.ogg,,,,,,,,,0,0,0,0,0,6,6,6,0,0,0,0,,,,,,,,,,,,,0,0,0,0,0,12,12,12,,,,,,,,,,,,,,,,,,,,,,,,,,,,,,,,,,,,,,,,,,,,,,,,,,,,,,,,,,,,,,,,,,,,,,,,,,,,,,,,,,,,,,,,,,,,,,,,,,,,,,,,,1134.5665951820001,1137.9175940570003,,,,,,,082021,2,3,2,3,1,1,2,0,72,2021_Aug_20_1310,listening_fmri,3.2.4,59.99981376080142,
6,parcelated_audio/21/21_14.ogg,,,,,,,,,0,0,0,0,0,6,6,6,0,0,0,0,,,,,,,,,,,,,0,0,0,0,0,13,13,13,,,,,,,,,,,,,,,,,,,,,,,,,,,,,,,,,,,,,,,,,,,,,,,,,,,,,,,,,,,,,,,,,,,,,,,,,,,,,,,,,,,,,,,,,,,,,,,,,,,,,,,,,1137.9181681560003,1143.3472711370005,,,,,,,082021,2,3,2,3,1,1,2,0,72,2021_Aug_20_1310,listening_fmri,3.2.4,59.99981376080142,
6,parcelated_audio/21/21_15.ogg,,,,,,,,,0,0,0,0,0,6,6,6,0,0,0,0,,,,,,,,,,,,,0,0,0,0,0,14,14,14,,,,,,,,,,,,,,,,,,,,,,,,,,,,,,,,,,,,,,,,,,,,,,,,,,,,,,,,,,,,,,,,,,,,,,,,,,,,,,,,,,,,,,,,,,,,,,,,,,,,,,,,,1143.3477298910002,1150.1584528900003,,,,,,,082021,2,3,2,3,1,1,2,0,72,2021_Aug_20_1310,listening_fmri,3.2.4,59.99981376080142,
6,parcelated_audio/21/21_16.ogg,,,,,,,,,0,0,0,0,0,6,6,6,0,0,0,0,,,,,,,,,,,,,0,0,0,0,0,15,15,15,,,,,,,,,,,,,,,,,,,,,,,,,,,,,,,,,,,,,,,,,,,,,,,,,,,,,,,,,,,,,,,,,,,,,,,,,,,,,,,,,,,,,,,,,,,,,,,,,,,,,,,,,1150.158799883,1156.236316464,,,,,,,082021,2,3,2,3,1,1,2,0,72,2021_Aug_20_1310,listening_fmri,3.2.4,59.99981376080142,
6,parcelated_audio/21/21_17.ogg,,,,,,,,,0,0,0,0,0,6,6,6,0,0,0,0,,,,,,,,,,,,,0,0,0,0,0,16,16,16,,,,,,,,,,,,,,,,,,,,,,,,,,,,,,,,,,,,,,,,,,,,,,,,,,,,,,,,,,,,,,,,,,,,,,,,,,,,,,,,,,,,,,,,,,,,,,,,,,,,,,,,,1156.2368159670004,1158.4113266220002,,,,,,,082021,2,3,2,3,1,1,2,0,72,2021_Aug_20_1310,listening_fmri,3.2.4,59.99981376080142,
6,parcelated_audio/21/21_18.ogg,,,,,,,,,0,0,0,0,0,6,6,6,0,0,0,0,,,,,,,,,,,,,0,0,0,0,0,17,17,17,,,,,,,,,,,,,,,,,,,,,,,,,,,,,,,,,,,,,,,,,,,,,,,,,,,,,,,,,,,,,,,,,,,,,,,,,,,,,,,,,,,,,,,,,,,,,,,,,,,,,,,,,1158.4116747300004,1171.5754155500008,,,,,,,082021,2,3,2,3,1,1,2,0,72,2021_Aug_20_1310,listening_fmri,3.2.4,59.99981376080142,
6,parcelated_audio/21/21_19.ogg,,,,,,,,,0,0,0,0,0,6,6,6,0,0,0,0,,,,,,,,,,,,,0,0,0,0,0,18,18,18,,,,,,,,,,,,,,,,,,,,,,,,,,,,,,,,,,,,,,,,,,,,,,,,,,,,,,,,,,,,,,,,,,,,,,,,,,,,,,,,,,,,,,,,,,,,,,,,,,,,,,,,,1171.5757757700003,1174.4637523360007,,,,,,,082021,2,3,2,3,1,1,2,0,72,2021_Aug_20_1310,listening_fmri,3.2.4,59.99981376080142,
6,parcelated_audio/21/21_20.ogg,,,,,,,,,0,0,0,0,0,6,6,6,0,0,0,0,,,,,,,,,,,,,0,0,0,0,0,19,19,19,,,,,,,,,,,,,,,,,,,,,,,,,,,,,,,,,,,,,,,,,,,,,,,,,,,,,,,,,,,,,,,,,,,,,,,,,,,,,,,,,,,,,,,,,,,,,,,,,,,,,,,,,1174.46409786,1183.2034343290006,,,,,,,082021,2,3,2,3,1,1,2,0,72,2021_Aug_20_1310,listening_fmri,3.2.4,59.99981376080142,
6,parcelated_audio/21/21_21.ogg,,,,,,,,,0,0,0,0,0,6,6,6,0,0,0,0,,,,,,,,,,,,,0,0,0,0,0,20,20,20,,,,,,,,,,,,,,,,,,,,,,,,,,,,,,,,,,,,,,,,,,,,,,,,,,,,,,,,,,,,,,,,,,,,,,,,,,,,,,,,,,,,,,,,,,,,,,,,,,,,,,,,,1183.2037800900007,1194.2634982980007,,,,,,,082021,2,3,2,3,1,1,2,0,72,2021_Aug_20_1310,listening_fmri,3.2.4,59.99981376080142,
6,parcelated_audio/21/21_22.ogg,,,,,,,,,0,0,0,0,0,6,6,6,0,0,0,0,,,,,,,,,,,,,0,0,0,0,0,21,21,21,,,,,,,,,,,,,,,,,,,,,,,,,,,,,,,,,,,,,,,,,,,,,,,,,,,,,,,,,,,,,,,,,,,,,,,,,,,,,,,,,,,,,,,,,,,,,,,,,,,,,,,,,1194.2638457640005,1205.1902099030003,,,,,,,082021,2,3,2,3,1,1,2,0,72,2021_Aug_20_1310,listening_fmri,3.2.4,59.99981376080142,
6,parcelated_audio/21/21_23.ogg,,,,,,,,,0,0,0,0,0,6,6,6,0,0,0,0,,,,,,,,,,,,,0,0,0,0,0,22,22,22,,,,,,,,,,,,,,,,,,,,,,,,,,,,,,,,,,,,,,,,,,,,,,,,,,,,,,,,,,,,,,,,,,,,,,,,,,,,,,,,,,,,,,,,,,,,,,,,,,,,,,,,,1205.1904899220008,1210.1672235980004,,,,,,,082021,2,3,2,3,1,1,2,0,72,2021_Aug_20_1310,listening_fmri,3.2.4,59.99981376080142,
6,parcelated_audio/21/21_24.ogg,,,,,,,,,0,0,0,0,0,6,6,6,0,0,0,0,,,,,,,,,,,,,0,0,0,0,0,23,23,23,,,,,,,,,,,,,,,,,,,,,,,,,,,,,,,,,,,,,,,,,,,,,,,,,,,,,,,,,,,,,,,,,,,,,,,,,,,,,,,,,,,,,,,,,,,,,,,,,,,,,,,,,1210.1675738780004,1214.7663101870003,,,,,,,082021,2,3,2,3,1,1,2,0,72,2021_Aug_20_1310,listening_fmri,3.2.4,59.99981376080142,
6,parcelated_audio/21/21_25.ogg,,,,,,,,,0,0,0,0,0,6,6,6,0,0,0,0,,,,,,,,,,,,,0,0,0,0,0,24,24,24,,,,,,,,,,,,,,,,,,,,,,,,,,,,,,,,,,,,,,,,,,,,,,,,,,,,,,,,,,,,,,,,,,,,,,,,,,,,,,,,,,,,,,,,,,,,,,,,,,,,,,,,,1214.76665907,1224.2262640590006,,,,,,,082021,2,3,2,3,1,1,2,0,72,2021_Aug_20_1310,listening_fmri,3.2.4,59.99981376080142,
6,parcelated_audio/21/21_26.ogg,,,,,,,,,0,0,0,0,0,6,6,6,0,0,0,0,,,,,,,,,,,,,0,0,0,0,0,25,25,25,,,,,,,,,,,,,,,,,,,,,,,,,,,,,,,,,,,,,,,,,,,,,,,,,,,,,,,,,,,,,,,,,,,,,,,,,,,,,,,,,,,,,,,,,,,,,,,,,,,,,,,,,1224.2266244440007,1228.228180481001,,,,,,,082021,2,3,2,3,1,1,2,0,72,2021_Aug_20_1310,listening_fmri,3.2.4,59.99981376080142,
6,parcelated_audio/21/21_27.ogg,,,,,,,,,0,0,0,0,0,6,6,6,0,0,0,0,,,,,,,,,,,,,0,0,0,0,0,26,26,26,,,,,,,,,,,,,,,,,,,,,,,,,,,,,,,,,,,,,,,,,,,,,,,,,,,,,,,,,,,,,,,,,,,,,,,,,,,,,,,,,,,,,,,,,,,,,,,,,,,,,,,,,1228.2285055940001,1235.440953882,,,,,,,082021,2,3,2,3,1,1,2,0,72,2021_Aug_20_1310,listening_fmri,3.2.4,59.99981376080142,
6,parcelated_audio/21/21_28.ogg,,,,,,,,,0,0,0,0,0,6,6,6,0,0,0,0,,,,,,,,,,,,,0,0,0,0,0,27,27,27,,,,,,,,,,,,,,,,,,,,,,,,,,,,,,,,,,,,,,,,,,,,,,,,,,,,,,,,,,,,,,,,,,,,,,,,,,,,,,,,,,,,,,,,,,,,,,,,,,,,,,,,,1235.4413020020002,1241.5783000760002,,,,,,,082021,2,3,2,3,1,1,2,0,72,2021_Aug_20_1310,listening_fmri,3.2.4,59.99981376080142,
6,parcelated_audio/21/21_29.ogg,,,,,,,,,0,0,0,0,0,6,6,6,0,0,0,0,,,,,,,,,,,,,0,0,0,0,0,28,28,28,,,,,,,,,,,,,,,,,,,,,,,,,,,,,,,,,,,,,,,,,,,,,,,,,,,,,,,,,,,,,,,,,,,,,,,,,,,,,,,,,,,,,,,,,,,,,,,,,,,,,,,,,1241.5793120860008,1245.8747311350007,,,,,,,082021,2,3,2,3,1,1,2,0,72,2021_Aug_20_1310,listening_fmri,3.2.4,59.99981376080142,
6,parcelated_audio/21/21_30.ogg,,,,,,,,,0,0,0,0,0,6,6,6,0,0,0,0,,,,,,,,,,,,,0,0,0,0,0,29,29,29,,,,,,,,,,,,,,,,,,,,,,,,,,,,,,,,,,,,,,,,,,,,,,,,,,,,,,,,,,,,,,,,,,,,,,,,,,,,,,,,,,,,,,,,,,,,,,,,,,,,,,,,,1245.8752794110005,1251.1397692780001,,,,,,,082021,2,3,2,3,1,1,2,0,72,2021_Aug_20_1310,listening_fmri,3.2.4,59.99981376080142,
6,,,,,,,,,,0,0,0,0,0,6,6,6,0,0,0,0,,,,,,,,,,,,,0,0,0,0,,,,,,,,,,,,,,,,,,,,,,,,,,,,,,,,,,,,,,,,,,,,,,,,,,,,,,,,,,,,,,,,,,,,,,,,,,,,,,,,,,,,,,,,,,,,,,,,,,,,,,,,,,,,,,,,,,,,,082021,2,3,2,3,1,1,2,0,72,2021_Aug_20_1310,listening_fmri,3.2.4,59.99981376080142,
6,,,,,,,,,,0,0,0,0,0,6,6,6,0,0,0,0,,,,,,,,,,,,,,,,,,,,,,,,,,,,,,,,,,,,,,,,,,1251.1402352240002,1257.1352824820005,1293.7797368089996,None,,,,,,,,,,,,,,,,,,,,,,,,,,,,,,,,,,,,,,,,,,,,,,,,,,,,,,,,,,,,,,,,,,,,,,,,,,,,,,,,,,1299.7850913499997,None,1299.7850913499997,None,,,082021,2,3,2,3,1,1,2,0,72,2021_Aug_20_1310,listening_fmri,3.2.4,59.99981376080142,
6,,,,,,,,,,0,0,0,0,0,6,6,6,,,,,,,,,,,,,,,,,,,,,,,,,,,,,,,,,,,,,,,,,,,,,,,,,,,,,,,,,,,,,,,,,,,,,,,,,,,,,,,,,,,,,,,,,,,,,,,,,,,,,,,,,,,,,,,,,,,,,,,,,,,,,,,,,,,,,,,,,082021,2,3,2,3,1,1,2,0,72,2021_Aug_20_1310,listening_fmri,3.2.4,59.99981376080142,
7,,,,,,,,,,0,0,0,0,0,7,7,7,0,0,0,0,0,0,0,0,0,0,0,0,,,,,,,,,,,,,,,,,,,,,,,,,,,,,,,,,,,,,,1300.8183283649996,None,1300.8183283649996,None,2,1.0589608439995573,1300.8183283649996,None,1300.8183283649996,None,1301.9023860839998,None,2,1.172879976999866,1301.9023860839998,None,1301.9023860839998,None,1303.1183985359994,None,1303.1183985359994,None,1303.1183985359994,None,2,0.693855235999763,1303.1183985359994,None,1303.8344209159995,None,2,1.285853323000083,1303.8344209159995,None,1303.8344209159995,None,1305.2292414289996,None,1305.2292414289996,None,1305.2292414289996,None,1305.2292414289996,None,1305.2292414289996,None,1305.2292414289996,None,1305.2292414289996,None,None,1305.2292414289996,None,,,,,,,,,,,,,,,,,,,,,,,,,,,,,,,,,,,082021,2,3,2,3,1,1,2,0,72,2021_Aug_20_1310,listening_fmri,3.2.4,59.99981376080142,
7,,,,,,,,,,0,0,0,0,0,7,7,7,0,0,0,0,0,0,0,0,,,,,,,,,,,,,,,,,,,,,,,,,,,,,,,,,,,,,,,,,,,,,,,,,,,,,,,,,,,,,,,,,,,,,,,,,,,,,,,,,,,,,,,,,,,,,,,1323.4288278929998,None,2,0.9572871579994171,1323.4288278929998,None,1323.4288278929998,None,1324.4354758619993,None,1324.4354758619993,None,1324.4354758619993,None,2,0.5957871509999677,1324.4354758619993,None,,,,,,,,,,,,,,,,,082021,2,3,2,3,1,1,2,0,72,2021_Aug_20_1310,listening_fmri,3.2.4,59.99981376080142,
7,parcelated_audio/41/41_1.ogg,,,,,,,,,0,0,0,0,0,7,7,7,0,0,0,0,,,,,,,,,,,,,0,0,0,0,0,0,0,0,,,,,,,,,,,,,,,,,,,,,,,,,,,,,,,,,,,,,,,,,,,,,,,,,,,,,,,,,,,,,,,,,,,,,,,,,,,,,,,,,,,,,,,,,,,,,,,,,1325.0515540429997,None,2,0.5725883659997635,1325.0515540429997,None,1283.0315970640004,1286.044928362,1286.0507946750004,1295.1723111390002,,,,,,,082021,2,3,2,3,1,1,2,0,72,2021_Aug_20_1310,listening_fmri,3.2.4,59.99981376080142,
7,parcelated_audio/41/41_2.ogg,,,,,,,,,0,0,0,0,0,7,7,7,0,0,0,0,,,,,,,,,,,,,0,0,0,0,0,1,1,1,,,,,,,,,,,,,,,,,,,,,,,,,,,,,,,,,,,,,,,,,,,,,,,,,,,,,,,,,,,,,,,,,,,,,,,,,,,,,,,,,,,,,,,,,,,,,,,,,,,,,,,,,1295.1726447700003,1302.4360601440003,,,,,,,082021,2,3,2,3,1,1,2,0,72,2021_Aug_20_1310,listening_fmri,3.2.4,59.99981376080142,
7,parcelated_audio/41/41_3.ogg,,,,,,,,,0,0,0,0,0,7,7,7,0,0,0,0,,,,,,,,,,,,,0,0,0,0,0,2,2,2,,,,,,,,,,,,,,,,,,,,,,,,,,,,,,,,,,,,,,,,,,,,,,,,,,,,,,,,,,,,,,,,,,,,,,,,,,,,,,,,,,,,,,,,,,,,,,,,,,,,,,,,,1302.4363868320006,1306.7430146180004,,,,,,,082021,2,3,2,3,1,1,2,0,72,2021_Aug_20_1310,listening_fmri,3.2.4,59.99981376080142,
7,parcelated_audio/41/41_4.ogg,,,,,,,,,0,0,0,0,0,7,7,7,0,0,0,0,,,,,,,,,,,,,0,0,0,0,0,3,3,3,,,,,,,,,,,,,,,,,,,,,,,,,,,,,,,,,,,,,,,,,,,,,,,,,,,,,,,,,,,,,,,,,,,,,,,,,,,,,,,,,,,,,,,,,,,,,,,,,,,,,,,,,1306.7435726530002,1310.7274258780008,,,,,,,082021,2,3,2,3,1,1,2,0,72,2021_Aug_20_1310,listening_fmri,3.2.4,59.99981376080142,
7,parcelated_audio/41/41_5.ogg,,,,,,,,,0,0,0,0,0,7,7,7,0,0,0,0,,,,,,,,,,,,,0,0,0,0,0,4,4,4,,,,,,,,,,,,,,,,,,,,,,,,,,,,,,,,,,,,,,,,,,,,,,,,,,,,,,,,,,,,,,,,,,,,,,,,,,,,,,,,,,,,,,,,,,,,,,,,,,,,,,,,,1310.7277745630008,1316.870213917,,,,,,,082021,2,3,2,3,1,1,2,0,72,2021_Aug_20_1310,listening_fmri,3.2.4,59.99981376080142,
7,parcelated_audio/41/41_6.ogg,,,,,,,,,0,0,0,0,0,7,7,7,0,0,0,0,,,,,,,,,,,,,0,0,0,0,0,5,5,5,,,,,,,,,,,,,,,,,,,,,,,,,,,,,,,,,,,,,,,,,,,,,,,,,,,,,,,,,,,,,,,,,,,,,,,,,,,,,,,,,,,,,,,,,,,,,,,,,,,,,,,,,1316.8705612870008,1326.7957497060006,,,,,,,082021,2,3,2,3,1,1,2,0,72,2021_Aug_20_1310,listening_fmri,3.2.4,59.99981376080142,
7,parcelated_audio/41/41_7.ogg,,,,,,,,,0,0,0,0,0,7,7,7,0,0,0,0,,,,,,,,,,,,,0,0,0,0,0,6,6,6,,,,,,,,,,,,,,,,,,,,,,,,,,,,,,,,,,,,,,,,,,,,,,,,,,,,,,,,,,,,,,,,,,,,,,,,,,,,,,,,,,,,,,,,,,,,,,,,,,,,,,,,,1326.7960981670003,1334.5371178940004,,,,,,,082021,2,3,2,3,1,1,2,0,72,2021_Aug_20_1310,listening_fmri,3.2.4,59.99981376080142,
7,parcelated_audio/41/41_8.ogg,,,,,,,,,0,0,0,0,0,7,7,7,0,0,0,0,,,,,,,,,,,,,0,0,0,0,0,7,7,7,,,,,,,,,,,,,,,,,,,,,,,,,,,,,,,,,,,,,,,,,,,,,,,,,,,,,,,,,,,,,,,,,,,,,,,,,,,,,,,,,,,,,,,,,,,,,,,,,,,,,,,,,1334.5379823190005,1338.8121896530001,,,,,,,082021,2,3,2,3,1,1,2,0,72,2021_Aug_20_1310,listening_fmri,3.2.4,59.99981376080142,
7,parcelated_audio/41/41_9.ogg,,,,,,,,,0,0,0,0,0,7,7,7,0,0,0,0,,,,,,,,,,,,,0,0,0,0,0,8,8,8,,,,,,,,,,,,,,,,,,,,,,,,,,,,,,,,,,,,,,,,,,,,,,,,,,,,,,,,,,,,,,,,,,,,,,,,,,,,,,,,,,,,,,,,,,,,,,,,,,,,,,,,,1338.8126473110005,1348.4782126210002,,,,,,,082021,2,3,2,3,1,1,2,0,72,2021_Aug_20_1310,listening_fmri,3.2.4,59.99981376080142,
7,parcelated_audio/41/41_10.ogg,,,,,,,,,0,0,0,0,0,7,7,7,0,0,0,0,,,,,,,,,,,,,0,0,0,0,0,9,9,9,,,,,,,,,,,,,,,,,,,,,,,,,,,,,,,,,,,,,,,,,,,,,,,,,,,,,,,,,,,,,,,,,,,,,,,,,,,,,,,,,,,,,,,,,,,,,,,,,,,,,,,,,1348.4785665690006,1355.0087779630003,,,,,,,082021,2,3,2,3,1,1,2,0,72,2021_Aug_20_1310,listening_fmri,3.2.4,59.99981376080142,
7,parcelated_audio/41/41_11.ogg,,,,,,,,,0,0,0,0,0,7,7,7,0,0,0,0,,,,,,,,,,,,,0,0,0,0,0,10,10,10,,,,,,,,,,,,,,,,,,,,,,,,,,,,,,,,,,,,,,,,,,,,,,,,,,,,,,,,,,,,,,,,,,,,,,,,,,,,,,,,,,,,,,,,,,,,,,,,,,,,,,,,,1355.0091247250002,1358.7902578730009,,,,,,,082021,2,3,2,3,1,1,2,0,72,2021_Aug_20_1310,listening_fmri,3.2.4,59.99981376080142,
7,parcelated_audio/41/41_12.ogg,,,,,,,,,0,0,0,0,0,7,7,7,0,0,0,0,,,,,,,,,,,,,0,0,0,0,0,11,11,11,,,,,,,,,,,,,,,,,,,,,,,,,,,,,,,,,,,,,,,,,,,,,,,,,,,,,,,,,,,,,,,,,,,,,,,,,,,,,,,,,,,,,,,,,,,,,,,,,,,,,,,,,1358.7906039100008,1368.5497705160005,,,,,,,082021,2,3,2,3,1,1,2,0,72,2021_Aug_20_1310,listening_fmri,3.2.4,59.99981376080142,
7,parcelated_audio/41/41_13.ogg,,,,,,,,,0,0,0,0,0,7,7,7,0,0,0,0,,,,,,,,,,,,,0,0,0,0,0,12,12,12,,,,,,,,,,,,,,,,,,,,,,,,,,,,,,,,,,,,,,,,,,,,,,,,,,,,,,,,,,,,,,,,,,,,,,,,,,,,,,,,,,,,,,,,,,,,,,,,,,,,,,,,,1368.5501257150008,1374.381262627,,,,,,,082021,2,3,2,3,1,1,2,0,72,2021_Aug_20_1310,listening_fmri,3.2.4,59.99981376080142,
7,parcelated_audio/41/41_14.ogg,,,,,,,,,0,0,0,0,0,7,7,7,0,0,0,0,,,,,,,,,,,,,0,0,0,0,0,13,13,13,,,,,,,,,,,,,,,,,,,,,,,,,,,,,,,,,,,,,,,,,,,,,,,,,,,,,,,,,,,,,,,,,,,,,,,,,,,,,,,,,,,,,,,,,,,,,,,,,,,,,,,,,1374.3823735660008,1381.6193133080005,,,,,,,082021,2,3,2,3,1,1,2,0,72,2021_Aug_20_1310,listening_fmri,3.2.4,59.99981376080142,
7,parcelated_audio/41/41_15.ogg,,,,,,,,,0,0,0,0,0,7,7,7,0,0,0,0,,,,,,,,,,,,,0,0,0,0,0,14,14,14,,,,,,,,,,,,,,,,,,,,,,,,,,,,,,,,,,,,,,,,,,,,,,,,,,,,,,,,,,,,,,,,,,,,,,,,,,,,,,,,,,,,,,,,,,,,,,,,,,,,,,,,,1381.6196589650008,1385.0843897610002,,,,,,,082021,2,3,2,3,1,1,2,0,72,2021_Aug_20_1310,listening_fmri,3.2.4,59.99981376080142,
7,parcelated_audio/41/41_16.ogg,,,,,,,,,0,0,0,0,0,7,7,7,0,0,0,0,,,,,,,,,,,,,0,0,0,0,0,15,15,15,,,,,,,,,,,,,,,,,,,,,,,,,,,,,,,,,,,,,,,,,,,,,,,,,,,,,,,,,,,,,,,,,,,,,,,,,,,,,,,,,,,,,,,,,,,,,,,,,,,,,,,,,1385.084719245,1389.9776931420001,,,,,,,082021,2,3,2,3,1,1,2,0,72,2021_Aug_20_1310,listening_fmri,3.2.4,59.99981376080142,
7,parcelated_audio/41/41_17.ogg,,,,,,,,,0,0,0,0,0,7,7,7,0,0,0,0,,,,,,,,,,,,,0,0,0,0,0,16,16,16,,,,,,,,,,,,,,,,,,,,,,,,,,,,,,,,,,,,,,,,,,,,,,,,,,,,,,,,,,,,,,,,,,,,,,,,,,,,,,,,,,,,,,,,,,,,,,,,,,,,,,,,,1389.9780583500005,1394.172116275,,,,,,,082021,2,3,2,3,1,1,2,0,72,2021_Aug_20_1310,listening_fmri,3.2.4,59.99981376080142,
7,parcelated_audio/41/41_18.ogg,,,,,,,,,0,0,0,0,0,7,7,7,0,0,0,0,,,,,,,,,,,,,0,0,0,0,0,17,17,17,,,,,,,,,,,,,,,,,,,,,,,,,,,,,,,,,,,,,,,,,,,,,,,,,,,,,,,,,,,,,,,,,,,,,,,,,,,,,,,,,,,,,,,,,,,,,,,,,,,,,,,,,1394.1725343160006,1396.7306490140008,,,,,,,082021,2,3,2,3,1,1,2,0,72,2021_Aug_20_1310,listening_fmri,3.2.4,59.99981376080142,
7,parcelated_audio/41/41_19.ogg,,,,,,,,,0,0,0,0,0,7,7,7,0,0,0,0,,,,,,,,,,,,,0,0,0,0,0,18,18,18,,,,,,,,,,,,,,,,,,,,,,,,,,,,,,,,,,,,,,,,,,,,,,,,,,,,,,,,,,,,,,,,,,,,,,,,,,,,,,,,,,,,,,,,,,,,,,,,,,,,,,,,,1396.7310018880007,1403.6273039450007,,,,,,,082021,2,3,2,3,1,1,2,0,72,2021_Aug_20_1310,listening_fmri,3.2.4,59.99981376080142,
7,parcelated_audio/41/41_20.ogg,,,,,,,,,0,0,0,0,0,7,7,7,0,0,0,0,,,,,,,,,,,,,0,0,0,0,0,19,19,19,,,,,,,,,,,,,,,,,,,,,,,,,,,,,,,,,,,,,,,,,,,,,,,,,,,,,,,,,,,,,,,,,,,,,,,,,,,,,,,,,,,,,,,,,,,,,,,,,,,,,,,,,1403.6275553820005,1408.5783722280003,,,,,,,082021,2,3,2,3,1,1,2,0,72,2021_Aug_20_1310,listening_fmri,3.2.4,59.99981376080142,
7,parcelated_audio/41/41_21.ogg,,,,,,,,,0,0,0,0,0,7,7,7,0,0,0,0,,,,,,,,,,,,,0,0,0,0,0,20,20,20,,,,,,,,,,,,,,,,,,,,,,,,,,,,,,,,,,,,,,,,,,,,,,,,,,,,,,,,,,,,,,,,,,,,,,,,,,,,,,,,,,,,,,,,,,,,,,,,,,,,,,,,,1408.5787205310007,1416.3910451680003,,,,,,,082021,2,3,2,3,1,1,2,0,72,2021_Aug_20_1310,listening_fmri,3.2.4,59.99981376080142,
7,parcelated_audio/41/41_22.ogg,,,,,,,,,0,0,0,0,0,7,7,7,0,0,0,0,,,,,,,,,,,,,0,0,0,0,0,21,21,21,,,,,,,,,,,,,,,,,,,,,,,,,,,,,,,,,,,,,,,,,,,,,,,,,,,,,,,,,,,,,,,,,,,,,,,,,,,,,,,,,,,,,,,,,,,,,,,,,,,,,,,,,1416.3913921570002,1432.2202998990006,,,,,,,082021,2,3,2,3,1,1,2,0,72,2021_Aug_20_1310,listening_fmri,3.2.4,59.99981376080142,
7,parcelated_audio/41/41_23.ogg,,,,,,,,,0,0,0,0,0,7,7,7,0,0,0,0,,,,,,,,,,,,,0,0,0,0,0,22,22,22,,,,,,,,,,,,,,,,,,,,,,,,,,,,,,,,,,,,,,,,,,,,,,,,,,,,,,,,,,,,,,,,,,,,,,,,,,,,,,,,,,,,,,,,,,,,,,,,,,,,,,,,,1432.2207190710005,1438.224572346,,,,,,,082021,2,3,2,3,1,1,2,0,72,2021_Aug_20_1310,listening_fmri,3.2.4,59.99981376080142,
7,parcelated_audio/41/41_24.ogg,,,,,,,,,0,0,0,0,0,7,7,7,0,0,0,0,,,,,,,,,,,,,0,0,0,0,0,23,23,23,,,,,,,,,,,,,,,,,,,,,,,,,,,,,,,,,,,,,,,,,,,,,,,,,,,,,,,,,,,,,,,,,,,,,,,,,,,,,,,,,,,,,,,,,,,,,,,,,,,,,,,,,1438.2249548620002,1444.8971987580007,,,,,,,082021,2,3,2,3,1,1,2,0,72,2021_Aug_20_1310,listening_fmri,3.2.4,59.99981376080142,
7,parcelated_audio/41/41_25.ogg,,,,,,,,,0,0,0,0,0,7,7,7,0,0,0,0,,,,,,,,,,,,,0,0,0,0,0,24,24,24,,,,,,,,,,,,,,,,,,,,,,,,,,,,,,,,,,,,,,,,,,,,,,,,,,,,,,,,,,,,,,,,,,,,,,,,,,,,,,,,,,,,,,,,,,,,,,,,,,,,,,,,,1444.8977332900004,1448.1766829760008,,,,,,,082021,2,3,2,3,1,1,2,0,72,2021_Aug_20_1310,listening_fmri,3.2.4,59.99981376080142,
7,parcelated_audio/41/41_26.ogg,,,,,,,,,0,0,0,0,0,7,7,7,0,0,0,0,,,,,,,,,,,,,0,0,0,0,0,25,25,25,,,,,,,,,,,,,,,,,,,,,,,,,,,,,,,,,,,,,,,,,,,,,,,,,,,,,,,,,,,,,,,,,,,,,,,,,,,,,,,,,,,,,,,,,,,,,,,,,,,,,,,,,1448.1772155510007,1453.7202771270004,,,,,,,082021,2,3,2,3,1,1,2,0,72,2021_Aug_20_1310,listening_fmri,3.2.4,59.99981376080142,
7,parcelated_audio/41/41_27.ogg,,,,,,,,,0,0,0,0,0,7,7,7,0,0,0,0,,,,,,,,,,,,,0,0,0,0,0,26,26,26,,,,,,,,,,,,,,,,,,,,,,,,,,,,,,,,,,,,,,,,,,,,,,,,,,,,,,,,,,,,,,,,,,,,,,,,,,,,,,,,,,,,,,,,,,,,,,,,,,,,,,,,,1453.7206195540002,1457.6032057850007,,,,,,,082021,2,3,2,3,1,1,2,0,72,2021_Aug_20_1310,listening_fmri,3.2.4,59.99981376080142,
7,parcelated_audio/41/41_28.ogg,,,,,,,,,0,0,0,0,0,7,7,7,0,0,0,0,,,,,,,,,,,,,0,0,0,0,0,27,27,27,,,,,,,,,,,,,,,,,,,,,,,,,,,,,,,,,,,,,,,,,,,,,,,,,,,,,,,,,,,,,,,,,,,,,,,,,,,,,,,,,,,,,,,,,,,,,,,,,,,,,,,,,1457.6035525960006,1465.9493547560005,,,,,,,082021,2,3,2,3,1,1,2,0,72,2021_Aug_20_1310,listening_fmri,3.2.4,59.99981376080142,
7,parcelated_audio/41/41_29.ogg,,,,,,,,,0,0,0,0,0,7,7,7,0,0,0,0,,,,,,,,,,,,,0,0,0,0,0,28,28,28,,,,,,,,,,,,,,,,,,,,,,,,,,,,,,,,,,,,,,,,,,,,,,,,,,,,,,,,,,,,,,,,,,,,,,,,,,,,,,,,,,,,,,,,,,,,,,,,,,,,,,,,,1465.9497099500004,1472.5741871890004,,,,,,,082021,2,3,2,3,1,1,2,0,72,2021_Aug_20_1310,listening_fmri,3.2.4,59.99981376080142,
7,parcelated_audio/41/41_30.ogg,,,,,,,,,0,0,0,0,0,7,7,7,0,0,0,0,,,,,,,,,,,,,0,0,0,0,0,29,29,29,,,,,,,,,,,,,,,,,,,,,,,,,,,,,,,,,,,,,,,,,,,,,,,,,,,,,,,,,,,,,,,,,,,,,,,,,,,,,,,,,,,,,,,,,,,,,,,,,,,,,,,,,1472.5745367110003,1481.2917581950005,,,,,,,082021,2,3,2,3,1,1,2,0,72,2021_Aug_20_1310,listening_fmri,3.2.4,59.99981376080142,
7,parcelated_audio/41/41_31.ogg,,,,,,,,,0,0,0,0,0,7,7,7,0,0,0,0,,,,,,,,,,,,,0,0,0,0,0,30,30,30,,,,,,,,,,,,,,,,,,,,,,,,,,,,,,,,,,,,,,,,,,,,,,,,,,,,,,,,,,,,,,,,,,,,,,,,,,,,,,,,,,,,,,,,,,,,,,,,,,,,,,,,,1481.2922953660009,1492.0393431880002,,,,,,,082021,2,3,2,3,1,1,2,0,72,2021_Aug_20_1310,listening_fmri,3.2.4,59.99981376080142,
7,parcelated_audio/41/41_32.ogg,,,,,,,,,0,0,0,0,0,7,7,7,0,0,0,0,,,,,,,,,,,,,0,0,0,0,0,31,31,31,,,,,,,,,,,,,,,,,,,,,,,,,,,,,,,,,,,,,,,,,,,,,,,,,,,,,,,,,,,,,,,,,,,,,,,,,,,,,,,,,,,,,,,,,,,,,,,,,,,,,,,,,1492.0398807670008,1500.3954494660002,,,,,,,082021,2,3,2,3,1,1,2,0,72,2021_Aug_20_1310,listening_fmri,3.2.4,59.99981376080142,
7,parcelated_audio/41/41_33.ogg,,,,,,,,,0,0,0,0,0,7,7,7,0,0,0,0,,,,,,,,,,,,,0,0,0,0,0,32,32,32,,,,,,,,,,,,,,,,,,,,,,,,,,,,,,,,,,,,,,,,,,,,,,,,,,,,,,,,,,,,,,,,,,,,,,,,,,,,,,,,,,,,,,,,,,,,,,,,,,,,,,,,,1500.395800495,1504.4847519450004,,,,,,,082021,2,3,2,3,1,1,2,0,72,2021_Aug_20_1310,listening_fmri,3.2.4,59.99981376080142,
7,parcelated_audio/41/41_34.ogg,,,,,,,,,0,0,0,0,0,7,7,7,0,0,0,0,,,,,,,,,,,,,0,0,0,0,0,33,33,33,,,,,,,,,,,,,,,,,,,,,,,,,,,,,,,,,,,,,,,,,,,,,,,,,,,,,,,,,,,,,,,,,,,,,,,,,,,,,,,,,,,,,,,,,,,,,,,,,,,,,,,,,1504.4850986250003,1510.0018818440003,,,,,,,082021,2,3,2,3,1,1,2,0,72,2021_Aug_20_1310,listening_fmri,3.2.4,59.99981376080142,
7,parcelated_audio/41/41_35.ogg,,,,,,,,,0,0,0,0,0,7,7,7,0,0,0,0,,,,,,,,,,,,,0,0,0,0,0,34,34,34,,,,,,,,,,,,,,,,,,,,,,,,,,,,,,,,,,,,,,,,,,,,,,,,,,,,,,,,,,,,,,,,,,,,,,,,,,,,,,,,,,,,,,,,,,,,,,,,,,,,,,,,,1510.0022428370003,1515.5898510080006,,,,,,,082021,2,3,2,3,1,1,2,0,72,2021_Aug_20_1310,listening_fmri,3.2.4,59.99981376080142,
7,parcelated_audio/41/41_36.ogg,,,,,,,,,0,0,0,0,0,7,7,7,0,0,0,0,,,,,,,,,,,,,0,0,0,0,0,35,35,35,,,,,,,,,,,,,,,,,,,,,,,,,,,,,,,,,,,,,,,,,,,,,,,,,,,,,,,,,,,,,,,,,,,,,,,,,,,,,,,,,,,,,,,,,,,,,,,,,,,,,,,,,1515.5901990850007,1522.6213251180006,,,,,,,082021,2,3,2,3,1,1,2,0,72,2021_Aug_20_1310,listening_fmri,3.2.4,59.99981376080142,
7,parcelated_audio/41/41_37.ogg,,,,,,,,,0,0,0,0,0,7,7,7,0,0,0,0,,,,,,,,,,,,,0,0,0,0,0,36,36,36,,,,,,,,,,,,,,,,,,,,,,,,,,,,,,,,,,,,,,,,,,,,,,,,,,,,,,,,,,,,,,,,,,,,,,,,,,,,,,,,,,,,,,,,,,,,,,,,,,,,,,,,,1522.6216802430008,1528.1262895140007,,,,,,,082021,2,3,2,3,1,1,2,0,72,2021_Aug_20_1310,listening_fmri,3.2.4,59.99981376080142,
7,,,,,,,,,,0,0,0,0,0,7,7,7,0,0,0,0,,,,,,,,,,,,,0,0,0,0,,,,,,,,,,,,,,,,,,,,,,,,,,,,,,,,,,,,,,,,,,,,,,,,,,,,,,,,,,,,,,,,,,,,,,,,,,,,,,,,,,,,,,,,,,,,,,,,,,,,,,,,,,,,,,,,,,,,,082021,2,3,2,3,1,1,2,0,72,2021_Aug_20_1310,listening_fmri,3.2.4,59.99981376080142,
7,,,,,,,,,,0,0,0,0,0,7,7,7,0,0,0,0,,,,,,,,,,,,,,,,,,,,,,,,,,,,,,,,,,,,,,,,,,1528.1267699700002,1534.1180237050003,1570.7683547469996,None,,,,,,,,,,,,,,,,,,,,,,,,,,,,,,,,,,,,,,,,,,,,,,,,,,,,,,,,,,,,,,,,,,,,,,,,,,,,,,,,,,1576.768903532,None,1576.768903532,None,,,082021,2,3,2,3,1,1,2,0,72,2021_Aug_20_1310,listening_fmri,3.2.4,59.99981376080142,
7,,,,,,,,,,0,0,0,0,0,7,7,7,,,,,,,,,,,,,,,,,,,,,,,,,,,,,,,,,,,,,,,,,,,,,,,,,,,,,,,,,,,,,,,,,,,,,,,,,,,,,,,,,,,,,,,,,,,,,,,,,,,,,,,,,,,,,,,,,,,,,,,,,,,,,,,,,,,,,,,,,082021,2,3,2,3,1,1,2,0,72,2021_Aug_20_1310,listening_fmri,3.2.4,59.99981376080142,
,,,,,,,,,,0,0,0,0,,,,,,,,,,,,,,,,,,,,,,,,,,,,,,,,,,,,,,,,,,,,,,,,,,,,,,,,,,,,,,,,,,,,,,,,,,,,,,,,,,,,,,,,,,,,,,,,,,,,,,,,,,,,,,,,,,,,,,,,,,,,,,,,,,,,,,,,,,,,,082021,2,3,2,3,1,1,2,0,72,2021_Aug_20_1310,listening_fmri,3.2.4,59.99981376080142,
,,,,,,,,,,,,,,,,,,,,,,,,,,,,,,,,,,,,,,,,,,,,,,0,0,0,0,,,,,,,,,,,,,,,,,,,,,,,,,,,,,,,,,,,,,,,,,,,,,,,,,,,,,,,,,,,,,,,,,,,,,,,,,,,,,,,,,,,,,,,,,,,,,,,,,,,,,,,1577.801652356,None,082021,2,3,2,3,1,1,2,0,72,2021_Aug_20_1310,listening_fmri,3.2.4,59.99981376080142,
,,,,,,,,,,,,,,,,,,,,,,,,,,,,,,,,,,,,,,,,,,,,,,1,0,1,0,,,,,,,,,,,,,,,,,,,,,,,,,,,,,,,,,,,,,,,,,,,,,,,,,,,,,,,,,,,,,,,,,,,,,,,,,,,,,,,,,,,,,,,,,,,,,,,,,,,,,,,1578.2853814389991,None,082021,2,3,2,3,1,1,2,0,72,2021_Aug_20_1310,listening_fmri,3.2.4,59.99981376080142,
,,,,,,,,,,,,,,,,,,,,,,,,,,,,,,,,,,,,,,,,,,,,,,2,0,2,0,,,,,,,,,,,,,,,,,,,,,,,,,,,,,,,,,,,,,,,,,,,,,,,,,,,,,,,,,,,,,,,,,,,,,,,,,,,,,,,,,,,,,,,,,,,,,,,,,,,,,,,1578.785168122,None,082021,2,3,2,3,1,1,2,0,72,2021_Aug_20_1310,listening_fmri,3.2.4,59.99981376080142,
,,,,,,,,,,,,,,,,,,,,,,,,,,,,,,,,,,,,,,,,,,,,,,3,0,3,0,,,,,,,,,,,,,,,,,,,,,,,,,,,,,,,,,,,,,,,,,,,,,,,,,,,,,,,,,,,,,,,,,,,,,,,,,,,,,,,,,,,,,,,,,,,,,,,,,,,,,,,1579.2854574069997,None,082021,2,3,2,3,1,1,2,0,72,2021_Aug_20_1310,listening_fmri,3.2.4,59.99981376080142,
,,,,,,,,,,,,,,,,,,,,,,,,,,,,,,,,,,,,,,,,,,,,,,4,0,4,0,,,,,,,,,,,,,,,,,,,,,,,,,,,,,,,,,,,,,,,,,,,,,,,,,,,,,,,,,,,,,,,,,,,,,,,,,,,,,,,,,,,,,,,,,,,,,,,,,,,,,,,1579.7920096959997,None,082021,2,3,2,3,1,1,2,0,72,2021_Aug_20_1310,listening_fmri,3.2.4,59.99981376080142,
