count,audio,trials_14.thisRepN,trials_14.thisTrialN,trials_14.thisN,trials_14.thisIndex,trials_3.thisRepN,trials_3.thisTrialN,trials_3.thisN,trials_3.thisIndex,trials_4.thisRepN,trials_4.thisTrialN,trials_4.thisN,trials_4.thisIndex,trials_6.thisRepN,trials_6.thisTrialN,trials_6.thisN,trials_6.thisIndex,trials_9.thisRepN,trials_9.thisTrialN,trials_9.thisN,trials_9.thisIndex,trials_10.thisRepN,trials_10.thisTrialN,trials_10.thisN,trials_10.thisIndex,trials_12.thisRepN,trials_12.thisTrialN,trials_12.thisN,trials_12.thisIndex,trials_25.thisRepN,trials_25.thisTrialN,trials_25.thisN,trials_25.thisIndex,trials_15.thisRepN,trials_15.thisTrialN,trials_15.thisN,trials_15.thisIndex,trials_26.thisRepN,trials_26.thisTrialN,trials_26.thisN,trials_26.thisIndex,trials_11.thisRepN,trials_11.thisTrialN,trials_11.thisN,trials_11.thisIndex,trials_8.thisRepN,trials_8.thisTrialN,trials_8.thisN,trials_8.thisIndex,story_list_block2,action_list_block2,textTrigger.started,textTrigger.stopped,getTrigger.keys,getTrigger.rt,getTrigger.started,getTrigger.stopped,triggerTime,text_76.started,text_76.stopped,text_77.started,text_77.stopped,startWait,endWait,image_23.started,image_23.stopped,text_55.started,text_55.stopped,text_56.started,text_56.stopped,key_resp_2.keys,key_resp_2.rt,key_resp_2.started,key_resp_2.stopped,text_82.started,text_82.stopped,text_64.started,text_64.stopped,key_resp_20.keys,key_resp_20.rt,key_resp_20.started,key_resp_20.stopped,storyImage_StartTime,storyImage_EndTime,clip_StartTime,clip_EndTime,text_67.started,text_67.stopped,text_68.started,text_68.stopped,text_57.started,text_57.stopped,key_resp_17.keys,key_resp_17.rt,key_resp_17.started,key_resp_17.stopped,text_83.started,text_83.stopped,text_60.started,text_60.stopped,image_2.started,image_2.stopped,text_58.started,text_58.stopped,key_resp_23.keys,key_resp_23.rt,key_resp_23.started,key_resp_23.stopped,text_62.started,text_62.stopped,key_resp_18.keys,key_resp_18.rt,key_resp_18.started,key_resp_18.stopped,text_84.started,text_84.stopped,question1_2.started,question1_2.stopped,question2_2.started,question2_2.stopped,question3_2.started,question3_2.stopped,question4_2.started,question4_2.stopped,question5_2.started,question5_2.stopped,question6_2.started,question6_2.stopped,image_15.started,image_15.stopped,key_resp.keys,key_resp.started,key_resp.stopped,text_59.started,text_59.stopped,key_resp_19.keys,key_resp_19.rt,key_resp_19.started,key_resp_19.stopped,text_85.started,text_85.stopped,text_61.started,text_61.stopped,image_17.started,image_17.stopped,text_63.started,text_63.stopped,key_resp_24.keys,key_resp_24.rt,key_resp_24.started,key_resp_24.stopped,text_36.started,text_36.stopped,participant,sA,sB,lA,lB,block_struct,play_stories,block,behavioral,random_seed,date,expName,psychopyVersion,frameRate,
0,parcelated_audio/32/32_1.ogg,,,,,,,,,0,0,0,0,0,0,0,0,0,0,0,0,,,,,,,,,0,0,0,0,0,0,0,0,,,,,,,,,,,,,[32 14 23 41 34 43 12 21],[4 3 4 3 2 1 1 2],24.200771165999868,None,equal,37.38878530999955,24.200771165999868,None,37.4163079810005,24.200771165999868,None,24.200771165999868,None,0.0004754249994221027,6.010723585999585,61.61691439100014,None,67.62806071100022,None,67.62806071100022,None,2,2.8454676780002046,67.62806071100022,None,67.62806071100022,None,70.4996848009996,None,3,3.1198633470003188,70.4996848009996,None,12.035843405999913,15.043474019999849,15.05017393900016,26.414233489999788,,,,,,,,,,,,,,,,,,,,,,,,,,,,,,,,,,,,,,,,,,,,,,,,,,,,,,,,,,,,,,,,,,,,110821,0,3,0,3,1,1,2,0,30,2021_Nov_08_1143,listening_fmri,3.2.4,59.94919545482394,
0,parcelated_audio/32/32_2.ogg,,,,,,,,,0,0,0,0,0,0,0,0,0,0,0,0,,,,,,,,,0,0,0,0,0,1,1,1,,,,,,,,,,,,,,,,,,,,,,,,,,,,,,,,,,,,,,,,,,,,,,,,26.414487594999628,34.76679029499974,,,,,,,,,,,,,,,,,,,,,,,,,,,,,,,,,,,,,,,,,,,,,,,,,,,,,,,,,,,,,,,,,,,,110821,0,3,0,3,1,1,2,0,30,2021_Nov_08_1143,listening_fmri,3.2.4,59.94919545482394,
0,parcelated_audio/32/32_3.ogg,,,,,,,,,0,0,0,0,0,0,0,0,0,0,0,0,,,,,,,,,0,0,0,0,0,2,2,2,,,,,,,,,,,,,,,,,,,,,,,,,,,,,,,,,,,,,,,,,,,,,,,,34.76720794099947,40.35831552699983,,,,,,,,,,,,,,,,,,,,,,,,,,,,,,,,,,,,,,,,,,,,,,,,,,,,,,,,,,,,,,,,,,,,110821,0,3,0,3,1,1,2,0,30,2021_Nov_08_1143,listening_fmri,3.2.4,59.94919545482394,
0,parcelated_audio/32/32_4.ogg,,,,,,,,,0,0,0,0,0,0,0,0,0,0,0,0,,,,,,,,,0,0,0,0,0,3,3,3,,,,,,,,,,,,,,,,,,,,,,,,,,,,,,,,,,,,,,,,,,,,,,,,40.35858964499948,47.04577810399951,,,,,,,,,,,,,,,,,,,,,,,,,,,,,,,,,,,,,,,,,,,,,,,,,,,,,,,,,,,,,,,,,,,,110821,0,3,0,3,1,1,2,0,30,2021_Nov_08_1143,listening_fmri,3.2.4,59.94919545482394,
0,parcelated_audio/32/32_5.ogg,,,,,,,,,0,0,0,0,0,0,0,0,0,0,0,0,,,,,,,,,0,0,0,0,0,4,4,4,,,,,,,,,,,,,,,,,,,,,,,,,,,,,,,,,,,,,,,,,,,,,,,,47.04634069699932,58.738764627999444,,,,,,,,,,,,,,,,,,,,,,,,,,,,,,,,,,,,,,,,,,,,,,,,,,,,,,,,,,,,,,,,,,,,110821,0,3,0,3,1,1,2,0,30,2021_Nov_08_1143,listening_fmri,3.2.4,59.94919545482394,
0,parcelated_audio/32/32_6.ogg,,,,,,,,,0,0,0,0,0,0,0,0,0,0,0,0,,,,,,,,,0,0,0,0,0,5,5,5,,,,,,,,,,,,,,,,,,,,,,,,,,,,,,,,,,,,,,,,,,,,,,,,58.7393338389993,67.21082531199954,,,,,,,,,,,,,,,,,,,,,,,,,,,,,,,,,,,,,,,,,,,,,,,,,,,,,,,,,,,,,,,,,,,,110821,0,3,0,3,1,1,2,0,30,2021_Nov_08_1143,listening_fmri,3.2.4,59.94919545482394,
0,parcelated_audio/32/32_7.ogg,,,,,,,,,0,0,0,0,0,0,0,0,0,0,0,0,,,,,,,,,0,0,0,0,0,6,6,6,,,,,,,,,,,,,,,,,,,,,,,,,,,,,,,,,,,,,,,,,,,,,,,,67.21139732399934,70.59760106500016,,,,,,,,,,,,,,,,,,,,,,,,,,,,,,,,,,,,,,,,,,,,,,,,,,,,,,,,,,,,,,,,,,,,110821,0,3,0,3,1,1,2,0,30,2021_Nov_08_1143,listening_fmri,3.2.4,59.94919545482394,
0,parcelated_audio/32/32_8.ogg,,,,,,,,,0,0,0,0,0,0,0,0,0,0,0,0,,,,,,,,,0,0,0,0,0,7,7,7,,,,,,,,,,,,,,,,,,,,,,,,,,,,,,,,,,,,,,,,,,,,,,,,70.59815611500017,75.08019476899972,,,,,,,,,,,,,,,,,,,,,,,,,,,,,,,,,,,,,,,,,,,,,,,,,,,,,,,,,,,,,,,,,,,,110821,0,3,0,3,1,1,2,0,30,2021_Nov_08_1143,listening_fmri,3.2.4,59.94919545482394,
0,parcelated_audio/32/32_9.ogg,,,,,,,,,0,0,0,0,0,0,0,0,0,0,0,0,,,,,,,,,0,0,0,0,0,8,8,8,,,,,,,,,,,,,,,,,,,,,,,,,,,,,,,,,,,,,,,,,,,,,,,,75.08074023599966,83.7521933399994,,,,,,,,,,,,,,,,,,,,,,,,,,,,,,,,,,,,,,,,,,,,,,,,,,,,,,,,,,,,,,,,,,,,110821,0,3,0,3,1,1,2,0,30,2021_Nov_08_1143,listening_fmri,3.2.4,59.94919545482394,
0,parcelated_audio/32/32_10.ogg,,,,,,,,,0,0,0,0,0,0,0,0,0,0,0,0,,,,,,,,,0,0,0,0,0,9,9,9,,,,,,,,,,,,,,,,,,,,,,,,,,,,,,,,,,,,,,,,,,,,,,,,83.7525445199999,88.52557255299962,,,,,,,,,,,,,,,,,,,,,,,,,,,,,,,,,,,,,,,,,,,,,,,,,,,,,,,,,,,,,,,,,,,,110821,0,3,0,3,1,1,2,0,30,2021_Nov_08_1143,listening_fmri,3.2.4,59.94919545482394,
0,parcelated_audio/32/32_11.ogg,,,,,,,,,0,0,0,0,0,0,0,0,0,0,0,0,,,,,,,,,0,0,0,0,0,10,10,10,,,,,,,,,,,,,,,,,,,,,,,,,,,,,,,,,,,,,,,,,,,,,,,,88.5259224649999,94.59715307799979,,,,,,,,,,,,,,,,,,,,,,,,,,,,,,,,,,,,,,,,,,,,,,,,,,,,,,,,,,,,,,,,,,,,110821,0,3,0,3,1,1,2,0,30,2021_Nov_08_1143,listening_fmri,3.2.4,59.94919545482394,
0,parcelated_audio/32/32_12.ogg,,,,,,,,,0,0,0,0,0,0,0,0,0,0,0,0,,,,,,,,,0,0,0,0,0,11,11,11,,,,,,,,,,,,,,,,,,,,,,,,,,,,,,,,,,,,,,,,,,,,,,,,94.59775728299974,104.03772642700005,,,,,,,,,,,,,,,,,,,,,,,,,,,,,,,,,,,,,,,,,,,,,,,,,,,,,,,,,,,,,,,,,,,,110821,0,3,0,3,1,1,2,0,30,2021_Nov_08_1143,listening_fmri,3.2.4,59.94919545482394,
0,parcelated_audio/32/32_13.ogg,,,,,,,,,0,0,0,0,0,0,0,0,0,0,0,0,,,,,,,,,0,0,0,0,0,12,12,12,,,,,,,,,,,,,,,,,,,,,,,,,,,,,,,,,,,,,,,,,,,,,,,,104.03811667099944,113.6477053259996,,,,,,,,,,,,,,,,,,,,,,,,,,,,,,,,,,,,,,,,,,,,,,,,,,,,,,,,,,,,,,,,,,,,110821,0,3,0,3,1,1,2,0,30,2021_Nov_08_1143,listening_fmri,3.2.4,59.94919545482394,
0,parcelated_audio/32/32_14.ogg,,,,,,,,,0,0,0,0,0,0,0,0,0,0,0,0,,,,,,,,,0,0,0,0,0,13,13,13,,,,,,,,,,,,,,,,,,,,,,,,,,,,,,,,,,,,,,,,,,,,,,,,113.6480739869994,121.7246895620001,,,,,,,,,,,,,,,,,,,,,,,,,,,,,,,,,,,,,,,,,,,,,,,,,,,,,,,,,,,,,,,,,,,,110821,0,3,0,3,1,1,2,0,30,2021_Nov_08_1143,listening_fmri,3.2.4,59.94919545482394,
0,parcelated_audio/32/32_15.ogg,,,,,,,,,0,0,0,0,0,0,0,0,0,0,0,0,,,,,,,,,0,0,0,0,0,14,14,14,,,,,,,,,,,,,,,,,,,,,,,,,,,,,,,,,,,,,,,,,,,,,,,,121.72504330399988,128.69887381899935,,,,,,,,,,,,,,,,,,,,,,,,,,,,,,,,,,,,,,,,,,,,,,,,,,,,,,,,,,,,,,,,,,,,110821,0,3,0,3,1,1,2,0,30,2021_Nov_08_1143,listening_fmri,3.2.4,59.94919545482394,
0,parcelated_audio/32/32_16.ogg,,,,,,,,,0,0,0,0,0,0,0,0,0,0,0,0,,,,,,,,,0,0,0,0,0,15,15,15,,,,,,,,,,,,,,,,,,,,,,,,,,,,,,,,,,,,,,,,,,,,,,,,128.69921655399958,136.31181004799964,,,,,,,,,,,,,,,,,,,,,,,,,,,,,,,,,,,,,,,,,,,,,,,,,,,,,,,,,,,,,,,,,,,,110821,0,3,0,3,1,1,2,0,30,2021_Nov_08_1143,listening_fmri,3.2.4,59.94919545482394,
0,parcelated_audio/32/32_17.ogg,,,,,,,,,0,0,0,0,0,0,0,0,0,0,0,0,,,,,,,,,0,0,0,0,0,16,16,16,,,,,,,,,,,,,,,,,,,,,,,,,,,,,,,,,,,,,,,,,,,,,,,,136.31211945199993,144.61622970400003,,,,,,,,,,,,,,,,,,,,,,,,,,,,,,,,,,,,,,,,,,,,,,,,,,,,,,,,,,,,,,,,,,,,110821,0,3,0,3,1,1,2,0,30,2021_Nov_08_1143,listening_fmri,3.2.4,59.94919545482394,
0,parcelated_audio/32/32_18.ogg,,,,,,,,,0,0,0,0,0,0,0,0,0,0,0,0,,,,,,,,,0,0,0,0,0,17,17,17,,,,,,,,,,,,,,,,,,,,,,,,,,,,,,,,,,,,,,,,,,,,,,,,144.6165819329999,149.01681836999978,,,,,,,,,,,,,,,,,,,,,,,,,,,,,,,,,,,,,,,,,,,,,,,,,,,,,,,,,,,,,,,,,,,,110821,0,3,0,3,1,1,2,0,30,2021_Nov_08_1143,listening_fmri,3.2.4,59.94919545482394,
0,parcelated_audio/32/32_19.ogg,,,,,,,,,0,0,0,0,0,0,0,0,0,0,0,0,,,,,,,,,0,0,0,0,0,18,18,18,,,,,,,,,,,,,,,,,,,,,,,,,,,,,,,,,,,,,,,,,,,,,,,,149.01826921999964,157.0809460269993,,,,,,,,,,,,,,,,,,,,,,,,,,,,,,,,,,,,,,,,,,,,,,,,,,,,,,,,,,,,,,,,,,,,110821,0,3,0,3,1,1,2,0,30,2021_Nov_08_1143,listening_fmri,3.2.4,59.94919545482394,
0,parcelated_audio/32/32_20.ogg,,,,,,,,,0,0,0,0,0,0,0,0,0,0,0,0,,,,,,,,,0,0,0,0,0,19,19,19,,,,,,,,,,,,,,,,,,,,,,,,,,,,,,,,,,,,,,,,,,,,,,,,157.0815018809999,168.06619285799934,,,,,,,,,,,,,,,,,,,,,,,,,,,,,,,,,,,,,,,,,,,,,,,,,,,,,,,,,,,,,,,,,,,,110821,0,3,0,3,1,1,2,0,30,2021_Nov_08_1143,listening_fmri,3.2.4,59.94919545482394,
0,parcelated_audio/32/32_21.ogg,,,,,,,,,0,0,0,0,0,0,0,0,0,0,0,0,,,,,,,,,0,0,0,0,0,20,20,20,,,,,,,,,,,,,,,,,,,,,,,,,,,,,,,,,,,,,,,,,,,,,,,,168.06654211399928,176.9292300649995,,,,,,,,,,,,,,,,,,,,,,,,,,,,,,,,,,,,,,,,,,,,,,,,,,,,,,,,,,,,,,,,,,,,110821,0,3,0,3,1,1,2,0,30,2021_Nov_08_1143,listening_fmri,3.2.4,59.94919545482394,
0,parcelated_audio/32/32_22.ogg,,,,,,,,,0,0,0,0,0,0,0,0,0,0,0,0,,,,,,,,,0,0,0,0,0,21,21,21,,,,,,,,,,,,,,,,,,,,,,,,,,,,,,,,,,,,,,,,,,,,,,,,176.9297748859999,190.96705803299938,,,,,,,,,,,,,,,,,,,,,,,,,,,,,,,,,,,,,,,,,,,,,,,,,,,,,,,,,,,,,,,,,,,,110821,0,3,0,3,1,1,2,0,30,2021_Nov_08_1143,listening_fmri,3.2.4,59.94919545482394,
0,parcelated_audio/32/32_23.ogg,,,,,,,,,0,0,0,0,0,0,0,0,0,0,0,0,,,,,,,,,0,0,0,0,0,22,22,22,,,,,,,,,,,,,,,,,,,,,,,,,,,,,,,,,,,,,,,,,,,,,,,,190.96760096099933,200.00931056799982,,,,,,,,,,,,,,,,,,,,,,,,,,,,,,,,,,,,,,,,,,,,,,,,,,,,,,,,,,,,,,,,,,,,110821,0,3,0,3,1,1,2,0,30,2021_Nov_08_1143,listening_fmri,3.2.4,59.94919545482394,
0,parcelated_audio/32/32_24.ogg,,,,,,,,,0,0,0,0,0,0,0,0,0,0,0,0,,,,,,,,,0,0,0,0,0,23,23,23,,,,,,,,,,,,,,,,,,,,,,,,,,,,,,,,,,,,,,,,,,,,,,,,200.00984703299946,211.29623028700007,,,,,,,,,,,,,,,,,,,,,,,,,,,,,,,,,,,,,,,,,,,,,,,,,,,,,,,,,,,,,,,,,,,,110821,0,3,0,3,1,1,2,0,30,2021_Nov_08_1143,listening_fmri,3.2.4,59.94919545482394,
0,parcelated_audio/32/32_25.ogg,,,,,,,,,0,0,0,0,0,0,0,0,0,0,0,0,,,,,,,,,0,0,0,0,0,24,24,24,,,,,,,,,,,,,,,,,,,,,,,,,,,,,,,,,,,,,,,,,,,,,,,,211.29678794899974,217.4560573129993,,,,,,,,,,,,,,,,,,,,,,,,,,,,,,,,,,,,,,,,,,,,,,,,,,,,,,,,,,,,,,,,,,,,110821,0,3,0,3,1,1,2,0,30,2021_Nov_08_1143,listening_fmri,3.2.4,59.94919545482394,
0,parcelated_audio/32/32_26.ogg,,,,,,,,,0,0,0,0,0,0,0,0,0,0,0,0,,,,,,,,,0,0,0,0,0,25,25,25,,,,,,,,,,,,,,,,,,,,,,,,,,,,,,,,,,,,,,,,,,,,,,,,217.45632802199998,230.80038822499955,,,,,,,,,,,,,,,,,,,,,,,,,,,,,,,,,,,,,,,,,,,,,,,,,,,,,,,,,,,,,,,,,,,,110821,0,3,0,3,1,1,2,0,30,2021_Nov_08_1143,listening_fmri,3.2.4,59.94919545482394,
0,parcelated_audio/32/32_27.ogg,,,,,,,,,0,0,0,0,0,0,0,0,0,0,0,0,,,,,,,,,0,0,0,0,0,26,26,26,,,,,,,,,,,,,,,,,,,,,,,,,,,,,,,,,,,,,,,,,,,,,,,,230.80073806499968,237.75756104299944,,,,,,,,,,,,,,,,,,,,,,,,,,,,,,,,,,,,,,,,,,,,,,,,,,,,,,,,,,,,,,,,,,,,110821,0,3,0,3,1,1,2,0,30,2021_Nov_08_1143,listening_fmri,3.2.4,59.94919545482394,
0,parcelated_audio/32/32_28.ogg,,,,,,,,,0,0,0,0,0,0,0,0,0,0,0,0,,,,,,,,,0,0,0,0,0,27,27,27,,,,,,,,,,,,,,,,,,,,,,,,,,,,,,,,,,,,,,,,,,,,,,,,237.7579103019998,244.44831727200017,,,,,,,,,,,,,,,,,,,,,,,,,,,,,,,,,,,,,,,,,,,,,,,,,,,,,,,,,,,,,,,,,,,,110821,0,3,0,3,1,1,2,0,30,2021_Nov_08_1143,listening_fmri,3.2.4,59.94919545482394,
0,parcelated_audio/32/32_29.ogg,,,,,,,,,0,0,0,0,0,0,0,0,0,0,0,0,,,,,,,,,0,0,0,0,0,28,28,28,,,,,,,,,,,,,,,,,,,,,,,,,,,,,,,,,,,,,,,,,,,,,,,,244.44866354199985,247.11126951200004,,,,,,,,,,,,,,,,,,,,,,,,,,,,,,,,,,,,,,,,,,,,,,,,,,,,,,,,,,,,,,,,,,,,110821,0,3,0,3,1,1,2,0,30,2021_Nov_08_1143,listening_fmri,3.2.4,59.94919545482394,
0,parcelated_audio/32/32_30.ogg,,,,,,,,,0,0,0,0,0,0,0,0,0,0,0,0,,,,,,,,,0,0,0,0,0,29,29,29,,,,,,,,,,,,,,,,,,,,,,,,,,,,,,,,,,,,,,,,,,,,,,,,247.11186075499973,254.14960590600003,,,,,,,,,,,,,,,,,,,,,,,,,,,,,,,,,,,,,,,,,,,,,,,,,,,,,,,,,,,,,,,,,,,,110821,0,3,0,3,1,1,2,0,30,2021_Nov_08_1143,listening_fmri,3.2.4,59.94919545482394,
0,parcelated_audio/32/32_31.ogg,,,,,,,,,0,0,0,0,0,0,0,0,0,0,0,0,,,,,,,,,0,0,0,0,0,30,30,30,,,,,,,,,,,,,,,,,,,,,,,,,,,,,,,,,,,,,,,,,,,,,,,,254.15042654899935,260.4841582809995,,,,,,,,,,,,,,,,,,,,,,,,,,,,,,,,,,,,,,,,,,,,,,,,,,,,,,,,,,,,,,,,,,,,110821,0,3,0,3,1,1,2,0,30,2021_Nov_08_1143,listening_fmri,3.2.4,59.94919545482394,
0,parcelated_audio/32/32_32.ogg,,,,,,,,,0,0,0,0,0,0,0,0,0,0,0,0,,,,,,,,,0,0,0,0,0,31,31,31,,,,,,,,,,,,,,,,,,,,,,,,,,,,,,,,,,,,,,,,,,,,,,,,260.48450831599985,270.196221743,,,,,,,,,,,,,,,,,,,,,,,,,,,,,,,,,,,,,,,,,,,,,,,,,,,,,,,,,,,,,,,,,,,,110821,0,3,0,3,1,1,2,0,30,2021_Nov_08_1143,listening_fmri,3.2.4,59.94919545482394,
0,parcelated_audio/32/32_33.ogg,,,,,,,,,0,0,0,0,0,0,0,0,0,0,0,0,,,,,,,,,0,0,0,0,0,32,32,32,,,,,,,,,,,,,,,,,,,,,,,,,,,,,,,,,,,,,,,,,,,,,,,,270.19656925099935,275.94611859999986,,,,,,,,,,,,,,,,,,,,,,,,,,,,,,,,,,,,,,,,,,,,,,,,,,,,,,,,,,,,,,,,,,,,110821,0,3,0,3,1,1,2,0,30,2021_Nov_08_1143,listening_fmri,3.2.4,59.94919545482394,
0,,,,,,,,,,0,0,0,0,0,0,0,0,0,0,0,0,,,,,,,,,0,0,0,0,,,,,,,,,,,,,,,,,,,,,,,,,,,,,,,,,,,,,,,,,,,,,,,,,,,,,,,,,,,,,,,,,,,,,,,,,,,,,,,,,,,,,,,,,,,,,,,,,,,,,,,,,,,,,,,,,,,,,,,,,110821,0,3,0,3,1,1,2,0,30,2021_Nov_08_1143,listening_fmri,3.2.4,59.94919545482394,
0,,,,,,,,,,0,0,0,0,0,0,0,0,0,0,0,0,,,,,,,,,,,,,,,,,,,,,,,,,,,,,,,,,,,,,,,,,,275.9466083419993,281.9444349719997,337.5622607920004,None,,,,,,,,,,,,,,,,,,,,,343.56223821599997,None,343.56223821599997,None,,,,,,,,,,,,,,,,,,,,,,,,,,,,,,,,,,,,,,,,,,,,,,,,,,,,,,,,,,,,,,,,110821,0,3,0,3,1,1,2,0,30,2021_Nov_08_1143,listening_fmri,3.2.4,59.94919545482394,
0,,,,,,,,,,0,0,0,0,0,0,0,0,,,,,,,,,,,,,,,,,,,,,,,,,,,,,,,,,,,,,,,,,,,,,,,,,,,,,,,,,,,,,,,,,,,,,,,,,,,,,,,,,,,,,,,,,,,,,,,,,,,,,,,,,,,,,,,,,,,,,,,,,,,,,,,,,,,,,,,,,110821,0,3,0,3,1,1,2,0,30,2021_Nov_08_1143,listening_fmri,3.2.4,59.94919545482394,
1,,,,,,,,,,0,0,0,0,0,1,1,1,,,,,,,,,,,,,,,,,,,,,,,,,,,,,,,,,,,,,,,,,,,,,,,,,,,,,,,,,,,,,,,,,,,,,,,,,,,,,,,,,,,,,,,,,,,,,,,,,,,,,,,,,,,,,,,,,,,,,,,,,,,,,,,,,,,,,,,,,110821,0,3,0,3,1,1,2,0,30,2021_Nov_08_1143,listening_fmri,3.2.4,59.94919545482394,
2,parcelated_audio/23/23_1.ogg,,,,,,,,,0,0,0,0,0,2,2,2,0,0,0,0,,,,,,,,,0,0,0,0,0,0,0,0,,,,,,,,,,,,,,,,,,,,,,,,,,,,,,344.5620414639998,None,344.5620414639998,None,6,2.736390297000071,344.5620414639998,None,344.5620414639998,None,347.32868703999975,None,1,2.9458550149993243,347.32868703999975,None,288.6858693139993,291.6944644539999,291.7017142730001,302.09673125599966,,,,,,,,,,,,,,,,,,,,,,,,,,,,,,,,,,,,,,,,,,,,,,,,,,,,,,,,,,,,,,,,,,,,110821,0,3,0,3,1,1,2,0,30,2021_Nov_08_1143,listening_fmri,3.2.4,59.94919545482394,
2,parcelated_audio/23/23_2.ogg,,,,,,,,,0,0,0,0,0,2,2,2,0,0,0,0,,,,,,,,,0,0,0,0,0,1,1,1,,,,,,,,,,,,,,,,,,,,,,,,,,,,,,,,,,,,,,,,,,,,,,,,302.0971883960001,308.9732356889999,,,,,,,,,,,,,,,,,,,,,,,,,,,,,,,,,,,,,,,,,,,,,,,,,,,,,,,,,,,,,,,,,,,,110821,0,3,0,3,1,1,2,0,30,2021_Nov_08_1143,listening_fmri,3.2.4,59.94919545482394,
2,parcelated_audio/23/23_3.ogg,,,,,,,,,0,0,0,0,0,2,2,2,0,0,0,0,,,,,,,,,0,0,0,0,0,2,2,2,,,,,,,,,,,,,,,,,,,,,,,,,,,,,,,,,,,,,,,,,,,,,,,,308.97358884499954,314.7431874899994,,,,,,,,,,,,,,,,,,,,,,,,,,,,,,,,,,,,,,,,,,,,,,,,,,,,,,,,,,,,,,,,,,,,110821,0,3,0,3,1,1,2,0,30,2021_Nov_08_1143,listening_fmri,3.2.4,59.94919545482394,
2,parcelated_audio/23/23_4.ogg,,,,,,,,,0,0,0,0,0,2,2,2,0,0,0,0,,,,,,,,,0,0,0,0,0,3,3,3,,,,,,,,,,,,,,,,,,,,,,,,,,,,,,,,,,,,,,,,,,,,,,,,314.74403065800016,326.0096846059996,,,,,,,,,,,,,,,,,,,,,,,,,,,,,,,,,,,,,,,,,,,,,,,,,,,,,,,,,,,,,,,,,,,,110821,0,3,0,3,1,1,2,0,30,2021_Nov_08_1143,listening_fmri,3.2.4,59.94919545482394,
2,parcelated_audio/23/23_5.ogg,,,,,,,,,0,0,0,0,0,2,2,2,0,0,0,0,,,,,,,,,0,0,0,0,0,4,4,4,,,,,,,,,,,,,,,,,,,,,,,,,,,,,,,,,,,,,,,,,,,,,,,,326.0100292669995,332.2263847260001,,,,,,,,,,,,,,,,,,,,,,,,,,,,,,,,,,,,,,,,,,,,,,,,,,,,,,,,,,,,,,,,,,,,110821,0,3,0,3,1,1,2,0,30,2021_Nov_08_1143,listening_fmri,3.2.4,59.94919545482394,
2,parcelated_audio/23/23_6.ogg,,,,,,,,,0,0,0,0,0,2,2,2,0,0,0,0,,,,,,,,,0,0,0,0,0,5,5,5,,,,,,,,,,,,,,,,,,,,,,,,,,,,,,,,,,,,,,,,,,,,,,,,332.22701090099963,339.63906880800005,,,,,,,,,,,,,,,,,,,,,,,,,,,,,,,,,,,,,,,,,,,,,,,,,,,,,,,,,,,,,,,,,,,,110821,0,3,0,3,1,1,2,0,30,2021_Nov_08_1143,listening_fmri,3.2.4,59.94919545482394,
2,parcelated_audio/23/23_7.ogg,,,,,,,,,0,0,0,0,0,2,2,2,0,0,0,0,,,,,,,,,0,0,0,0,0,6,6,6,,,,,,,,,,,,,,,,,,,,,,,,,,,,,,,,,,,,,,,,,,,,,,,,339.6399033560001,346.38988743199934,,,,,,,,,,,,,,,,,,,,,,,,,,,,,,,,,,,,,,,,,,,,,,,,,,,,,,,,,,,,,,,,,,,,110821,0,3,0,3,1,1,2,0,30,2021_Nov_08_1143,listening_fmri,3.2.4,59.94919545482394,
2,parcelated_audio/23/23_8.ogg,,,,,,,,,0,0,0,0,0,2,2,2,0,0,0,0,,,,,,,,,0,0,0,0,0,7,7,7,,,,,,,,,,,,,,,,,,,,,,,,,,,,,,,,,,,,,,,,,,,,,,,,346.39023018199987,351.7932598889993,,,,,,,,,,,,,,,,,,,,,,,,,,,,,,,,,,,,,,,,,,,,,,,,,,,,,,,,,,,,,,,,,,,,110821,0,3,0,3,1,1,2,0,30,2021_Nov_08_1143,listening_fmri,3.2.4,59.94919545482394,
2,parcelated_audio/23/23_9.ogg,,,,,,,,,0,0,0,0,0,2,2,2,0,0,0,0,,,,,,,,,0,0,0,0,0,8,8,8,,,,,,,,,,,,,,,,,,,,,,,,,,,,,,,,,,,,,,,,,,,,,,,,351.7937807009994,356.18184462299996,,,,,,,,,,,,,,,,,,,,,,,,,,,,,,,,,,,,,,,,,,,,,,,,,,,,,,,,,,,,,,,,,,,,110821,0,3,0,3,1,1,2,0,30,2021_Nov_08_1143,listening_fmri,3.2.4,59.94919545482394,
2,parcelated_audio/23/23_10.ogg,,,,,,,,,0,0,0,0,0,2,2,2,0,0,0,0,,,,,,,,,0,0,0,0,0,9,9,9,,,,,,,,,,,,,,,,,,,,,,,,,,,,,,,,,,,,,,,,,,,,,,,,356.18229755299944,360.13107867300005,,,,,,,,,,,,,,,,,,,,,,,,,,,,,,,,,,,,,,,,,,,,,,,,,,,,,,,,,,,,,,,,,,,,110821,0,3,0,3,1,1,2,0,30,2021_Nov_08_1143,listening_fmri,3.2.4,59.94919545482394,
2,parcelated_audio/23/23_11.ogg,,,,,,,,,0,0,0,0,0,2,2,2,0,0,0,0,,,,,,,,,0,0,0,0,0,10,10,10,,,,,,,,,,,,,,,,,,,,,,,,,,,,,,,,,,,,,,,,,,,,,,,,360.131440657,368.2587609839993,,,,,,,,,,,,,,,,,,,,,,,,,,,,,,,,,,,,,,,,,,,,,,,,,,,,,,,,,,,,,,,,,,,,110821,0,3,0,3,1,1,2,0,30,2021_Nov_08_1143,listening_fmri,3.2.4,59.94919545482394,
2,parcelated_audio/23/23_12.ogg,,,,,,,,,0,0,0,0,0,2,2,2,0,0,0,0,,,,,,,,,0,0,0,0,0,11,11,11,,,,,,,,,,,,,,,,,,,,,,,,,,,,,,,,,,,,,,,,,,,,,,,,368.2591566410001,375.4024669699993,,,,,,,,,,,,,,,,,,,,,,,,,,,,,,,,,,,,,,,,,,,,,,,,,,,,,,,,,,,,,,,,,,,,110821,0,3,0,3,1,1,2,0,30,2021_Nov_08_1143,listening_fmri,3.2.4,59.94919545482394,
2,parcelated_audio/23/23_13.ogg,,,,,,,,,0,0,0,0,0,2,2,2,0,0,0,0,,,,,,,,,0,0,0,0,0,12,12,12,,,,,,,,,,,,,,,,,,,,,,,,,,,,,,,,,,,,,,,,,,,,,,,,375.4028093950001,382.1789039059995,,,,,,,,,,,,,,,,,,,,,,,,,,,,,,,,,,,,,,,,,,,,,,,,,,,,,,,,,,,,,,,,,,,,110821,0,3,0,3,1,1,2,0,30,2021_Nov_08_1143,listening_fmri,3.2.4,59.94919545482394,
2,parcelated_audio/23/23_14.ogg,,,,,,,,,0,0,0,0,0,2,2,2,0,0,0,0,,,,,,,,,0,0,0,0,0,13,13,13,,,,,,,,,,,,,,,,,,,,,,,,,,,,,,,,,,,,,,,,,,,,,,,,382.17925234499944,386.54407146799986,,,,,,,,,,,,,,,,,,,,,,,,,,,,,,,,,,,,,,,,,,,,,,,,,,,,,,,,,,,,,,,,,,,,110821,0,3,0,3,1,1,2,0,30,2021_Nov_08_1143,listening_fmri,3.2.4,59.94919545482394,
2,parcelated_audio/23/23_15.ogg,,,,,,,,,0,0,0,0,0,2,2,2,0,0,0,0,,,,,,,,,0,0,0,0,0,14,14,14,,,,,,,,,,,,,,,,,,,,,,,,,,,,,,,,,,,,,,,,,,,,,,,,386.54442511399975,390.9654798450001,,,,,,,,,,,,,,,,,,,,,,,,,,,,,,,,,,,,,,,,,,,,,,,,,,,,,,,,,,,,,,,,,,,,110821,0,3,0,3,1,1,2,0,30,2021_Nov_08_1143,listening_fmri,3.2.4,59.94919545482394,
2,parcelated_audio/23/23_16.ogg,,,,,,,,,0,0,0,0,0,2,2,2,0,0,0,0,,,,,,,,,0,0,0,0,0,15,15,15,,,,,,,,,,,,,,,,,,,,,,,,,,,,,,,,,,,,,,,,,,,,,,,,390.9658098439995,397.5425442879996,,,,,,,,,,,,,,,,,,,,,,,,,,,,,,,,,,,,,,,,,,,,,,,,,,,,,,,,,,,,,,,,,,,,110821,0,3,0,3,1,1,2,0,30,2021_Nov_08_1143,listening_fmri,3.2.4,59.94919545482394,
2,parcelated_audio/23/23_17.ogg,,,,,,,,,0,0,0,0,0,2,2,2,0,0,0,0,,,,,,,,,0,0,0,0,0,16,16,16,,,,,,,,,,,,,,,,,,,,,,,,,,,,,,,,,,,,,,,,,,,,,,,,397.5431248519999,404.28805271799956,,,,,,,,,,,,,,,,,,,,,,,,,,,,,,,,,,,,,,,,,,,,,,,,,,,,,,,,,,,,,,,,,,,,110821,0,3,0,3,1,1,2,0,30,2021_Nov_08_1143,listening_fmri,3.2.4,59.94919545482394,
2,parcelated_audio/23/23_18.ogg,,,,,,,,,0,0,0,0,0,2,2,2,0,0,0,0,,,,,,,,,0,0,0,0,0,17,17,17,,,,,,,,,,,,,,,,,,,,,,,,,,,,,,,,,,,,,,,,,,,,,,,,404.28840432000015,416.26318496800013,,,,,,,,,,,,,,,,,,,,,,,,,,,,,,,,,,,,,,,,,,,,,,,,,,,,,,,,,,,,,,,,,,,,110821,0,3,0,3,1,1,2,0,30,2021_Nov_08_1143,listening_fmri,3.2.4,59.94919545482394,
2,parcelated_audio/23/23_19.ogg,,,,,,,,,0,0,0,0,0,2,2,2,0,0,0,0,,,,,,,,,0,0,0,0,0,18,18,18,,,,,,,,,,,,,,,,,,,,,,,,,,,,,,,,,,,,,,,,,,,,,,,,416.26373516700005,422.0263201729995,,,,,,,,,,,,,,,,,,,,,,,,,,,,,,,,,,,,,,,,,,,,,,,,,,,,,,,,,,,,,,,,,,,,110821,0,3,0,3,1,1,2,0,30,2021_Nov_08_1143,listening_fmri,3.2.4,59.94919545482394,
2,parcelated_audio/23/23_20.ogg,,,,,,,,,0,0,0,0,0,2,2,2,0,0,0,0,,,,,,,,,0,0,0,0,0,19,19,19,,,,,,,,,,,,,,,,,,,,,,,,,,,,,,,,,,,,,,,,,,,,,,,,422.02667004999967,424.9032398339996,,,,,,,,,,,,,,,,,,,,,,,,,,,,,,,,,,,,,,,,,,,,,,,,,,,,,,,,,,,,,,,,,,,,110821,0,3,0,3,1,1,2,0,30,2021_Nov_08_1143,listening_fmri,3.2.4,59.94919545482394,
2,parcelated_audio/23/23_21.ogg,,,,,,,,,0,0,0,0,0,2,2,2,0,0,0,0,,,,,,,,,0,0,0,0,0,20,20,20,,,,,,,,,,,,,,,,,,,,,,,,,,,,,,,,,,,,,,,,,,,,,,,,424.90412301299966,432.57323747400005,,,,,,,,,,,,,,,,,,,,,,,,,,,,,,,,,,,,,,,,,,,,,,,,,,,,,,,,,,,,,,,,,,,,110821,0,3,0,3,1,1,2,0,30,2021_Nov_08_1143,listening_fmri,3.2.4,59.94919545482394,
2,parcelated_audio/23/23_22.ogg,,,,,,,,,0,0,0,0,0,2,2,2,0,0,0,0,,,,,,,,,0,0,0,0,0,21,21,21,,,,,,,,,,,,,,,,,,,,,,,,,,,,,,,,,,,,,,,,,,,,,,,,432.5741412130001,435.24285361500006,,,,,,,,,,,,,,,,,,,,,,,,,,,,,,,,,,,,,,,,,,,,,,,,,,,,,,,,,,,,,,,,,,,,110821,0,3,0,3,1,1,2,0,30,2021_Nov_08_1143,listening_fmri,3.2.4,59.94919545482394,
2,parcelated_audio/23/23_23.ogg,,,,,,,,,0,0,0,0,0,2,2,2,0,0,0,0,,,,,,,,,0,0,0,0,0,22,22,22,,,,,,,,,,,,,,,,,,,,,,,,,,,,,,,,,,,,,,,,,,,,,,,,435.24320503499985,439.39767059899987,,,,,,,,,,,,,,,,,,,,,,,,,,,,,,,,,,,,,,,,,,,,,,,,,,,,,,,,,,,,,,,,,,,,110821,0,3,0,3,1,1,2,0,30,2021_Nov_08_1143,listening_fmri,3.2.4,59.94919545482394,
2,parcelated_audio/23/23_24.ogg,,,,,,,,,0,0,0,0,0,2,2,2,0,0,0,0,,,,,,,,,0,0,0,0,0,23,23,23,,,,,,,,,,,,,,,,,,,,,,,,,,,,,,,,,,,,,,,,,,,,,,,,439.39802162700016,442.9388935500001,,,,,,,,,,,,,,,,,,,,,,,,,,,,,,,,,,,,,,,,,,,,,,,,,,,,,,,,,,,,,,,,,,,,110821,0,3,0,3,1,1,2,0,30,2021_Nov_08_1143,listening_fmri,3.2.4,59.94919545482394,
2,parcelated_audio/23/23_25.ogg,,,,,,,,,0,0,0,0,0,2,2,2,0,0,0,0,,,,,,,,,0,0,0,0,0,24,24,24,,,,,,,,,,,,,,,,,,,,,,,,,,,,,,,,,,,,,,,,,,,,,,,,442.9395510690001,447.088322695,,,,,,,,,,,,,,,,,,,,,,,,,,,,,,,,,,,,,,,,,,,,,,,,,,,,,,,,,,,,,,,,,,,,110821,0,3,0,3,1,1,2,0,30,2021_Nov_08_1143,listening_fmri,3.2.4,59.94919545482394,
2,parcelated_audio/23/23_26.ogg,,,,,,,,,0,0,0,0,0,2,2,2,0,0,0,0,,,,,,,,,0,0,0,0,0,25,25,25,,,,,,,,,,,,,,,,,,,,,,,,,,,,,,,,,,,,,,,,,,,,,,,,447.08977906699965,453.3228202829996,,,,,,,,,,,,,,,,,,,,,,,,,,,,,,,,,,,,,,,,,,,,,,,,,,,,,,,,,,,,,,,,,,,,110821,0,3,0,3,1,1,2,0,30,2021_Nov_08_1143,listening_fmri,3.2.4,59.94919545482394,
2,parcelated_audio/23/23_27.ogg,,,,,,,,,0,0,0,0,0,2,2,2,0,0,0,0,,,,,,,,,0,0,0,0,0,26,26,26,,,,,,,,,,,,,,,,,,,,,,,,,,,,,,,,,,,,,,,,,,,,,,,,453.3231711469998,458.5815074859993,,,,,,,,,,,,,,,,,,,,,,,,,,,,,,,,,,,,,,,,,,,,,,,,,,,,,,,,,,,,,,,,,,,,110821,0,3,0,3,1,1,2,0,30,2021_Nov_08_1143,listening_fmri,3.2.4,59.94919545482394,
2,parcelated_audio/23/23_28.ogg,,,,,,,,,0,0,0,0,0,2,2,2,0,0,0,0,,,,,,,,,0,0,0,0,0,27,27,27,,,,,,,,,,,,,,,,,,,,,,,,,,,,,,,,,,,,,,,,,,,,,,,,458.5818597739999,466.54116909799995,,,,,,,,,,,,,,,,,,,,,,,,,,,,,,,,,,,,,,,,,,,,,,,,,,,,,,,,,,,,,,,,,,,,110821,0,3,0,3,1,1,2,0,30,2021_Nov_08_1143,listening_fmri,3.2.4,59.94919545482394,
2,parcelated_audio/23/23_29.ogg,,,,,,,,,0,0,0,0,0,2,2,2,0,0,0,0,,,,,,,,,0,0,0,0,0,28,28,28,,,,,,,,,,,,,,,,,,,,,,,,,,,,,,,,,,,,,,,,,,,,,,,,466.5415440229999,470.29223104299945,,,,,,,,,,,,,,,,,,,,,,,,,,,,,,,,,,,,,,,,,,,,,,,,,,,,,,,,,,,,,,,,,,,,110821,0,3,0,3,1,1,2,0,30,2021_Nov_08_1143,listening_fmri,3.2.4,59.94919545482394,
2,parcelated_audio/23/23_30.ogg,,,,,,,,,0,0,0,0,0,2,2,2,0,0,0,0,,,,,,,,,0,0,0,0,0,29,29,29,,,,,,,,,,,,,,,,,,,,,,,,,,,,,,,,,,,,,,,,,,,,,,,,470.29276073299934,476.20734088599966,,,,,,,,,,,,,,,,,,,,,,,,,,,,,,,,,,,,,,,,,,,,,,,,,,,,,,,,,,,,,,,,,,,,110821,0,3,0,3,1,1,2,0,30,2021_Nov_08_1143,listening_fmri,3.2.4,59.94919545482394,
2,parcelated_audio/23/23_31.ogg,,,,,,,,,0,0,0,0,0,2,2,2,0,0,0,0,,,,,,,,,0,0,0,0,0,30,30,30,,,,,,,,,,,,,,,,,,,,,,,,,,,,,,,,,,,,,,,,,,,,,,,,476.20770174300014,478.21157568299986,,,,,,,,,,,,,,,,,,,,,,,,,,,,,,,,,,,,,,,,,,,,,,,,,,,,,,,,,,,,,,,,,,,,110821,0,3,0,3,1,1,2,0,30,2021_Nov_08_1143,listening_fmri,3.2.4,59.94919545482394,
2,parcelated_audio/23/23_32.ogg,,,,,,,,,0,0,0,0,0,2,2,2,0,0,0,0,,,,,,,,,0,0,0,0,0,31,31,31,,,,,,,,,,,,,,,,,,,,,,,,,,,,,,,,,,,,,,,,,,,,,,,,478.21209112699944,481.8260221749997,,,,,,,,,,,,,,,,,,,,,,,,,,,,,,,,,,,,,,,,,,,,,,,,,,,,,,,,,,,,,,,,,,,,110821,0,3,0,3,1,1,2,0,30,2021_Nov_08_1143,listening_fmri,3.2.4,59.94919545482394,
2,parcelated_audio/23/23_33.ogg,,,,,,,,,0,0,0,0,0,2,2,2,0,0,0,0,,,,,,,,,0,0,0,0,0,32,32,32,,,,,,,,,,,,,,,,,,,,,,,,,,,,,,,,,,,,,,,,,,,,,,,,481.8265690919998,487.8776312589998,,,,,,,,,,,,,,,,,,,,,,,,,,,,,,,,,,,,,,,,,,,,,,,,,,,,,,,,,,,,,,,,,,,,110821,0,3,0,3,1,1,2,0,30,2021_Nov_08_1143,listening_fmri,3.2.4,59.94919545482394,
2,parcelated_audio/23/23_34.ogg,,,,,,,,,0,0,0,0,0,2,2,2,0,0,0,0,,,,,,,,,0,0,0,0,0,33,33,33,,,,,,,,,,,,,,,,,,,,,,,,,,,,,,,,,,,,,,,,,,,,,,,,487.87814989599974,491.42540337899936,,,,,,,,,,,,,,,,,,,,,,,,,,,,,,,,,,,,,,,,,,,,,,,,,,,,,,,,,,,,,,,,,,,,110821,0,3,0,3,1,1,2,0,30,2021_Nov_08_1143,listening_fmri,3.2.4,59.94919545482394,
2,parcelated_audio/23/23_35.ogg,,,,,,,,,0,0,0,0,0,2,2,2,0,0,0,0,,,,,,,,,0,0,0,0,0,34,34,34,,,,,,,,,,,,,,,,,,,,,,,,,,,,,,,,,,,,,,,,,,,,,,,,491.42594341399945,495.72436943899993,,,,,,,,,,,,,,,,,,,,,,,,,,,,,,,,,,,,,,,,,,,,,,,,,,,,,,,,,,,,,,,,,,,,110821,0,3,0,3,1,1,2,0,30,2021_Nov_08_1143,listening_fmri,3.2.4,59.94919545482394,
2,parcelated_audio/23/23_36.ogg,,,,,,,,,0,0,0,0,0,2,2,2,0,0,0,0,,,,,,,,,0,0,0,0,0,35,35,35,,,,,,,,,,,,,,,,,,,,,,,,,,,,,,,,,,,,,,,,,,,,,,,,495.7248356129994,500.34844412999973,,,,,,,,,,,,,,,,,,,,,,,,,,,,,,,,,,,,,,,,,,,,,,,,,,,,,,,,,,,,,,,,,,,,110821,0,3,0,3,1,1,2,0,30,2021_Nov_08_1143,listening_fmri,3.2.4,59.94919545482394,
2,parcelated_audio/23/23_37.ogg,,,,,,,,,0,0,0,0,0,2,2,2,0,0,0,0,,,,,,,,,0,0,0,0,0,36,36,36,,,,,,,,,,,,,,,,,,,,,,,,,,,,,,,,,,,,,,,,,,,,,,,,500.34879301399997,505.14268658199944,,,,,,,,,,,,,,,,,,,,,,,,,,,,,,,,,,,,,,,,,,,,,,,,,,,,,,,,,,,,,,,,,,,,110821,0,3,0,3,1,1,2,0,30,2021_Nov_08_1143,listening_fmri,3.2.4,59.94919545482394,
2,parcelated_audio/23/23_38.ogg,,,,,,,,,0,0,0,0,0,2,2,2,0,0,0,0,,,,,,,,,0,0,0,0,0,37,37,37,,,,,,,,,,,,,,,,,,,,,,,,,,,,,,,,,,,,,,,,,,,,,,,,505.1432821899998,512.6292654069994,,,,,,,,,,,,,,,,,,,,,,,,,,,,,,,,,,,,,,,,,,,,,,,,,,,,,,,,,,,,,,,,,,,,110821,0,3,0,3,1,1,2,0,30,2021_Nov_08_1143,listening_fmri,3.2.4,59.94919545482394,
2,parcelated_audio/23/23_39.ogg,,,,,,,,,0,0,0,0,0,2,2,2,0,0,0,0,,,,,,,,,0,0,0,0,0,38,38,38,,,,,,,,,,,,,,,,,,,,,,,,,,,,,,,,,,,,,,,,,,,,,,,,512.6298074359993,518.8961497029995,,,,,,,,,,,,,,,,,,,,,,,,,,,,,,,,,,,,,,,,,,,,,,,,,,,,,,,,,,,,,,,,,,,,110821,0,3,0,3,1,1,2,0,30,2021_Nov_08_1143,listening_fmri,3.2.4,59.94919545482394,
2,,,,,,,,,,0,0,0,0,0,2,2,2,0,0,0,0,,,,,,,,,0,0,0,0,,,,,,,,,,,,,,,,,,,,,,,,,,,,,,,,,,,,,,,,,,,,,,,,,,,,,,,,,,,,,,,,,,,,,,,,,,,,,,,,,,,,,,,,,,,,,,,,,,,,,,,,,,,,,,,,,,,,,,,,,110821,0,3,0,3,1,1,2,0,30,2021_Nov_08_1143,listening_fmri,3.2.4,59.94919545482394,
2,,,,,,,,,,0,0,0,0,0,2,2,2,0,0,0,0,,,,,,,,,,,,,,,,,,,,,,,,,,,,,,,,,,,,,,,,,,518.8966541509999,524.8952789649993,580.5104372260002,None,,,,,,,,,,,,,,,,,,,,,586.5122524709996,None,586.5122524709996,None,,,,,,,,,,,,,,,,,,,,,,,,,,,,,,,,,,,,,,,,,,,,,,,,,,,,,,,,,,,,,,,,110821,0,3,0,3,1,1,2,0,30,2021_Nov_08_1143,listening_fmri,3.2.4,59.94919545482394,
2,,,,,,,,,,0,0,0,0,0,2,2,2,,,,,,,,,,,,,,,,,,,,,,,,,,,,,,,,,,,,,,,,,,,,,,,,,,,,,,,,,,,,,,,,,,,,,,,,,,,,,,,,,,,,,,,,,,,,,,,,,,,,,,,,,,,,,,,,,,,,,,,,,,,,,,,,,,,,,,,,,110821,0,3,0,3,1,1,2,0,30,2021_Nov_08_1143,listening_fmri,3.2.4,59.94919545482394,
3,,,,,,,,,,0,0,0,0,0,3,3,3,,,,,,,,,,,,,,,,,,,,,,,,,,,,,,,,,,,,,,,,,,,,,,,,,,,,,,,,,,,,,,,,,,,,,,,,,,,,,,,,,,,,,,,,,,,,,,,,,,,,,,,,,,,,,,,,,,,,,,,,,,,,,,,,,,,,,,,,,110821,0,3,0,3,1,1,2,0,30,2021_Nov_08_1143,listening_fmri,3.2.4,59.94919545482394,
4,,,,,,,,,,0,0,0,0,0,4,4,4,0,0,0,0,0,0,0,0,,,,,,,,,,,,,,,,,0,0,0,0,,,,,,,,,,,,,,,,,,,,,,587.5268186269996,None,587.5268186269996,None,2,13.803586340999573,587.5268186269996,None,587.5268186269996,None,,,,,,,,,,,,,,,601.3624998690002,None,3,3.7549857999993037,601.3624998690002,None,601.3624998690002,None,605.1766608440003,None,605.1766608440003,None,605.1766608440003,None,2,2.9508727550000913,605.1766608440003,None,608.1462093330001,None,2,3.1473438279999755,608.1462093330001,None,608.1462093330001,None,611.4105560369999,None,611.4105560369999,None,611.4105560369999,None,611.4105560369999,None,611.4105560369999,None,611.4105560369999,None,611.4105560369999,None,None,611.4105560369999,None,,,,,,,,,,,,,,,,,,,,,110821,0,3,0,3,1,1,2,0,30,2021_Nov_08_1143,listening_fmri,3.2.4,59.94919545482394,
4,,,,,,,,,,0,0,0,0,0,4,4,4,0,0,0,0,0,0,0,0,,,,,,,,,,,,,,,,,1,0,1,0,,,,,,,,,,,,,,,,,,,,,,,,,,,,,,,,,,,,,,,,,,,,,,,,,,,,,,625.85892504,None,625.85892504,None,625.85892504,None,7,0.616525477000323,625.85892504,None,626.4970001490001,None,7,0.4824653010000475,626.4970001490001,None,626.4970001490001,None,627.0628905599997,None,627.0628905599997,None,627.0628905599997,None,627.0628905599997,None,627.0628905599997,None,627.0628905599997,None,627.0628905599997,None,None,627.0628905599997,None,,,,,,,,,,,,,,,,,,,,,110821,0,3,0,3,1,1,2,0,30,2021_Nov_08_1143,listening_fmri,3.2.4,59.94919545482394,
4,,,,,,,,,,0,0,0,0,0,4,4,4,0,0,0,0,0,0,0,0,,,,,,,,,,,,,,,,,,,,,,,,,,,,,,,,,,,,,,,,,,,,,,,,,,,,,,,,,,,,,,,,,,,,,,,,,,,,,,,,,,,,,,,,,,,,,,,,,,,,,,,,,,,,,647.7592562809996,None,2,2.2721654999995735,647.7592562809996,None,647.7592562809996,None,650.0755196,None,650.0755196,None,650.0755196,None,2,1.7388881580000088,650.0755196,None,,,110821,0,3,0,3,1,1,2,0,30,2021_Nov_08_1143,listening_fmri,3.2.4,59.94919545482394,
4,parcelated_audio/34/34_1.ogg,,,,,,,,,0,0,0,0,0,4,4,4,0,0,0,0,,,,,,,,,0,0,0,0,0,0,0,0,,,,,,,,,,,,,,,,,,,,,,,,,,,,,,,,,,,,,,,,651.8459070059998,None,2,2.4296405400000367,651.8459070059998,None,592.7009503680001,595.7116229909998,595.7171474709994,604.406049661,,,,,,,,,,,,,,,,,,,,,,,,,,,,,,,,,,,,,,,,,,,,,,,,,,,,,,,,,,,,,,,,,,,,110821,0,3,0,3,1,1,2,0,30,2021_Nov_08_1143,listening_fmri,3.2.4,59.94919545482394,
4,parcelated_audio/34/34_2.ogg,,,,,,,,,0,0,0,0,0,4,4,4,0,0,0,0,,,,,,,,,0,0,0,0,0,1,1,1,,,,,,,,,,,,,,,,,,,,,,,,,,,,,,,,,,,,,,,,,,,,,,,,604.4064898269999,608.9652520659993,,,,,,,,,,,,,,,,,,,,,,,,,,,,,,,,,,,,,,,,,,,,,,,,,,,,,,,,,,,,,,,,,,,,110821,0,3,0,3,1,1,2,0,30,2021_Nov_08_1143,listening_fmri,3.2.4,59.94919545482394,
4,parcelated_audio/34/34_3.ogg,,,,,,,,,0,0,0,0,0,4,4,4,0,0,0,0,,,,,,,,,0,0,0,0,0,2,2,2,,,,,,,,,,,,,,,,,,,,,,,,,,,,,,,,,,,,,,,,,,,,,,,,608.9656710079998,613.6109280350001,,,,,,,,,,,,,,,,,,,,,,,,,,,,,,,,,,,,,,,,,,,,,,,,,,,,,,,,,,,,,,,,,,,,110821,0,3,0,3,1,1,2,0,30,2021_Nov_08_1143,listening_fmri,3.2.4,59.94919545482394,
4,parcelated_audio/34/34_4.ogg,,,,,,,,,0,0,0,0,0,4,4,4,0,0,0,0,,,,,,,,,0,0,0,0,0,3,3,3,,,,,,,,,,,,,,,,,,,,,,,,,,,,,,,,,,,,,,,,,,,,,,,,613.6119414619998,623.2290860269995,,,,,,,,,,,,,,,,,,,,,,,,,,,,,,,,,,,,,,,,,,,,,,,,,,,,,,,,,,,,,,,,,,,,110821,0,3,0,3,1,1,2,0,30,2021_Nov_08_1143,listening_fmri,3.2.4,59.94919545482394,
4,parcelated_audio/34/34_5.ogg,,,,,,,,,0,0,0,0,0,4,4,4,0,0,0,0,,,,,,,,,0,0,0,0,0,4,4,4,,,,,,,,,,,,,,,,,,,,,,,,,,,,,,,,,,,,,,,,,,,,,,,,623.2294470329998,633.6453701569999,,,,,,,,,,,,,,,,,,,,,,,,,,,,,,,,,,,,,,,,,,,,,,,,,,,,,,,,,,,,,,,,,,,,110821,0,3,0,3,1,1,2,0,30,2021_Nov_08_1143,listening_fmri,3.2.4,59.94919545482394,
4,parcelated_audio/34/34_6.ogg,,,,,,,,,0,0,0,0,0,4,4,4,0,0,0,0,,,,,,,,,0,0,0,0,0,5,5,5,,,,,,,,,,,,,,,,,,,,,,,,,,,,,,,,,,,,,,,,,,,,,,,,633.6457324639996,642.3512606929999,,,,,,,,,,,,,,,,,,,,,,,,,,,,,,,,,,,,,,,,,,,,,,,,,,,,,,,,,,,,,,,,,,,,110821,0,3,0,3,1,1,2,0,30,2021_Nov_08_1143,listening_fmri,3.2.4,59.94919545482394,
4,parcelated_audio/34/34_7.ogg,,,,,,,,,0,0,0,0,0,4,4,4,0,0,0,0,,,,,,,,,0,0,0,0,0,6,6,6,,,,,,,,,,,,,,,,,,,,,,,,,,,,,,,,,,,,,,,,,,,,,,,,642.3516162859996,648.3503640429999,,,,,,,,,,,,,,,,,,,,,,,,,,,,,,,,,,,,,,,,,,,,,,,,,,,,,,,,,,,,,,,,,,,,110821,0,3,0,3,1,1,2,0,30,2021_Nov_08_1143,listening_fmri,3.2.4,59.94919545482394,
4,parcelated_audio/34/34_8.ogg,,,,,,,,,0,0,0,0,0,4,4,4,0,0,0,0,,,,,,,,,0,0,0,0,0,7,7,7,,,,,,,,,,,,,,,,,,,,,,,,,,,,,,,,,,,,,,,,,,,,,,,,648.3507707939998,656.3246918409995,,,,,,,,,,,,,,,,,,,,,,,,,,,,,,,,,,,,,,,,,,,,,,,,,,,,,,,,,,,,,,,,,,,,110821,0,3,0,3,1,1,2,0,30,2021_Nov_08_1143,listening_fmri,3.2.4,59.94919545482394,
4,parcelated_audio/34/34_9.ogg,,,,,,,,,0,0,0,0,0,4,4,4,0,0,0,0,,,,,,,,,0,0,0,0,0,8,8,8,,,,,,,,,,,,,,,,,,,,,,,,,,,,,,,,,,,,,,,,,,,,,,,,656.3250429479995,661.1098123729998,,,,,,,,,,,,,,,,,,,,,,,,,,,,,,,,,,,,,,,,,,,,,,,,,,,,,,,,,,,,,,,,,,,,110821,0,3,0,3,1,1,2,0,30,2021_Nov_08_1143,listening_fmri,3.2.4,59.94919545482394,
4,parcelated_audio/34/34_10.ogg,,,,,,,,,0,0,0,0,0,4,4,4,0,0,0,0,,,,,,,,,0,0,0,0,0,9,9,9,,,,,,,,,,,,,,,,,,,,,,,,,,,,,,,,,,,,,,,,,,,,,,,,661.110176313,668.2150540899993,,,,,,,,,,,,,,,,,,,,,,,,,,,,,,,,,,,,,,,,,,,,,,,,,,,,,,,,,,,,,,,,,,,,110821,0,3,0,3,1,1,2,0,30,2021_Nov_08_1143,listening_fmri,3.2.4,59.94919545482394,
4,parcelated_audio/34/34_11.ogg,,,,,,,,,0,0,0,0,0,4,4,4,0,0,0,0,,,,,,,,,0,0,0,0,0,10,10,10,,,,,,,,,,,,,,,,,,,,,,,,,,,,,,,,,,,,,,,,,,,,,,,,668.2155177240002,671.6535906509998,,,,,,,,,,,,,,,,,,,,,,,,,,,,,,,,,,,,,,,,,,,,,,,,,,,,,,,,,,,,,,,,,,,,110821,0,3,0,3,1,1,2,0,30,2021_Nov_08_1143,listening_fmri,3.2.4,59.94919545482394,
4,parcelated_audio/34/34_12.ogg,,,,,,,,,0,0,0,0,0,4,4,4,0,0,0,0,,,,,,,,,0,0,0,0,0,11,11,11,,,,,,,,,,,,,,,,,,,,,,,,,,,,,,,,,,,,,,,,,,,,,,,,671.6540762099994,679.9012133879996,,,,,,,,,,,,,,,,,,,,,,,,,,,,,,,,,,,,,,,,,,,,,,,,,,,,,,,,,,,,,,,,,,,,110821,0,3,0,3,1,1,2,0,30,2021_Nov_08_1143,listening_fmri,3.2.4,59.94919545482394,
4,parcelated_audio/34/34_13.ogg,,,,,,,,,0,0,0,0,0,4,4,4,0,0,0,0,,,,,,,,,0,0,0,0,0,12,12,12,,,,,,,,,,,,,,,,,,,,,,,,,,,,,,,,,,,,,,,,,,,,,,,,679.9016786359998,683.8001195059996,,,,,,,,,,,,,,,,,,,,,,,,,,,,,,,,,,,,,,,,,,,,,,,,,,,,,,,,,,,,,,,,,,,,110821,0,3,0,3,1,1,2,0,30,2021_Nov_08_1143,listening_fmri,3.2.4,59.94919545482394,
4,parcelated_audio/34/34_14.ogg,,,,,,,,,0,0,0,0,0,4,4,4,0,0,0,0,,,,,,,,,0,0,0,0,0,13,13,13,,,,,,,,,,,,,,,,,,,,,,,,,,,,,,,,,,,,,,,,,,,,,,,,683.8004714039998,688.4452014609997,,,,,,,,,,,,,,,,,,,,,,,,,,,,,,,,,,,,,,,,,,,,,,,,,,,,,,,,,,,,,,,,,,,,110821,0,3,0,3,1,1,2,0,30,2021_Nov_08_1143,listening_fmri,3.2.4,59.94919545482394,
4,parcelated_audio/34/34_15.ogg,,,,,,,,,0,0,0,0,0,4,4,4,0,0,0,0,,,,,,,,,0,0,0,0,0,14,14,14,,,,,,,,,,,,,,,,,,,,,,,,,,,,,,,,,,,,,,,,,,,,,,,,688.4455584489997,692.6372314689997,,,,,,,,,,,,,,,,,,,,,,,,,,,,,,,,,,,,,,,,,,,,,,,,,,,,,,,,,,,,,,,,,,,,110821,0,3,0,3,1,1,2,0,30,2021_Nov_08_1143,listening_fmri,3.2.4,59.94919545482394,
4,parcelated_audio/34/34_16.ogg,,,,,,,,,0,0,0,0,0,4,4,4,0,0,0,0,,,,,,,,,0,0,0,0,0,15,15,15,,,,,,,,,,,,,,,,,,,,,,,,,,,,,,,,,,,,,,,,,,,,,,,,692.6375993719994,705.6425611260001,,,,,,,,,,,,,,,,,,,,,,,,,,,,,,,,,,,,,,,,,,,,,,,,,,,,,,,,,,,,,,,,,,,,110821,0,3,0,3,1,1,2,0,30,2021_Nov_08_1143,listening_fmri,3.2.4,59.94919545482394,
4,parcelated_audio/34/34_17.ogg,,,,,,,,,0,0,0,0,0,4,4,4,0,0,0,0,,,,,,,,,0,0,0,0,0,16,16,16,,,,,,,,,,,,,,,,,,,,,,,,,,,,,,,,,,,,,,,,,,,,,,,,705.6429115339997,714.5731306970001,,,,,,,,,,,,,,,,,,,,,,,,,,,,,,,,,,,,,,,,,,,,,,,,,,,,,,,,,,,,,,,,,,,,110821,0,3,0,3,1,1,2,0,30,2021_Nov_08_1143,listening_fmri,3.2.4,59.94919545482394,
4,parcelated_audio/34/34_18.ogg,,,,,,,,,0,0,0,0,0,4,4,4,0,0,0,0,,,,,,,,,0,0,0,0,0,17,17,17,,,,,,,,,,,,,,,,,,,,,,,,,,,,,,,,,,,,,,,,,,,,,,,,714.5735839149993,720.4631504669997,,,,,,,,,,,,,,,,,,,,,,,,,,,,,,,,,,,,,,,,,,,,,,,,,,,,,,,,,,,,,,,,,,,,110821,0,3,0,3,1,1,2,0,30,2021_Nov_08_1143,listening_fmri,3.2.4,59.94919545482394,
4,parcelated_audio/34/34_19.ogg,,,,,,,,,0,0,0,0,0,4,4,4,0,0,0,0,,,,,,,,,0,0,0,0,0,18,18,18,,,,,,,,,,,,,,,,,,,,,,,,,,,,,,,,,,,,,,,,,,,,,,,,720.4635532799994,726.6767435399997,,,,,,,,,,,,,,,,,,,,,,,,,,,,,,,,,,,,,,,,,,,,,,,,,,,,,,,,,,,,,,,,,,,,110821,0,3,0,3,1,1,2,0,30,2021_Nov_08_1143,listening_fmri,3.2.4,59.94919545482394,
4,parcelated_audio/34/34_20.ogg,,,,,,,,,0,0,0,0,0,4,4,4,0,0,0,0,,,,,,,,,0,0,0,0,0,19,19,19,,,,,,,,,,,,,,,,,,,,,,,,,,,,,,,,,,,,,,,,,,,,,,,,726.6770848649994,735.1442705829995,,,,,,,,,,,,,,,,,,,,,,,,,,,,,,,,,,,,,,,,,,,,,,,,,,,,,,,,,,,,,,,,,,,,110821,0,3,0,3,1,1,2,0,30,2021_Nov_08_1143,listening_fmri,3.2.4,59.94919545482394,
4,parcelated_audio/34/34_21.ogg,,,,,,,,,0,0,0,0,0,4,4,4,0,0,0,0,,,,,,,,,0,0,0,0,0,20,20,20,,,,,,,,,,,,,,,,,,,,,,,,,,,,,,,,,,,,,,,,,,,,,,,,735.1446283759997,741.5068130849995,,,,,,,,,,,,,,,,,,,,,,,,,,,,,,,,,,,,,,,,,,,,,,,,,,,,,,,,,,,,,,,,,,,,110821,0,3,0,3,1,1,2,0,30,2021_Nov_08_1143,listening_fmri,3.2.4,59.94919545482394,
4,parcelated_audio/34/34_22.ogg,,,,,,,,,0,0,0,0,0,4,4,4,0,0,0,0,,,,,,,,,0,0,0,0,0,21,21,21,,,,,,,,,,,,,,,,,,,,,,,,,,,,,,,,,,,,,,,,,,,,,,,,741.5076987989996,746.6457191209993,,,,,,,,,,,,,,,,,,,,,,,,,,,,,,,,,,,,,,,,,,,,,,,,,,,,,,,,,,,,,,,,,,,,110821,0,3,0,3,1,1,2,0,30,2021_Nov_08_1143,listening_fmri,3.2.4,59.94919545482394,
4,parcelated_audio/34/34_23.ogg,,,,,,,,,0,0,0,0,0,4,4,4,0,0,0,0,,,,,,,,,0,0,0,0,0,22,22,22,,,,,,,,,,,,,,,,,,,,,,,,,,,,,,,,,,,,,,,,,,,,,,,,746.6465642639996,754.4399284789997,,,,,,,,,,,,,,,,,,,,,,,,,,,,,,,,,,,,,,,,,,,,,,,,,,,,,,,,,,,,,,,,,,,,110821,0,3,0,3,1,1,2,0,30,2021_Nov_08_1143,listening_fmri,3.2.4,59.94919545482394,
4,parcelated_audio/34/34_24.ogg,,,,,,,,,0,0,0,0,0,4,4,4,0,0,0,0,,,,,,,,,0,0,0,0,0,23,23,23,,,,,,,,,,,,,,,,,,,,,,,,,,,,,,,,,,,,,,,,,,,,,,,,754.4402917950001,760.2619048809993,,,,,,,,,,,,,,,,,,,,,,,,,,,,,,,,,,,,,,,,,,,,,,,,,,,,,,,,,,,,,,,,,,,,110821,0,3,0,3,1,1,2,0,30,2021_Nov_08_1143,listening_fmri,3.2.4,59.94919545482394,
4,parcelated_audio/34/34_25.ogg,,,,,,,,,0,0,0,0,0,4,4,4,0,0,0,0,,,,,,,,,0,0,0,0,0,24,24,24,,,,,,,,,,,,,,,,,,,,,,,,,,,,,,,,,,,,,,,,,,,,,,,,760.262178774,766.8270927479998,,,,,,,,,,,,,,,,,,,,,,,,,,,,,,,,,,,,,,,,,,,,,,,,,,,,,,,,,,,,,,,,,,,,110821,0,3,0,3,1,1,2,0,30,2021_Nov_08_1143,listening_fmri,3.2.4,59.94919545482394,
4,parcelated_audio/34/34_26.ogg,,,,,,,,,0,0,0,0,0,4,4,4,0,0,0,0,,,,,,,,,0,0,0,0,0,25,25,25,,,,,,,,,,,,,,,,,,,,,,,,,,,,,,,,,,,,,,,,,,,,,,,,766.8274475179996,776.4857036559997,,,,,,,,,,,,,,,,,,,,,,,,,,,,,,,,,,,,,,,,,,,,,,,,,,,,,,,,,,,,,,,,,,,,110821,0,3,0,3,1,1,2,0,30,2021_Nov_08_1143,listening_fmri,3.2.4,59.94919545482394,
4,parcelated_audio/34/34_27.ogg,,,,,,,,,0,0,0,0,0,4,4,4,0,0,0,0,,,,,,,,,0,0,0,0,0,26,26,26,,,,,,,,,,,,,,,,,,,,,,,,,,,,,,,,,,,,,,,,,,,,,,,,776.4860574979994,784.0071013500001,,,,,,,,,,,,,,,,,,,,,,,,,,,,,,,,,,,,,,,,,,,,,,,,,,,,,,,,,,,,,,,,,,,,110821,0,3,0,3,1,1,2,0,30,2021_Nov_08_1143,listening_fmri,3.2.4,59.94919545482394,
4,,,,,,,,,,0,0,0,0,0,4,4,4,0,0,0,0,,,,,,,,,0,0,0,0,,,,,,,,,,,,,,,,,,,,,,,,,,,,,,,,,,,,,,,,,,,,,,,,,,,,,,,,,,,,,,,,,,,,,,,,,,,,,,,,,,,,,,,,,,,,,,,,,,,,,,,,,,,,,,,,,,,,,,,,,110821,0,3,0,3,1,1,2,0,30,2021_Nov_08_1143,listening_fmri,3.2.4,59.94919545482394,
4,,,,,,,,,,0,0,0,0,0,4,4,4,0,0,0,0,,,,,,,,,,,,,,,,,,,,,,,,,,,,,,,,,,,,,,,,,,784.007601235,789.9956119549997,845.6131232529997,None,,,,,,,,,,,,,,,,,,,,,851.6136156980001,None,851.6136156980001,None,,,,,,,,,,,,,,,,,,,,,,,,,,,,,,,,,,,,,,,,,,,,,,,,,,,,,,,,,,,,,,,,110821,0,3,0,3,1,1,2,0,30,2021_Nov_08_1143,listening_fmri,3.2.4,59.94919545482394,
4,,,,,,,,,,0,0,0,0,0,4,4,4,,,,,,,,,,,,,,,,,,,,,,,,,,,,,,,,,,,,,,,,,,,,,,,,,,,,,,,,,,,,,,,,,,,,,,,,,,,,,,,,,,,,,,,,,,,,,,,,,,,,,,,,,,,,,,,,,,,,,,,,,,,,,,,,,,,,,,,,,110821,0,3,0,3,1,1,2,0,30,2021_Nov_08_1143,listening_fmri,3.2.4,59.94919545482394,
5,,,,,,,,,,0,0,0,0,0,5,5,5,0,0,0,0,0,0,0,0,,,,,,,,,,,,,,,,,0,0,0,0,,,,,,,,,,,,,,,,,,,,,,852.6399563519999,None,852.6399563519999,None,2,1.8644435560008787,852.6399563519999,None,852.6399563519999,None,,,,,,,,,,,,,,,854.5299630380005,None,2,1.5545898010004748,854.5299630380005,None,854.5299630380005,None,856.1400116819996,None,856.1400116819996,None,856.1400116819996,None,2,4.1865571979997185,856.1400116819996,None,860.3570651079999,None,2,1.882351985999776,860.3570651079999,None,860.3570651079999,None,862.3960805039997,None,862.3960805039997,None,862.3960805039997,None,862.3960805039997,None,862.3960805039997,None,862.3960805039997,None,862.3960805039997,None,None,862.3960805039997,None,,,,,,,,,,,,,,,,,,,,,110821,0,3,0,3,1,1,2,0,30,2021_Nov_08_1143,listening_fmri,3.2.4,59.94919545482394,
5,,,,,,,,,,0,0,0,0,0,5,5,5,0,0,0,0,0,0,0,0,,,,,,,,,,,,,,,,,,,,,,,,,,,,,,,,,,,,,,,,,,,,,,,,,,,,,,,,,,,,,,,,,,,,,,,,,,,,,,,,,,,,,,,,,,,,,,,,,,,,,,,,,,,,,887.9899840170001,None,2,0.8455917279998175,887.9899840170001,None,887.9899840170001,None,888.8800230119996,None,888.8800230119996,None,888.8800230119996,None,2,0.7635181840005316,888.8800230119996,None,,,110821,0,3,0,3,1,1,2,0,30,2021_Nov_08_1143,listening_fmri,3.2.4,59.94919545482394,
5,parcelated_audio/43/43_1.ogg,,,,,,,,,0,0,0,0,0,5,5,5,0,0,0,0,,,,,,,,,0,0,0,0,0,0,0,0,,,,,,,,,,,,,,,,,,,,,,,,,,,,,,,,,,,,,,,,889.6638592939998,None,2,0.9936778179999237,889.6638592939998,None,829.0799435839999,832.0875521279995,832.096403087,839.6770180359999,,,,,,,,,,,,,,,,,,,,,,,,,,,,,,,,,,,,,,,,,,,,,,,,,,,,,,,,,,,,,,,,,,,,110821,0,3,0,3,1,1,2,0,30,2021_Nov_08_1143,listening_fmri,3.2.4,59.94919545482394,
5,parcelated_audio/43/43_2.ogg,,,,,,,,,0,0,0,0,0,5,5,5,0,0,0,0,,,,,,,,,0,0,0,0,0,1,1,1,,,,,,,,,,,,,,,,,,,,,,,,,,,,,,,,,,,,,,,,,,,,,,,,839.6773799519997,843.4526640069998,,,,,,,,,,,,,,,,,,,,,,,,,,,,,,,,,,,,,,,,,,,,,,,,,,,,,,,,,,,,,,,,,,,,110821,0,3,0,3,1,1,2,0,30,2021_Nov_08_1143,listening_fmri,3.2.4,59.94919545482394,
5,parcelated_audio/43/43_3.ogg,,,,,,,,,0,0,0,0,0,5,5,5,0,0,0,0,,,,,,,,,0,0,0,0,0,2,2,2,,,,,,,,,,,,,,,,,,,,,,,,,,,,,,,,,,,,,,,,,,,,,,,,843.4529843379996,852.3302691239996,,,,,,,,,,,,,,,,,,,,,,,,,,,,,,,,,,,,,,,,,,,,,,,,,,,,,,,,,,,,,,,,,,,,110821,0,3,0,3,1,1,2,0,30,2021_Nov_08_1143,listening_fmri,3.2.4,59.94919545482394,
5,parcelated_audio/43/43_4.ogg,,,,,,,,,0,0,0,0,0,5,5,5,0,0,0,0,,,,,,,,,0,0,0,0,0,3,3,3,,,,,,,,,,,,,,,,,,,,,,,,,,,,,,,,,,,,,,,,,,,,,,,,852.3306331879994,860.8430907900001,,,,,,,,,,,,,,,,,,,,,,,,,,,,,,,,,,,,,,,,,,,,,,,,,,,,,,,,,,,,,,,,,,,,110821,0,3,0,3,1,1,2,0,30,2021_Nov_08_1143,listening_fmri,3.2.4,59.94919545482394,
5,parcelated_audio/43/43_5.ogg,,,,,,,,,0,0,0,0,0,5,5,5,0,0,0,0,,,,,,,,,0,0,0,0,0,4,4,4,,,,,,,,,,,,,,,,,,,,,,,,,,,,,,,,,,,,,,,,,,,,,,,,860.8437457959999,870.101620599,,,,,,,,,,,,,,,,,,,,,,,,,,,,,,,,,,,,,,,,,,,,,,,,,,,,,,,,,,,,,,,,,,,,110821,0,3,0,3,1,1,2,0,30,2021_Nov_08_1143,listening_fmri,3.2.4,59.94919545482394,
5,parcelated_audio/43/43_6.ogg,,,,,,,,,0,0,0,0,0,5,5,5,0,0,0,0,,,,,,,,,0,0,0,0,0,5,5,5,,,,,,,,,,,,,,,,,,,,,,,,,,,,,,,,,,,,,,,,,,,,,,,,870.1021923569997,879.2349641820001,,,,,,,,,,,,,,,,,,,,,,,,,,,,,,,,,,,,,,,,,,,,,,,,,,,,,,,,,,,,,,,,,,,,110821,0,3,0,3,1,1,2,0,30,2021_Nov_08_1143,listening_fmri,3.2.4,59.94919545482394,
5,parcelated_audio/43/43_7.ogg,,,,,,,,,0,0,0,0,0,5,5,5,0,0,0,0,,,,,,,,,0,0,0,0,0,6,6,6,,,,,,,,,,,,,,,,,,,,,,,,,,,,,,,,,,,,,,,,,,,,,,,,879.2354739829998,884.0186113169993,,,,,,,,,,,,,,,,,,,,,,,,,,,,,,,,,,,,,,,,,,,,,,,,,,,,,,,,,,,,,,,,,,,,110821,0,3,0,3,1,1,2,0,30,2021_Nov_08_1143,listening_fmri,3.2.4,59.94919545482394,
5,parcelated_audio/43/43_8.ogg,,,,,,,,,0,0,0,0,0,5,5,5,0,0,0,0,,,,,,,,,0,0,0,0,0,7,7,7,,,,,,,,,,,,,,,,,,,,,,,,,,,,,,,,,,,,,,,,,,,,,,,,884.018929285,890.579051922,,,,,,,,,,,,,,,,,,,,,,,,,,,,,,,,,,,,,,,,,,,,,,,,,,,,,,,,,,,,,,,,,,,,110821,0,3,0,3,1,1,2,0,30,2021_Nov_08_1143,listening_fmri,3.2.4,59.94919545482394,
5,parcelated_audio/43/43_9.ogg,,,,,,,,,0,0,0,0,0,5,5,5,0,0,0,0,,,,,,,,,0,0,0,0,0,8,8,8,,,,,,,,,,,,,,,,,,,,,,,,,,,,,,,,,,,,,,,,,,,,,,,,890.5795283419993,895.1011947739999,,,,,,,,,,,,,,,,,,,,,,,,,,,,,,,,,,,,,,,,,,,,,,,,,,,,,,,,,,,,,,,,,,,,110821,0,3,0,3,1,1,2,0,30,2021_Nov_08_1143,listening_fmri,3.2.4,59.94919545482394,
5,parcelated_audio/43/43_10.ogg,,,,,,,,,0,0,0,0,0,5,5,5,0,0,0,0,,,,,,,,,0,0,0,0,0,9,9,9,,,,,,,,,,,,,,,,,,,,,,,,,,,,,,,,,,,,,,,,,,,,,,,,895.1015471219998,899.9923666539999,,,,,,,,,,,,,,,,,,,,,,,,,,,,,,,,,,,,,,,,,,,,,,,,,,,,,,,,,,,,,,,,,,,,110821,0,3,0,3,1,1,2,0,30,2021_Nov_08_1143,listening_fmri,3.2.4,59.94919545482394,
5,parcelated_audio/43/43_11.ogg,,,,,,,,,0,0,0,0,0,5,5,5,0,0,0,0,,,,,,,,,0,0,0,0,0,10,10,10,,,,,,,,,,,,,,,,,,,,,,,,,,,,,,,,,,,,,,,,,,,,,,,,899.9930078179996,911.0349239789994,,,,,,,,,,,,,,,,,,,,,,,,,,,,,,,,,,,,,,,,,,,,,,,,,,,,,,,,,,,,,,,,,,,,110821,0,3,0,3,1,1,2,0,30,2021_Nov_08_1143,listening_fmri,3.2.4,59.94919545482394,
5,parcelated_audio/43/43_12.ogg,,,,,,,,,0,0,0,0,0,5,5,5,0,0,0,0,,,,,,,,,0,0,0,0,0,11,11,11,,,,,,,,,,,,,,,,,,,,,,,,,,,,,,,,,,,,,,,,,,,,,,,,911.0352911729997,917.1197926649993,,,,,,,,,,,,,,,,,,,,,,,,,,,,,,,,,,,,,,,,,,,,,,,,,,,,,,,,,,,,,,,,,,,,110821,0,3,0,3,1,1,2,0,30,2021_Nov_08_1143,listening_fmri,3.2.4,59.94919545482394,
5,parcelated_audio/43/43_13.ogg,,,,,,,,,0,0,0,0,0,5,5,5,0,0,0,0,,,,,,,,,0,0,0,0,0,12,12,12,,,,,,,,,,,,,,,,,,,,,,,,,,,,,,,,,,,,,,,,,,,,,,,,917.1201065619998,925.3602810659995,,,,,,,,,,,,,,,,,,,,,,,,,,,,,,,,,,,,,,,,,,,,,,,,,,,,,,,,,,,,,,,,,,,,110821,0,3,0,3,1,1,2,0,30,2021_Nov_08_1143,listening_fmri,3.2.4,59.94919545482394,
5,parcelated_audio/43/43_14.ogg,,,,,,,,,0,0,0,0,0,5,5,5,0,0,0,0,,,,,,,,,0,0,0,0,0,13,13,13,,,,,,,,,,,,,,,,,,,,,,,,,,,,,,,,,,,,,,,,,,,,,,,,925.360823002,933.8950996379999,,,,,,,,,,,,,,,,,,,,,,,,,,,,,,,,,,,,,,,,,,,,,,,,,,,,,,,,,,,,,,,,,,,,110821,0,3,0,3,1,1,2,0,30,2021_Nov_08_1143,listening_fmri,3.2.4,59.94919545482394,
5,parcelated_audio/43/43_15.ogg,,,,,,,,,0,0,0,0,0,5,5,5,0,0,0,0,,,,,,,,,0,0,0,0,0,14,14,14,,,,,,,,,,,,,,,,,,,,,,,,,,,,,,,,,,,,,,,,,,,,,,,,933.8955664189998,938.2349706539999,,,,,,,,,,,,,,,,,,,,,,,,,,,,,,,,,,,,,,,,,,,,,,,,,,,,,,,,,,,,,,,,,,,,110821,0,3,0,3,1,1,2,0,30,2021_Nov_08_1143,listening_fmri,3.2.4,59.94919545482394,
5,parcelated_audio/43/43_16.ogg,,,,,,,,,0,0,0,0,0,5,5,5,0,0,0,0,,,,,,,,,0,0,0,0,0,15,15,15,,,,,,,,,,,,,,,,,,,,,,,,,,,,,,,,,,,,,,,,,,,,,,,,938.2355675989993,942.7602905599997,,,,,,,,,,,,,,,,,,,,,,,,,,,,,,,,,,,,,,,,,,,,,,,,,,,,,,,,,,,,,,,,,,,,110821,0,3,0,3,1,1,2,0,30,2021_Nov_08_1143,listening_fmri,3.2.4,59.94919545482394,
5,parcelated_audio/43/43_17.ogg,,,,,,,,,0,0,0,0,0,5,5,5,0,0,0,0,,,,,,,,,0,0,0,0,0,16,16,16,,,,,,,,,,,,,,,,,,,,,,,,,,,,,,,,,,,,,,,,,,,,,,,,942.7607482140002,946.6110546049995,,,,,,,,,,,,,,,,,,,,,,,,,,,,,,,,,,,,,,,,,,,,,,,,,,,,,,,,,,,,,,,,,,,,110821,0,3,0,3,1,1,2,0,30,2021_Nov_08_1143,listening_fmri,3.2.4,59.94919545482394,
5,parcelated_audio/43/43_18.ogg,,,,,,,,,0,0,0,0,0,5,5,5,0,0,0,0,,,,,,,,,0,0,0,0,0,17,17,17,,,,,,,,,,,,,,,,,,,,,,,,,,,,,,,,,,,,,,,,,,,,,,,,946.6114120889997,948.8100945209999,,,,,,,,,,,,,,,,,,,,,,,,,,,,,,,,,,,,,,,,,,,,,,,,,,,,,,,,,,,,,,,,,,,,110821,0,3,0,3,1,1,2,0,30,2021_Nov_08_1143,listening_fmri,3.2.4,59.94919545482394,
5,parcelated_audio/43/43_19.ogg,,,,,,,,,0,0,0,0,0,5,5,5,0,0,0,0,,,,,,,,,0,0,0,0,0,18,18,18,,,,,,,,,,,,,,,,,,,,,,,,,,,,,,,,,,,,,,,,,,,,,,,,948.810667146,952.4456960689995,,,,,,,,,,,,,,,,,,,,,,,,,,,,,,,,,,,,,,,,,,,,,,,,,,,,,,,,,,,,,,,,,,,,110821,0,3,0,3,1,1,2,0,30,2021_Nov_08_1143,listening_fmri,3.2.4,59.94919545482394,
5,parcelated_audio/43/43_20.ogg,,,,,,,,,0,0,0,0,0,5,5,5,0,0,0,0,,,,,,,,,0,0,0,0,0,19,19,19,,,,,,,,,,,,,,,,,,,,,,,,,,,,,,,,,,,,,,,,,,,,,,,,952.446048281,959.6232852529993,,,,,,,,,,,,,,,,,,,,,,,,,,,,,,,,,,,,,,,,,,,,,,,,,,,,,,,,,,,,,,,,,,,,110821,0,3,0,3,1,1,2,0,30,2021_Nov_08_1143,listening_fmri,3.2.4,59.94919545482394,
5,parcelated_audio/43/43_21.ogg,,,,,,,,,0,0,0,0,0,5,5,5,0,0,0,0,,,,,,,,,0,0,0,0,0,20,20,20,,,,,,,,,,,,,,,,,,,,,,,,,,,,,,,,,,,,,,,,,,,,,,,,959.6238699309997,962.0891930389998,,,,,,,,,,,,,,,,,,,,,,,,,,,,,,,,,,,,,,,,,,,,,,,,,,,,,,,,,,,,,,,,,,,,110821,0,3,0,3,1,1,2,0,30,2021_Nov_08_1143,listening_fmri,3.2.4,59.94919545482394,
5,parcelated_audio/43/43_22.ogg,,,,,,,,,0,0,0,0,0,5,5,5,0,0,0,0,,,,,,,,,0,0,0,0,0,21,21,21,,,,,,,,,,,,,,,,,,,,,,,,,,,,,,,,,,,,,,,,,,,,,,,,962.0897560789999,965.4951902029998,,,,,,,,,,,,,,,,,,,,,,,,,,,,,,,,,,,,,,,,,,,,,,,,,,,,,,,,,,,,,,,,,,,,110821,0,3,0,3,1,1,2,0,30,2021_Nov_08_1143,listening_fmri,3.2.4,59.94919545482394,
5,parcelated_audio/43/43_23.ogg,,,,,,,,,0,0,0,0,0,5,5,5,0,0,0,0,,,,,,,,,0,0,0,0,0,22,22,22,,,,,,,,,,,,,,,,,,,,,,,,,,,,,,,,,,,,,,,,,,,,,,,,965.4957892879993,971.5371883509997,,,,,,,,,,,,,,,,,,,,,,,,,,,,,,,,,,,,,,,,,,,,,,,,,,,,,,,,,,,,,,,,,,,,110821,0,3,0,3,1,1,2,0,30,2021_Nov_08_1143,listening_fmri,3.2.4,59.94919545482394,
5,parcelated_audio/43/43_24.ogg,,,,,,,,,0,0,0,0,0,5,5,5,0,0,0,0,,,,,,,,,0,0,0,0,0,23,23,23,,,,,,,,,,,,,,,,,,,,,,,,,,,,,,,,,,,,,,,,,,,,,,,,971.537754809,977.8828893769996,,,,,,,,,,,,,,,,,,,,,,,,,,,,,,,,,,,,,,,,,,,,,,,,,,,,,,,,,,,,,,,,,,,,110821,0,3,0,3,1,1,2,0,30,2021_Nov_08_1143,listening_fmri,3.2.4,59.94919545482394,
5,parcelated_audio/43/43_25.ogg,,,,,,,,,0,0,0,0,0,5,5,5,0,0,0,0,,,,,,,,,0,0,0,0,0,24,24,24,,,,,,,,,,,,,,,,,,,,,,,,,,,,,,,,,,,,,,,,,,,,,,,,977.883245125,982.9353955589995,,,,,,,,,,,,,,,,,,,,,,,,,,,,,,,,,,,,,,,,,,,,,,,,,,,,,,,,,,,,,,,,,,,,110821,0,3,0,3,1,1,2,0,30,2021_Nov_08_1143,listening_fmri,3.2.4,59.94919545482394,
5,parcelated_audio/43/43_26.ogg,,,,,,,,,0,0,0,0,0,5,5,5,0,0,0,0,,,,,,,,,0,0,0,0,0,25,25,25,,,,,,,,,,,,,,,,,,,,,,,,,,,,,,,,,,,,,,,,,,,,,,,,982.9359071589997,991.5081172319997,,,,,,,,,,,,,,,,,,,,,,,,,,,,,,,,,,,,,,,,,,,,,,,,,,,,,,,,,,,,,,,,,,,,110821,0,3,0,3,1,1,2,0,30,2021_Nov_08_1143,listening_fmri,3.2.4,59.94919545482394,
5,parcelated_audio/43/43_27.ogg,,,,,,,,,0,0,0,0,0,5,5,5,0,0,0,0,,,,,,,,,0,0,0,0,0,26,26,26,,,,,,,,,,,,,,,,,,,,,,,,,,,,,,,,,,,,,,,,,,,,,,,,991.5084508889995,995.9109395959995,,,,,,,,,,,,,,,,,,,,,,,,,,,,,,,,,,,,,,,,,,,,,,,,,,,,,,,,,,,,,,,,,,,,110821,0,3,0,3,1,1,2,0,30,2021_Nov_08_1143,listening_fmri,3.2.4,59.94919545482394,
5,parcelated_audio/43/43_28.ogg,,,,,,,,,0,0,0,0,0,5,5,5,0,0,0,0,,,,,,,,,0,0,0,0,0,27,27,27,,,,,,,,,,,,,,,,,,,,,,,,,,,,,,,,,,,,,,,,,,,,,,,,995.911244983,1000.9004554769999,,,,,,,,,,,,,,,,,,,,,,,,,,,,,,,,,,,,,,,,,,,,,,,,,,,,,,,,,,,,,,,,,,,,110821,0,3,0,3,1,1,2,0,30,2021_Nov_08_1143,listening_fmri,3.2.4,59.94919545482394,
5,parcelated_audio/43/43_29.ogg,,,,,,,,,0,0,0,0,0,5,5,5,0,0,0,0,,,,,,,,,0,0,0,0,0,28,28,28,,,,,,,,,,,,,,,,,,,,,,,,,,,,,,,,,,,,,,,,,,,,,,,,1000.9015665939996,1007.05178007,,,,,,,,,,,,,,,,,,,,,,,,,,,,,,,,,,,,,,,,,,,,,,,,,,,,,,,,,,,,,,,,,,,,110821,0,3,0,3,1,1,2,0,30,2021_Nov_08_1143,listening_fmri,3.2.4,59.94919545482394,
5,,,,,,,,,,0,0,0,0,0,5,5,5,0,0,0,0,,,,,,,,,0,0,0,0,,,,,,,,,,,,,,,,,,,,,,,,,,,,,,,,,,,,,,,,,,,,,,,,,,,,,,,,,,,,,,,,,,,,,,,,,,,,,,,,,,,,,,,,,,,,,,,,,,,,,,,,,,,,,,,,,,,,,,,,,110821,0,3,0,3,1,1,2,0,30,2021_Nov_08_1143,listening_fmri,3.2.4,59.94919545482394,
5,,,,,,,,,,0,0,0,0,0,5,5,5,0,0,0,0,,,,,,,,,,,,,,,,,,,,,,,,,,,,,,,,,,,,,,,,,,1007.0522772919994,1013.0461324979997,1068.6642011209997,None,,,,,,,,,,,,,,,,,,,,,1074.664283813,None,1074.664283813,None,,,,,,,,,,,,,,,,,,,,,,,,,,,,,,,,,,,,,,,,,,,,,,,,,,,,,,,,,,,,,,,,110821,0,3,0,3,1,1,2,0,30,2021_Nov_08_1143,listening_fmri,3.2.4,59.94919545482394,
5,,,,,,,,,,0,0,0,0,0,5,5,5,,,,,,,,,,,,,,,,,,,,,,,,,,,,,,,,,,,,,,,,,,,,,,,,,,,,,,,,,,,,,,,,,,,,,,,,,,,,,,,,,,,,,,,,,,,,,,,,,,,,,,,,,,,,,,,,,,,,,,,,,,,,,,,,,,,,,,,,,110821,0,3,0,3,1,1,2,0,30,2021_Nov_08_1143,listening_fmri,3.2.4,59.94919545482394,
6,,,,,,,,,,0,0,0,0,0,6,6,6,0,0,0,0,0,0,0,0,,,,,,,,,,,,,,,,,0,0,0,0,,,,,,,,,,,,,,,,,,,,,,1075.6965829230003,None,1075.6965829230003,None,8,1.2479454439999245,1075.6965829230003,None,1075.6965829230003,None,,,,,,,,,,,,,,,1076.9633048169999,None,8,1.1831204299996898,1076.9633048169999,None,1076.9633048169999,None,1078.1796993870003,None,1078.1796993870003,None,1078.1796993870003,None,8,1.3957240330000786,1078.1796993870003,None,1079.5966386,None,8,0.7177997210001195,1079.5966386,None,1079.5966386,None,1080.42941634,None,1080.42941634,None,1080.42941634,None,1080.42941634,None,1080.42941634,None,1080.42941634,None,1080.42941634,None,None,1080.42941634,None,,,,,,,,,,,,,,,,,,,,,110821,0,3,0,3,1,1,2,0,30,2021_Nov_08_1143,listening_fmri,3.2.4,59.94919545482394,
6,,,,,,,,,,0,0,0,0,0,6,6,6,0,0,0,0,0,0,0,0,,,,,,,,,,,,,,,,,1,0,1,0,,,,,,,,,,,,,,,,,,,,,,,,,,,,,,,,,,,,,,,,,,,,,,,,,,,,,,1100.1804379699997,None,1100.1804379699997,None,1100.1804379699997,None,2,0.6231049239995627,1100.1804379699997,None,1100.8303286760001,None,2,0.5282367580002756,1100.8303286760001,None,1100.8303286760001,None,1101.480574839,None,1101.480574839,None,1101.480574839,None,1101.480574839,None,1101.480574839,None,1101.480574839,None,1101.480574839,None,None,1101.480574839,None,,,,,,,,,,,,,,,,,,,,,110821,0,3,0,3,1,1,2,0,30,2021_Nov_08_1143,listening_fmri,3.2.4,59.94919545482394,
6,,,,,,,,,,0,0,0,0,0,6,6,6,0,0,0,0,0,0,0,0,,,,,,,,,,,,,,,,,,,,,,,,,,,,,,,,,,,,,,,,,,,,,,,,,,,,,,,,,,,,,,,,,,,,,,,,,,,,,,,,,,,,,,,,,,,,,,,,,,,,,,,,,,,,,1128.7632332829999,None,2,1.453351515999202,1128.7632332829999,None,1128.7632332829999,None,1130.264228741,None,1130.264228741,None,1130.264228741,None,2,0.7312310060005984,1130.264228741,None,,,110821,0,3,0,3,1,1,2,0,30,2021_Nov_08_1143,listening_fmri,3.2.4,59.94919545482394,
6,parcelated_audio/12/12_1.ogg,,,,,,,,,0,0,0,0,0,6,6,6,0,0,0,0,,,,,,,,,0,0,0,0,0,0,0,0,,,,,,,,,,,,,,,,,,,,,,,,,,,,,,,,,,,,,,,,1131.013323266,None,3,1.4262226339997142,1131.013323266,None,1070.8542021079993,1073.8628357389998,1073.872420023,1083.7239237519998,,,,,,,,,,,,,,,,,,,,,,,,,,,,,,,,,,,,,,,,,,,,,,,,,,,,,,,,,,,,,,,,,,,,110821,0,3,0,3,1,1,2,0,30,2021_Nov_08_1143,listening_fmri,3.2.4,59.94919545482394,
6,parcelated_audio/12/12_2.ogg,,,,,,,,,0,0,0,0,0,6,6,6,0,0,0,0,,,,,,,,,0,0,0,0,0,1,1,1,,,,,,,,,,,,,,,,,,,,,,,,,,,,,,,,,,,,,,,,,,,,,,,,1083.724686349,1091.4740300419999,,,,,,,,,,,,,,,,,,,,,,,,,,,,,,,,,,,,,,,,,,,,,,,,,,,,,,,,,,,,,,,,,,,,110821,0,3,0,3,1,1,2,0,30,2021_Nov_08_1143,listening_fmri,3.2.4,59.94919545482394,
6,parcelated_audio/12/12_3.ogg,,,,,,,,,0,0,0,0,0,6,6,6,0,0,0,0,,,,,,,,,0,0,0,0,0,2,2,2,,,,,,,,,,,,,,,,,,,,,,,,,,,,,,,,,,,,,,,,,,,,,,,,1091.4743881449995,1098.8273000179997,,,,,,,,,,,,,,,,,,,,,,,,,,,,,,,,,,,,,,,,,,,,,,,,,,,,,,,,,,,,,,,,,,,,110821,0,3,0,3,1,1,2,0,30,2021_Nov_08_1143,listening_fmri,3.2.4,59.94919545482394,
6,parcelated_audio/12/12_4.ogg,,,,,,,,,0,0,0,0,0,6,6,6,0,0,0,0,,,,,,,,,0,0,0,0,0,3,3,3,,,,,,,,,,,,,,,,,,,,,,,,,,,,,,,,,,,,,,,,,,,,,,,,1098.8282058179993,1105.3919860239994,,,,,,,,,,,,,,,,,,,,,,,,,,,,,,,,,,,,,,,,,,,,,,,,,,,,,,,,,,,,,,,,,,,,110821,0,3,0,3,1,1,2,0,30,2021_Nov_08_1143,listening_fmri,3.2.4,59.94919545482394,
6,parcelated_audio/12/12_5.ogg,,,,,,,,,0,0,0,0,0,6,6,6,0,0,0,0,,,,,,,,,0,0,0,0,0,4,4,4,,,,,,,,,,,,,,,,,,,,,,,,,,,,,,,,,,,,,,,,,,,,,,,,1105.3922638369995,1113.3408058539999,,,,,,,,,,,,,,,,,,,,,,,,,,,,,,,,,,,,,,,,,,,,,,,,,,,,,,,,,,,,,,,,,,,,110821,0,3,0,3,1,1,2,0,30,2021_Nov_08_1143,listening_fmri,3.2.4,59.94919545482394,
6,parcelated_audio/12/12_6.ogg,,,,,,,,,0,0,0,0,0,6,6,6,0,0,0,0,,,,,,,,,0,0,0,0,0,5,5,5,,,,,,,,,,,,,,,,,,,,,,,,,,,,,,,,,,,,,,,,,,,,,,,,1113.341693452,1116.9499318239996,,,,,,,,,,,,,,,,,,,,,,,,,,,,,,,,,,,,,,,,,,,,,,,,,,,,,,,,,,,,,,,,,,,,110821,0,3,0,3,1,1,2,0,30,2021_Nov_08_1143,listening_fmri,3.2.4,59.94919545482394,
6,parcelated_audio/12/12_7.ogg,,,,,,,,,0,0,0,0,0,6,6,6,0,0,0,0,,,,,,,,,0,0,0,0,0,6,6,6,,,,,,,,,,,,,,,,,,,,,,,,,,,,,,,,,,,,,,,,,,,,,,,,1116.9502760149999,1127.2709178309997,,,,,,,,,,,,,,,,,,,,,,,,,,,,,,,,,,,,,,,,,,,,,,,,,,,,,,,,,,,,,,,,,,,,110821,0,3,0,3,1,1,2,0,30,2021_Nov_08_1143,listening_fmri,3.2.4,59.94919545482394,
6,parcelated_audio/12/12_8.ogg,,,,,,,,,0,0,0,0,0,6,6,6,0,0,0,0,,,,,,,,,0,0,0,0,0,7,7,7,,,,,,,,,,,,,,,,,,,,,,,,,,,,,,,,,,,,,,,,,,,,,,,,1127.271267532,1136.05169836,,,,,,,,,,,,,,,,,,,,,,,,,,,,,,,,,,,,,,,,,,,,,,,,,,,,,,,,,,,,,,,,,,,,110821,0,3,0,3,1,1,2,0,30,2021_Nov_08_1143,listening_fmri,3.2.4,59.94919545482394,
6,parcelated_audio/12/12_9.ogg,,,,,,,,,0,0,0,0,0,6,6,6,0,0,0,0,,,,,,,,,0,0,0,0,0,8,8,8,,,,,,,,,,,,,,,,,,,,,,,,,,,,,,,,,,,,,,,,,,,,,,,,1136.0520665559998,1139.8910389249995,,,,,,,,,,,,,,,,,,,,,,,,,,,,,,,,,,,,,,,,,,,,,,,,,,,,,,,,,,,,,,,,,,,,110821,0,3,0,3,1,1,2,0,30,2021_Nov_08_1143,listening_fmri,3.2.4,59.94919545482394,
6,parcelated_audio/12/12_10.ogg,,,,,,,,,0,0,0,0,0,6,6,6,0,0,0,0,,,,,,,,,0,0,0,0,0,9,9,9,,,,,,,,,,,,,,,,,,,,,,,,,,,,,,,,,,,,,,,,,,,,,,,,1139.8914998499995,1144.6849125620001,,,,,,,,,,,,,,,,,,,,,,,,,,,,,,,,,,,,,,,,,,,,,,,,,,,,,,,,,,,,,,,,,,,,110821,0,3,0,3,1,1,2,0,30,2021_Nov_08_1143,listening_fmri,3.2.4,59.94919545482394,
6,parcelated_audio/12/12_11.ogg,,,,,,,,,0,0,0,0,0,6,6,6,0,0,0,0,,,,,,,,,0,0,0,0,0,10,10,10,,,,,,,,,,,,,,,,,,,,,,,,,,,,,,,,,,,,,,,,,,,,,,,,1144.6855074589994,1147.5530477449993,,,,,,,,,,,,,,,,,,,,,,,,,,,,,,,,,,,,,,,,,,,,,,,,,,,,,,,,,,,,,,,,,,,,110821,0,3,0,3,1,1,2,0,30,2021_Nov_08_1143,listening_fmri,3.2.4,59.94919545482394,
6,parcelated_audio/12/12_12.ogg,,,,,,,,,0,0,0,0,0,6,6,6,0,0,0,0,,,,,,,,,0,0,0,0,0,11,11,11,,,,,,,,,,,,,,,,,,,,,,,,,,,,,,,,,,,,,,,,,,,,,,,,1147.5533991759994,1156.4118944049997,,,,,,,,,,,,,,,,,,,,,,,,,,,,,,,,,,,,,,,,,,,,,,,,,,,,,,,,,,,,,,,,,,,,110821,0,3,0,3,1,1,2,0,30,2021_Nov_08_1143,listening_fmri,3.2.4,59.94919545482394,
6,parcelated_audio/12/12_13.ogg,,,,,,,,,0,0,0,0,0,6,6,6,0,0,0,0,,,,,,,,,0,0,0,0,0,12,12,12,,,,,,,,,,,,,,,,,,,,,,,,,,,,,,,,,,,,,,,,,,,,,,,,1156.4122603939995,1161.6648914520001,,,,,,,,,,,,,,,,,,,,,,,,,,,,,,,,,,,,,,,,,,,,,,,,,,,,,,,,,,,,,,,,,,,,110821,0,3,0,3,1,1,2,0,30,2021_Nov_08_1143,listening_fmri,3.2.4,59.94919545482394,
6,parcelated_audio/12/12_14.ogg,,,,,,,,,0,0,0,0,0,6,6,6,0,0,0,0,,,,,,,,,0,0,0,0,0,13,13,13,,,,,,,,,,,,,,,,,,,,,,,,,,,,,,,,,,,,,,,,,,,,,,,,1161.6660880479994,1166.590208691,,,,,,,,,,,,,,,,,,,,,,,,,,,,,,,,,,,,,,,,,,,,,,,,,,,,,,,,,,,,,,,,,,,,110821,0,3,0,3,1,1,2,0,30,2021_Nov_08_1143,listening_fmri,3.2.4,59.94919545482394,
6,parcelated_audio/12/12_15.ogg,,,,,,,,,0,0,0,0,0,6,6,6,0,0,0,0,,,,,,,,,0,0,0,0,0,14,14,14,,,,,,,,,,,,,,,,,,,,,,,,,,,,,,,,,,,,,,,,,,,,,,,,1166.5907816909994,1172.576232415,,,,,,,,,,,,,,,,,,,,,,,,,,,,,,,,,,,,,,,,,,,,,,,,,,,,,,,,,,,,,,,,,,,,110821,0,3,0,3,1,1,2,0,30,2021_Nov_08_1143,listening_fmri,3.2.4,59.94919545482394,
6,parcelated_audio/12/12_16.ogg,,,,,,,,,0,0,0,0,0,6,6,6,0,0,0,0,,,,,,,,,0,0,0,0,0,15,15,15,,,,,,,,,,,,,,,,,,,,,,,,,,,,,,,,,,,,,,,,,,,,,,,,1172.5765849029995,1176.7678547389996,,,,,,,,,,,,,,,,,,,,,,,,,,,,,,,,,,,,,,,,,,,,,,,,,,,,,,,,,,,,,,,,,,,,110821,0,3,0,3,1,1,2,0,30,2021_Nov_08_1143,listening_fmri,3.2.4,59.94919545482394,
6,parcelated_audio/12/12_17.ogg,,,,,,,,,0,0,0,0,0,6,6,6,0,0,0,0,,,,,,,,,0,0,0,0,0,16,16,16,,,,,,,,,,,,,,,,,,,,,,,,,,,,,,,,,,,,,,,,,,,,,,,,1176.7682161599996,1181.7454030919998,,,,,,,,,,,,,,,,,,,,,,,,,,,,,,,,,,,,,,,,,,,,,,,,,,,,,,,,,,,,,,,,,,,,110821,0,3,0,3,1,1,2,0,30,2021_Nov_08_1143,listening_fmri,3.2.4,59.94919545482394,
6,parcelated_audio/12/12_18.ogg,,,,,,,,,0,0,0,0,0,6,6,6,0,0,0,0,,,,,,,,,0,0,0,0,0,17,17,17,,,,,,,,,,,,,,,,,,,,,,,,,,,,,,,,,,,,,,,,,,,,,,,,1181.7457713069998,1190.9541755569999,,,,,,,,,,,,,,,,,,,,,,,,,,,,,,,,,,,,,,,,,,,,,,,,,,,,,,,,,,,,,,,,,,,,110821,0,3,0,3,1,1,2,0,30,2021_Nov_08_1143,listening_fmri,3.2.4,59.94919545482394,
6,parcelated_audio/12/12_19.ogg,,,,,,,,,0,0,0,0,0,6,6,6,0,0,0,0,,,,,,,,,0,0,0,0,0,18,18,18,,,,,,,,,,,,,,,,,,,,,,,,,,,,,,,,,,,,,,,,,,,,,,,,1190.9546600439999,1200.9658628389998,,,,,,,,,,,,,,,,,,,,,,,,,,,,,,,,,,,,,,,,,,,,,,,,,,,,,,,,,,,,,,,,,,,,110821,0,3,0,3,1,1,2,0,30,2021_Nov_08_1143,listening_fmri,3.2.4,59.94919545482394,
6,parcelated_audio/12/12_20.ogg,,,,,,,,,0,0,0,0,0,6,6,6,0,0,0,0,,,,,,,,,0,0,0,0,0,19,19,19,,,,,,,,,,,,,,,,,,,,,,,,,,,,,,,,,,,,,,,,,,,,,,,,1200.966215931,1208.7919367639997,,,,,,,,,,,,,,,,,,,,,,,,,,,,,,,,,,,,,,,,,,,,,,,,,,,,,,,,,,,,,,,,,,,,110821,0,3,0,3,1,1,2,0,30,2021_Nov_08_1143,listening_fmri,3.2.4,59.94919545482394,
6,parcelated_audio/12/12_21.ogg,,,,,,,,,0,0,0,0,0,6,6,6,0,0,0,0,,,,,,,,,0,0,0,0,0,20,20,20,,,,,,,,,,,,,,,,,,,,,,,,,,,,,,,,,,,,,,,,,,,,,,,,1208.792286424,1214.300616476,,,,,,,,,,,,,,,,,,,,,,,,,,,,,,,,,,,,,,,,,,,,,,,,,,,,,,,,,,,,,,,,,,,,110821,0,3,0,3,1,1,2,0,30,2021_Nov_08_1143,listening_fmri,3.2.4,59.94919545482394,
6,parcelated_audio/12/12_22.ogg,,,,,,,,,0,0,0,0,0,6,6,6,0,0,0,0,,,,,,,,,0,0,0,0,0,21,21,21,,,,,,,,,,,,,,,,,,,,,,,,,,,,,,,,,,,,,,,,,,,,,,,,1214.301130975,1218.1826874099997,,,,,,,,,,,,,,,,,,,,,,,,,,,,,,,,,,,,,,,,,,,,,,,,,,,,,,,,,,,,,,,,,,,,110821,0,3,0,3,1,1,2,0,30,2021_Nov_08_1143,listening_fmri,3.2.4,59.94919545482394,
6,parcelated_audio/12/12_23.ogg,,,,,,,,,0,0,0,0,0,6,6,6,0,0,0,0,,,,,,,,,0,0,0,0,0,22,22,22,,,,,,,,,,,,,,,,,,,,,,,,,,,,,,,,,,,,,,,,,,,,,,,,1218.183051686,1225.1236399589998,,,,,,,,,,,,,,,,,,,,,,,,,,,,,,,,,,,,,,,,,,,,,,,,,,,,,,,,,,,,,,,,,,,,110821,0,3,0,3,1,1,2,0,30,2021_Nov_08_1143,listening_fmri,3.2.4,59.94919545482394,
6,parcelated_audio/12/12_24.ogg,,,,,,,,,0,0,0,0,0,6,6,6,0,0,0,0,,,,,,,,,0,0,0,0,0,23,23,23,,,,,,,,,,,,,,,,,,,,,,,,,,,,,,,,,,,,,,,,,,,,,,,,1225.1239723009994,1229.264763776,,,,,,,,,,,,,,,,,,,,,,,,,,,,,,,,,,,,,,,,,,,,,,,,,,,,,,,,,,,,,,,,,,,,110821,0,3,0,3,1,1,2,0,30,2021_Nov_08_1143,listening_fmri,3.2.4,59.94919545482394,
6,parcelated_audio/12/12_25.ogg,,,,,,,,,0,0,0,0,0,6,6,6,0,0,0,0,,,,,,,,,0,0,0,0,0,24,24,24,,,,,,,,,,,,,,,,,,,,,,,,,,,,,,,,,,,,,,,,,,,,,,,,1229.2650687019996,1239.615294913,,,,,,,,,,,,,,,,,,,,,,,,,,,,,,,,,,,,,,,,,,,,,,,,,,,,,,,,,,,,,,,,,,,,110821,0,3,0,3,1,1,2,0,30,2021_Nov_08_1143,listening_fmri,3.2.4,59.94919545482394,
6,parcelated_audio/12/12_26.ogg,,,,,,,,,0,0,0,0,0,6,6,6,0,0,0,0,,,,,,,,,0,0,0,0,0,25,25,25,,,,,,,,,,,,,,,,,,,,,,,,,,,,,,,,,,,,,,,,,,,,,,,,1239.6156300080002,1244.8461788229997,,,,,,,,,,,,,,,,,,,,,,,,,,,,,,,,,,,,,,,,,,,,,,,,,,,,,,,,,,,,,,,,,,,,110821,0,3,0,3,1,1,2,0,30,2021_Nov_08_1143,listening_fmri,3.2.4,59.94919545482394,
6,parcelated_audio/12/12_27.ogg,,,,,,,,,0,0,0,0,0,6,6,6,0,0,0,0,,,,,,,,,0,0,0,0,0,26,26,26,,,,,,,,,,,,,,,,,,,,,,,,,,,,,,,,,,,,,,,,,,,,,,,,1244.8465545660001,1252.5151944479994,,,,,,,,,,,,,,,,,,,,,,,,,,,,,,,,,,,,,,,,,,,,,,,,,,,,,,,,,,,,,,,,,,,,110821,0,3,0,3,1,1,2,0,30,2021_Nov_08_1143,listening_fmri,3.2.4,59.94919545482394,
6,parcelated_audio/12/12_28.ogg,,,,,,,,,0,0,0,0,0,6,6,6,0,0,0,0,,,,,,,,,0,0,0,0,0,27,27,27,,,,,,,,,,,,,,,,,,,,,,,,,,,,,,,,,,,,,,,,,,,,,,,,1252.5155494679993,1263.5189072949997,,,,,,,,,,,,,,,,,,,,,,,,,,,,,,,,,,,,,,,,,,,,,,,,,,,,,,,,,,,,,,,,,,,,110821,0,3,0,3,1,1,2,0,30,2021_Nov_08_1143,listening_fmri,3.2.4,59.94919545482394,
6,parcelated_audio/12/12_29.ogg,,,,,,,,,0,0,0,0,0,6,6,6,0,0,0,0,,,,,,,,,0,0,0,0,0,28,28,28,,,,,,,,,,,,,,,,,,,,,,,,,,,,,,,,,,,,,,,,,,,,,,,,1263.5192638079998,1269.5953404339998,,,,,,,,,,,,,,,,,,,,,,,,,,,,,,,,,,,,,,,,,,,,,,,,,,,,,,,,,,,,,,,,,,,,110821,0,3,0,3,1,1,2,0,30,2021_Nov_08_1143,listening_fmri,3.2.4,59.94919545482394,
6,parcelated_audio/12/12_30.ogg,,,,,,,,,0,0,0,0,0,6,6,6,0,0,0,0,,,,,,,,,0,0,0,0,0,29,29,29,,,,,,,,,,,,,,,,,,,,,,,,,,,,,,,,,,,,,,,,,,,,,,,,1269.5956927629995,1276.5400779299998,,,,,,,,,,,,,,,,,,,,,,,,,,,,,,,,,,,,,,,,,,,,,,,,,,,,,,,,,,,,,,,,,,,,110821,0,3,0,3,1,1,2,0,30,2021_Nov_08_1143,listening_fmri,3.2.4,59.94919545482394,
6,parcelated_audio/12/12_31.ogg,,,,,,,,,0,0,0,0,0,6,6,6,0,0,0,0,,,,,,,,,0,0,0,0,0,30,30,30,,,,,,,,,,,,,,,,,,,,,,,,,,,,,,,,,,,,,,,,,,,,,,,,1276.5405703199995,1283.6811669789995,,,,,,,,,,,,,,,,,,,,,,,,,,,,,,,,,,,,,,,,,,,,,,,,,,,,,,,,,,,,,,,,,,,,110821,0,3,0,3,1,1,2,0,30,2021_Nov_08_1143,listening_fmri,3.2.4,59.94919545482394,
6,,,,,,,,,,0,0,0,0,0,6,6,6,0,0,0,0,,,,,,,,,0,0,0,0,,,,,,,,,,,,,,,,,,,,,,,,,,,,,,,,,,,,,,,,,,,,,,,,,,,,,,,,,,,,,,,,,,,,,,,,,,,,,,,,,,,,,,,,,,,,,,,,,,,,,,,,,,,,,,,,,,,,,,,,,110821,0,3,0,3,1,1,2,0,30,2021_Nov_08_1143,listening_fmri,3.2.4,59.94919545482394,
6,,,,,,,,,,0,0,0,0,0,6,6,6,0,0,0,0,,,,,,,,,,,,,,,,,,,,,,,,,,,,,,,,,,,,,,,,,,1283.681657518,1289.679300361,1345.2978972700002,None,,,,,,,,,,,,,,,,,,,,,1351.297743534,None,1351.297743534,None,,,,,,,,,,,,,,,,,,,,,,,,,,,,,,,,,,,,,,,,,,,,,,,,,,,,,,,,,,,,,,,,110821,0,3,0,3,1,1,2,0,30,2021_Nov_08_1143,listening_fmri,3.2.4,59.94919545482394,
6,,,,,,,,,,0,0,0,0,0,6,6,6,,,,,,,,,,,,,,,,,,,,,,,,,,,,,,,,,,,,,,,,,,,,,,,,,,,,,,,,,,,,,,,,,,,,,,,,,,,,,,,,,,,,,,,,,,,,,,,,,,,,,,,,,,,,,,,,,,,,,,,,,,,,,,,,,,,,,,,,,110821,0,3,0,3,1,1,2,0,30,2021_Nov_08_1143,listening_fmri,3.2.4,59.94919545482394,
7,,,,,,,,,,0,0,0,0,0,7,7,7,0,0,0,0,0,0,0,0,,,,,,,,,,,,,,,,,0,0,0,0,,,,,,,,,,,,,,,,,,,,,,1352.3306641649997,None,1352.3306641649997,None,7,1.2687876129994038,1352.3306641649997,None,1352.3306641649997,None,,,,,,,,,,,,,,,1353.631103969,None,8,1.070391940999798,1353.631103969,None,1353.631103969,None,1354.746660969,None,1354.746660969,None,1354.746660969,None,6,1.4098697129993525,1354.746660969,None,1356.1807951479996,None,1,1.8387180929994429,1356.1807951479996,None,1356.1807951479996,None,1358.1138978489998,None,1358.1138978489998,None,1358.1138978489998,None,1358.1138978489998,None,1358.1138978489998,None,1358.1138978489998,None,1358.1138978489998,None,None,1358.1138978489998,None,,,,,,,,,,,,,,,,,,,,,110821,0,3,0,3,1,1,2,0,30,2021_Nov_08_1143,listening_fmri,3.2.4,59.94919545482394,
7,,,,,,,,,,0,0,0,0,0,7,7,7,0,0,0,0,0,0,0,0,,,,,,,,,,,,,,,,,,,,,,,,,,,,,,,,,,,,,,,,,,,,,,,,,,,,,,,,,,,,,,,,,,,,,,,,,,,,,,,,,,,,,,,,,,,,,,,,,,,,,,,,,,,,,1374.5312239579998,None,7,0.9993403449998368,1374.5312239579998,None,1374.5312239579998,None,1375.564444091,None,1375.564444091,None,1375.564444091,None,4,1.0071069830000852,1375.564444091,None,,,110821,0,3,0,3,1,1,2,0,30,2021_Nov_08_1143,listening_fmri,3.2.4,59.94919545482394,
7,parcelated_audio/21/21_1.ogg,,,,,,,,,0,0,0,0,0,7,7,7,0,0,0,0,,,,,,,,,0,0,0,0,0,0,0,0,,,,,,,,,,,,,,,,,,,,,,,,,,,,,,,,,,,,,,,,1376.5973339900002,None,9,1.4502263309996124,1376.5973339900002,None,1316.45363214,1319.4623161959998,1319.4714606879998,1333.734157719,,,,,,,,,,,,,,,,,,,,,,,,,,,,,,,,,,,,,,,,,,,,,,,,,,,,,,,,,,,,,,,,,,,,110821,0,3,0,3,1,1,2,0,30,2021_Nov_08_1143,listening_fmri,3.2.4,59.94919545482394,
7,parcelated_audio/21/21_2.ogg,,,,,,,,,0,0,0,0,0,7,7,7,0,0,0,0,,,,,,,,,0,0,0,0,0,1,1,1,,,,,,,,,,,,,,,,,,,,,,,,,,,,,,,,,,,,,,,,,,,,,,,,1333.7345111289997,1341.1670258499998,,,,,,,,,,,,,,,,,,,,,,,,,,,,,,,,,,,,,,,,,,,,,,,,,,,,,,,,,,,,,,,,,,,,110821,0,3,0,3,1,1,2,0,30,2021_Nov_08_1143,listening_fmri,3.2.4,59.94919545482394,
7,parcelated_audio/21/21_3.ogg,,,,,,,,,0,0,0,0,0,7,7,7,0,0,0,0,,,,,,,,,0,0,0,0,0,2,2,2,,,,,,,,,,,,,,,,,,,,,,,,,,,,,,,,,,,,,,,,,,,,,,,,1341.1673803089998,1348.8531188890001,,,,,,,,,,,,,,,,,,,,,,,,,,,,,,,,,,,,,,,,,,,,,,,,,,,,,,,,,,,,,,,,,,,,110821,0,3,0,3,1,1,2,0,30,2021_Nov_08_1143,listening_fmri,3.2.4,59.94919545482394,
7,parcelated_audio/21/21_4.ogg,,,,,,,,,0,0,0,0,0,7,7,7,0,0,0,0,,,,,,,,,0,0,0,0,0,3,3,3,,,,,,,,,,,,,,,,,,,,,,,,,,,,,,,,,,,,,,,,,,,,,,,,1348.8534598339993,1359.8990785380001,,,,,,,,,,,,,,,,,,,,,,,,,,,,,,,,,,,,,,,,,,,,,,,,,,,,,,,,,,,,,,,,,,,,110821,0,3,0,3,1,1,2,0,30,2021_Nov_08_1143,listening_fmri,3.2.4,59.94919545482394,
7,parcelated_audio/21/21_5.ogg,,,,,,,,,0,0,0,0,0,7,7,7,0,0,0,0,,,,,,,,,0,0,0,0,0,4,4,4,,,,,,,,,,,,,,,,,,,,,,,,,,,,,,,,,,,,,,,,,,,,,,,,1359.8994330839996,1364.9621050749993,,,,,,,,,,,,,,,,,,,,,,,,,,,,,,,,,,,,,,,,,,,,,,,,,,,,,,,,,,,,,,,,,,,,110821,0,3,0,3,1,1,2,0,30,2021_Nov_08_1143,listening_fmri,3.2.4,59.94919545482394,
7,parcelated_audio/21/21_6.ogg,,,,,,,,,0,0,0,0,0,7,7,7,0,0,0,0,,,,,,,,,0,0,0,0,0,5,5,5,,,,,,,,,,,,,,,,,,,,,,,,,,,,,,,,,,,,,,,,,,,,,,,,1364.9624002989995,1373.1159340639997,,,,,,,,,,,,,,,,,,,,,,,,,,,,,,,,,,,,,,,,,,,,,,,,,,,,,,,,,,,,,,,,,,,,110821,0,3,0,3,1,1,2,0,30,2021_Nov_08_1143,listening_fmri,3.2.4,59.94919545482394,
7,parcelated_audio/21/21_7.ogg,,,,,,,,,0,0,0,0,0,7,7,7,0,0,0,0,,,,,,,,,0,0,0,0,0,6,6,6,,,,,,,,,,,,,,,,,,,,,,,,,,,,,,,,,,,,,,,,,,,,,,,,1373.117062929,1377.6377372719999,,,,,,,,,,,,,,,,,,,,,,,,,,,,,,,,,,,,,,,,,,,,,,,,,,,,,,,,,,,,,,,,,,,,110821,0,3,0,3,1,1,2,0,30,2021_Nov_08_1143,listening_fmri,3.2.4,59.94919545482394,
7,parcelated_audio/21/21_8.ogg,,,,,,,,,0,0,0,0,0,7,7,7,0,0,0,0,,,,,,,,,0,0,0,0,0,7,7,7,,,,,,,,,,,,,,,,,,,,,,,,,,,,,,,,,,,,,,,,,,,,,,,,1377.638292791,1388.5344370249995,,,,,,,,,,,,,,,,,,,,,,,,,,,,,,,,,,,,,,,,,,,,,,,,,,,,,,,,,,,,,,,,,,,,110821,0,3,0,3,1,1,2,0,30,2021_Nov_08_1143,listening_fmri,3.2.4,59.94919545482394,
7,parcelated_audio/21/21_9.ogg,,,,,,,,,0,0,0,0,0,7,7,7,0,0,0,0,,,,,,,,,0,0,0,0,0,8,8,8,,,,,,,,,,,,,,,,,,,,,,,,,,,,,,,,,,,,,,,,,,,,,,,,1388.5349695529994,1395.9108994469998,,,,,,,,,,,,,,,,,,,,,,,,,,,,,,,,,,,,,,,,,,,,,,,,,,,,,,,,,,,,,,,,,,,,110821,0,3,0,3,1,1,2,0,30,2021_Nov_08_1143,listening_fmri,3.2.4,59.94919545482394,
7,parcelated_audio/21/21_10.ogg,,,,,,,,,0,0,0,0,0,7,7,7,0,0,0,0,,,,,,,,,0,0,0,0,0,9,9,9,,,,,,,,,,,,,,,,,,,,,,,,,,,,,,,,,,,,,,,,,,,,,,,,1395.9112875579995,1402.7616610839996,,,,,,,,,,,,,,,,,,,,,,,,,,,,,,,,,,,,,,,,,,,,,,,,,,,,,,,,,,,,,,,,,,,,110821,0,3,0,3,1,1,2,0,30,2021_Nov_08_1143,listening_fmri,3.2.4,59.94919545482394,
7,parcelated_audio/21/21_11.ogg,,,,,,,,,0,0,0,0,0,7,7,7,0,0,0,0,,,,,,,,,0,0,0,0,0,10,10,10,,,,,,,,,,,,,,,,,,,,,,,,,,,,,,,,,,,,,,,,,,,,,,,,1402.7620164629998,1409.860163587,,,,,,,,,,,,,,,,,,,,,,,,,,,,,,,,,,,,,,,,,,,,,,,,,,,,,,,,,,,,,,,,,,,,110821,0,3,0,3,1,1,2,0,30,2021_Nov_08_1143,listening_fmri,3.2.4,59.94919545482394,
7,parcelated_audio/21/21_12.ogg,,,,,,,,,0,0,0,0,0,7,7,7,0,0,0,0,,,,,,,,,0,0,0,0,0,11,11,11,,,,,,,,,,,,,,,,,,,,,,,,,,,,,,,,,,,,,,,,,,,,,,,,1409.8605177179998,1418.1735678689993,,,,,,,,,,,,,,,,,,,,,,,,,,,,,,,,,,,,,,,,,,,,,,,,,,,,,,,,,,,,,,,,,,,,110821,0,3,0,3,1,1,2,0,30,2021_Nov_08_1143,listening_fmri,3.2.4,59.94919545482394,
7,parcelated_audio/21/21_13.ogg,,,,,,,,,0,0,0,0,0,7,7,7,0,0,0,0,,,,,,,,,0,0,0,0,0,12,12,12,,,,,,,,,,,,,,,,,,,,,,,,,,,,,,,,,,,,,,,,,,,,,,,,1418.1738416029993,1421.509994076,,,,,,,,,,,,,,,,,,,,,,,,,,,,,,,,,,,,,,,,,,,,,,,,,,,,,,,,,,,,,,,,,,,,110821,0,3,0,3,1,1,2,0,30,2021_Nov_08_1143,listening_fmri,3.2.4,59.94919545482394,
7,parcelated_audio/21/21_14.ogg,,,,,,,,,0,0,0,0,0,7,7,7,0,0,0,0,,,,,,,,,0,0,0,0,0,13,13,13,,,,,,,,,,,,,,,,,,,,,,,,,,,,,,,,,,,,,,,,,,,,,,,,1421.5103460199998,1426.9255795949994,,,,,,,,,,,,,,,,,,,,,,,,,,,,,,,,,,,,,,,,,,,,,,,,,,,,,,,,,,,,,,,,,,,,110821,0,3,0,3,1,1,2,0,30,2021_Nov_08_1143,listening_fmri,3.2.4,59.94919545482394,
7,parcelated_audio/21/21_15.ogg,,,,,,,,,0,0,0,0,0,7,7,7,0,0,0,0,,,,,,,,,0,0,0,0,0,14,14,14,,,,,,,,,,,,,,,,,,,,,,,,,,,,,,,,,,,,,,,,,,,,,,,,1426.9260391520002,1433.7374577279998,,,,,,,,,,,,,,,,,,,,,,,,,,,,,,,,,,,,,,,,,,,,,,,,,,,,,,,,,,,,,,,,,,,,110821,0,3,0,3,1,1,2,0,30,2021_Nov_08_1143,listening_fmri,3.2.4,59.94919545482394,
7,parcelated_audio/21/21_16.ogg,,,,,,,,,0,0,0,0,0,7,7,7,0,0,0,0,,,,,,,,,0,0,0,0,0,15,15,15,,,,,,,,,,,,,,,,,,,,,,,,,,,,,,,,,,,,,,,,,,,,,,,,1433.737911405,1439.7989443199995,,,,,,,,,,,,,,,,,,,,,,,,,,,,,,,,,,,,,,,,,,,,,,,,,,,,,,,,,,,,,,,,,,,,110821,0,3,0,3,1,1,2,0,30,2021_Nov_08_1143,listening_fmri,3.2.4,59.94919545482394,
7,parcelated_audio/21/21_17.ogg,,,,,,,,,0,0,0,0,0,7,7,7,0,0,0,0,,,,,,,,,0,0,0,0,0,16,16,16,,,,,,,,,,,,,,,,,,,,,,,,,,,,,,,,,,,,,,,,,,,,,,,,1439.799296964,1441.9613343239998,,,,,,,,,,,,,,,,,,,,,,,,,,,,,,,,,,,,,,,,,,,,,,,,,,,,,,,,,,,,,,,,,,,,110821,0,3,0,3,1,1,2,0,30,2021_Nov_08_1143,listening_fmri,3.2.4,59.94919545482394,
7,parcelated_audio/21/21_18.ogg,,,,,,,,,0,0,0,0,0,7,7,7,0,0,0,0,,,,,,,,,0,0,0,0,0,17,17,17,,,,,,,,,,,,,,,,,,,,,,,,,,,,,,,,,,,,,,,,,,,,,,,,1441.961792186,1455.1116075419995,,,,,,,,,,,,,,,,,,,,,,,,,,,,,,,,,,,,,,,,,,,,,,,,,,,,,,,,,,,,,,,,,,,,110821,0,3,0,3,1,1,2,0,30,2021_Nov_08_1143,listening_fmri,3.2.4,59.94919545482394,
7,parcelated_audio/21/21_19.ogg,,,,,,,,,0,0,0,0,0,7,7,7,0,0,0,0,,,,,,,,,0,0,0,0,0,18,18,18,,,,,,,,,,,,,,,,,,,,,,,,,,,,,,,,,,,,,,,,,,,,,,,,1455.111877808,1457.9927677299993,,,,,,,,,,,,,,,,,,,,,,,,,,,,,,,,,,,,,,,,,,,,,,,,,,,,,,,,,,,,,,,,,,,,110821,0,3,0,3,1,1,2,0,30,2021_Nov_08_1143,listening_fmri,3.2.4,59.94919545482394,
7,parcelated_audio/21/21_20.ogg,,,,,,,,,0,0,0,0,0,7,7,7,0,0,0,0,,,,,,,,,0,0,0,0,0,19,19,19,,,,,,,,,,,,,,,,,,,,,,,,,,,,,,,,,,,,,,,,,,,,,,,,1457.993389184,1466.7261746589993,,,,,,,,,,,,,,,,,,,,,,,,,,,,,,,,,,,,,,,,,,,,,,,,,,,,,,,,,,,,,,,,,,,,110821,0,3,0,3,1,1,2,0,30,2021_Nov_08_1143,listening_fmri,3.2.4,59.94919545482394,
7,parcelated_audio/21/21_21.ogg,,,,,,,,,0,0,0,0,0,7,7,7,0,0,0,0,,,,,,,,,0,0,0,0,0,20,20,20,,,,,,,,,,,,,,,,,,,,,,,,,,,,,,,,,,,,,,,,,,,,,,,,1466.726528219,1477.7628804779997,,,,,,,,,,,,,,,,,,,,,,,,,,,,,,,,,,,,,,,,,,,,,,,,,,,,,,,,,,,,,,,,,,,,110821,0,3,0,3,1,1,2,0,30,2021_Nov_08_1143,listening_fmri,3.2.4,59.94919545482394,
7,parcelated_audio/21/21_22.ogg,,,,,,,,,0,0,0,0,0,7,7,7,0,0,0,0,,,,,,,,,0,0,0,0,0,21,21,21,,,,,,,,,,,,,,,,,,,,,,,,,,,,,,,,,,,,,,,,,,,,,,,,1477.7632347469998,1488.683035567,,,,,,,,,,,,,,,,,,,,,,,,,,,,,,,,,,,,,,,,,,,,,,,,,,,,,,,,,,,,,,,,,,,,110821,0,3,0,3,1,1,2,0,30,2021_Nov_08_1143,listening_fmri,3.2.4,59.94919545482394,
7,parcelated_audio/21/21_23.ogg,,,,,,,,,0,0,0,0,0,7,7,7,0,0,0,0,,,,,,,,,0,0,0,0,0,22,22,22,,,,,,,,,,,,,,,,,,,,,,,,,,,,,,,,,,,,,,,,,,,,,,,,1488.683687103,1493.652996318,,,,,,,,,,,,,,,,,,,,,,,,,,,,,,,,,,,,,,,,,,,,,,,,,,,,,,,,,,,,,,,,,,,,110821,0,3,0,3,1,1,2,0,30,2021_Nov_08_1143,listening_fmri,3.2.4,59.94919545482394,
7,parcelated_audio/21/21_24.ogg,,,,,,,,,0,0,0,0,0,7,7,7,0,0,0,0,,,,,,,,,0,0,0,0,0,23,23,23,,,,,,,,,,,,,,,,,,,,,,,,,,,,,,,,,,,,,,,,,,,,,,,,1493.6534796919996,1498.2443717159995,,,,,,,,,,,,,,,,,,,,,,,,,,,,,,,,,,,,,,,,,,,,,,,,,,,,,,,,,,,,,,,,,,,,110821,0,3,0,3,1,1,2,0,30,2021_Nov_08_1143,listening_fmri,3.2.4,59.94919545482394,
7,parcelated_audio/21/21_25.ogg,,,,,,,,,0,0,0,0,0,7,7,7,0,0,0,0,,,,,,,,,0,0,0,0,0,24,24,24,,,,,,,,,,,,,,,,,,,,,,,,,,,,,,,,,,,,,,,,,,,,,,,,1498.2447267019998,1507.6853787149994,,,,,,,,,,,,,,,,,,,,,,,,,,,,,,,,,,,,,,,,,,,,,,,,,,,,,,,,,,,,,,,,,,,,110821,0,3,0,3,1,1,2,0,30,2021_Nov_08_1143,listening_fmri,3.2.4,59.94919545482394,
7,parcelated_audio/21/21_26.ogg,,,,,,,,,0,0,0,0,0,7,7,7,0,0,0,0,,,,,,,,,0,0,0,0,0,25,25,25,,,,,,,,,,,,,,,,,,,,,,,,,,,,,,,,,,,,,,,,,,,,,,,,1507.6856631649998,1511.678645944,,,,,,,,,,,,,,,,,,,,,,,,,,,,,,,,,,,,,,,,,,,,,,,,,,,,,,,,,,,,,,,,,,,,110821,0,3,0,3,1,1,2,0,30,2021_Nov_08_1143,listening_fmri,3.2.4,59.94919545482394,
7,parcelated_audio/21/21_27.ogg,,,,,,,,,0,0,0,0,0,7,7,7,0,0,0,0,,,,,,,,,0,0,0,0,0,26,26,26,,,,,,,,,,,,,,,,,,,,,,,,,,,,,,,,,,,,,,,,,,,,,,,,1511.6789592649993,1518.8661219589994,,,,,,,,,,,,,,,,,,,,,,,,,,,,,,,,,,,,,,,,,,,,,,,,,,,,,,,,,,,,,,,,,,,,110821,0,3,0,3,1,1,2,0,30,2021_Nov_08_1143,listening_fmri,3.2.4,59.94919545482394,
7,parcelated_audio/21/21_28.ogg,,,,,,,,,0,0,0,0,0,7,7,7,0,0,0,0,,,,,,,,,0,0,0,0,0,27,27,27,,,,,,,,,,,,,,,,,,,,,,,,,,,,,,,,,,,,,,,,,,,,,,,,1518.8663687919998,1524.9909150489993,,,,,,,,,,,,,,,,,,,,,,,,,,,,,,,,,,,,,,,,,,,,,,,,,,,,,,,,,,,,,,,,,,,,110821,0,3,0,3,1,1,2,0,30,2021_Nov_08_1143,listening_fmri,3.2.4,59.94919545482394,
7,parcelated_audio/21/21_29.ogg,,,,,,,,,0,0,0,0,0,7,7,7,0,0,0,0,,,,,,,,,0,0,0,0,0,28,28,28,,,,,,,,,,,,,,,,,,,,,,,,,,,,,,,,,,,,,,,,,,,,,,,,1524.9912592169994,1529.2497284379997,,,,,,,,,,,,,,,,,,,,,,,,,,,,,,,,,,,,,,,,,,,,,,,,,,,,,,,,,,,,,,,,,,,,110821,0,3,0,3,1,1,2,0,30,2021_Nov_08_1143,listening_fmri,3.2.4,59.94919545482394,
7,parcelated_audio/21/21_30.ogg,,,,,,,,,0,0,0,0,0,7,7,7,0,0,0,0,,,,,,,,,0,0,0,0,0,29,29,29,,,,,,,,,,,,,,,,,,,,,,,,,,,,,,,,,,,,,,,,,,,,,,,,1529.2500912699998,1534.4990999679994,,,,,,,,,,,,,,,,,,,,,,,,,,,,,,,,,,,,,,,,,,,,,,,,,,,,,,,,,,,,,,,,,,,,110821,0,3,0,3,1,1,2,0,30,2021_Nov_08_1143,listening_fmri,3.2.4,59.94919545482394,
7,,,,,,,,,,0,0,0,0,0,7,7,7,0,0,0,0,,,,,,,,,0,0,0,0,,,,,,,,,,,,,,,,,,,,,,,,,,,,,,,,,,,,,,,,,,,,,,,,,,,,,,,,,,,,,,,,,,,,,,,,,,,,,,,,,,,,,,,,,,,,,,,,,,,,,,,,,,,,,,,,,,,,,,,,,110821,0,3,0,3,1,1,2,0,30,2021_Nov_08_1143,listening_fmri,3.2.4,59.94919545482394,
7,,,,,,,,,,0,0,0,0,0,7,7,7,0,0,0,0,,,,,,,,,,,,,,,,,,,,,,,,,,,,,,,,,,,,,,,,,,1534.4996070959996,1540.5294340499995,1596.1134978150003,None,,,,,,,,,,,,,,,,,,,,,1602.1473072259996,None,1602.1473072259996,None,,,,,,,,,,,,,,,,,,,,,,,,,,,,,,,,,,,,,,,,,,,,,,,,,,,,,,,,,,,,,,,,110821,0,3,0,3,1,1,2,0,30,2021_Nov_08_1143,listening_fmri,3.2.4,59.94919545482394,
7,,,,,,,,,,0,0,0,0,0,7,7,7,,,,,,,,,,,,,,,,,,,,,,,,,,,,,,,,,,,,,,,,,,,,,,,,,,,,,,,,,,,,,,,,,,,,,,,,,,,,,,,,,,,,,,,,,,,,,,,,,,,,,,,,,,,,,,,,,,,,,,,,,,,,,,,,,,,,,,,,,110821,0,3,0,3,1,1,2,0,30,2021_Nov_08_1143,listening_fmri,3.2.4,59.94919545482394,
,,,,,,,,,,0,0,0,0,,,,,,,,,,,,,,,,,,,,,,,,,,,,,,,,,,,,,,,,,,,,,,,,,,,,,,,,,,,,,,,,,,,,,,,,,,,,,,,,,,,,,,,,,,,,,,,,,,,,,,,,,,,,,,,,,,,,,,,,,,,,,,,,,,,,,,,,,,,,,110821,0,3,0,3,1,1,2,0,30,2021_Nov_08_1143,listening_fmri,3.2.4,59.94919545482394,
,,,,,,,,,,,,,,,,,,,,,,,,,,,,,,,,,,,,,,,,,,,,,,0,0,0,0,,,,,,,,,,,,,,,,,,,,,,,,,,,,,,,,,,,,,,,,,,,,,,,,,,,,,,,,,,,,,,,,,,,,,,,,,,,,,,,,,,,,,,,,,,,,,,,,,,,,,,,1603.1635835919997,None,110821,0,3,0,3,1,1,2,0,30,2021_Nov_08_1143,listening_fmri,3.2.4,59.94919545482394,
,,,,,,,,,,,,,,,,,,,,,,,,,,,,,,,,,,,,,,,,,,,,,,1,0,1,0,,,,,,,,,,,,,,,,,,,,,,,,,,,,,,,,,,,,,,,,,,,,,,,,,,,,,,,,,,,,,,,,,,,,,,,,,,,,,,,,,,,,,,,,,,,,,,,,,,,,,,,1603.6306182890003,None,110821,0,3,0,3,1,1,2,0,30,2021_Nov_08_1143,listening_fmri,3.2.4,59.94919545482394,
,,,,,,,,,,,,,,,,,,,,,,,,,,,,,,,,,,,,,,,,,,,,,,2,0,2,0,,,,,,,,,,,,,,,,,,,,,,,,,,,,,,,,,,,,,,,,,,,,,,,,,,,,,,,,,,,,,,,,,,,,,,,,,,,,,,,,,,,,,,,,,,,,,,,,,,,,,,,1604.1313048370002,None,110821,0,3,0,3,1,1,2,0,30,2021_Nov_08_1143,listening_fmri,3.2.4,59.94919545482394,
,,,,,,,,,,,,,,,,,,,,,,,,,,,,,,,,,,,,,,,,,,,,,,3,0,3,0,,,,,,,,,,,,,,,,,,,,,,,,,,,,,,,,,,,,,,,,,,,,,,,,,,,,,,,,,,,,,,,,,,,,,,,,,,,,,,,,,,,,,,,,,,,,,,,,,,,,,,,1604.630758286,None,110821,0,3,0,3,1,1,2,0,30,2021_Nov_08_1143,listening_fmri,3.2.4,59.94919545482394,
,,,,,,,,,,,,,,,,,,,,,,,,,,,,,,,,,,,,,,,,,,,,,,4,0,4,0,,,,,,,,,,,,,,,,,,,,,,,,,,,,,,,,,,,,,,,,,,,,,,,,,,,,,,,,,,,,,,,,,,,,,,,,,,,,,,,,,,,,,,,,,,,,,,,,,,,,,,,1605.1306320249996,None,110821,0,3,0,3,1,1,2,0,30,2021_Nov_08_1143,listening_fmri,3.2.4,59.94919545482394,
