count,audio,trials_14.thisRepN,trials_14.thisTrialN,trials_14.thisN,trials_14.thisIndex,trials_3.thisRepN,trials_3.thisTrialN,trials_3.thisN,trials_3.thisIndex,trials_4.thisRepN,trials_4.thisTrialN,trials_4.thisN,trials_4.thisIndex,trials_6.thisRepN,trials_6.thisTrialN,trials_6.thisN,trials_6.thisIndex,trials_9.thisRepN,trials_9.thisTrialN,trials_9.thisN,trials_9.thisIndex,trials_10.thisRepN,trials_10.thisTrialN,trials_10.thisN,trials_10.thisIndex,trials_11.thisRepN,trials_11.thisTrialN,trials_11.thisN,trials_11.thisIndex,trials_12.thisRepN,trials_12.thisTrialN,trials_12.thisN,trials_12.thisIndex,trials_25.thisRepN,trials_25.thisTrialN,trials_25.thisN,trials_25.thisIndex,trials_15.thisRepN,trials_15.thisTrialN,trials_15.thisN,trials_15.thisIndex,trials_26.thisRepN,trials_26.thisTrialN,trials_26.thisN,trials_26.thisIndex,trials_8.thisRepN,trials_8.thisTrialN,trials_8.thisN,trials_8.thisIndex,story_list_block2,action_list_block2,textTrigger.started,textTrigger.stopped,getTrigger.keys,getTrigger.rt,getTrigger.started,getTrigger.stopped,triggerTime,text_76.started,text_76.stopped,text_77.started,text_77.stopped,startWait,endWait,image_23.started,image_23.stopped,text_55.started,text_55.stopped,text_56.started,text_56.stopped,key_resp_2.keys,key_resp_2.rt,key_resp_2.started,key_resp_2.stopped,text_82.started,text_82.stopped,text_57.started,text_57.stopped,key_resp_17.keys,key_resp_17.rt,key_resp_17.started,key_resp_17.stopped,text_83.started,text_83.stopped,text_60.started,text_60.stopped,image_2.started,image_2.stopped,text_58.started,text_58.stopped,key_resp_23.keys,key_resp_23.rt,key_resp_23.started,key_resp_23.stopped,text_62.started,text_62.stopped,key_resp_18.keys,key_resp_18.rt,key_resp_18.started,key_resp_18.stopped,text_84.started,text_84.stopped,question1_2.started,question1_2.stopped,question2_2.started,question2_2.stopped,question3_2.started,question3_2.stopped,question4_2.started,question4_2.stopped,question5_2.started,question5_2.stopped,question6_2.started,question6_2.stopped,image_15.started,image_15.stopped,key_resp.keys,key_resp.started,key_resp.stopped,text_59.started,text_59.stopped,key_resp_19.keys,key_resp_19.rt,key_resp_19.started,key_resp_19.stopped,text_85.started,text_85.stopped,text_61.started,text_61.stopped,image_17.started,image_17.stopped,text_63.started,text_63.stopped,key_resp_24.keys,key_resp_24.rt,key_resp_24.started,key_resp_24.stopped,text_64.started,text_64.stopped,key_resp_20.keys,key_resp_20.rt,key_resp_20.started,key_resp_20.stopped,storyImage_StartTime,storyImage_EndTime,clip_StartTime,clip_EndTime,text_67.started,text_67.stopped,text_68.started,text_68.stopped,text_36.started,text_36.stopped,participant,sA,sB,lA,lB,block_struct,play_stories,block,behavioral,random_seed,date,expName,psychopyVersion,frameRate,
0,,,,,,,,,,0,0,0,0,0,0,0,0,,,,,,,,,,,,,,,,,,,,,,,,,,,,,,,,,[21 32 23 43 12 34 14 41],[3 2 1 1 2 4 4 3],13.257678772999952,None,equal,32.63696473600021,13.257678772999952,None,32.66477071200006,13.257678772999952,None,13.257678772999952,None,0.0004299470001569716,5.999822224000127,45.92391227600001,None,,,,,,,,,,,,,,,,,,,,,,,,,,,,,,,,,,,,,,,,,,,,,,,,,,,,,,,,,,,,,,,,,,,,,,,,,,,,,,,,,,,,,,,,022222,1,3,0,1,1,1,2,0,50,2022_Feb_22_1018,listening_fmri,3.2.4,59.93638340282408,
1,,,,,,,,,,0,0,0,0,0,1,1,1,0,0,0,0,0,0,0,0,0,0,0,0,,,,,,,,,,,,,,,,,,,,,,,,,,,,,,,,,,,,,,51.92528732499977,None,51.92528732499977,None,2,1.135453132999828,51.92528732499977,None,51.92528732499977,None,53.09015598299993,None,2,0.624611705999996,53.09015598299993,None,53.09015598299993,None,53.756243383999845,None,53.756243383999845,None,53.756243383999845,None,2,1.396515817999898,53.756243383999845,None,55.17392295599984,None,2,0.7437558679998801,55.17392295599984,None,55.17392295599984,None,56.023187306999716,None,56.023187306999716,None,56.023187306999716,None,56.023187306999716,None,56.023187306999716,None,56.023187306999716,None,56.023187306999716,None,None,56.023187306999716,None,,,,,,,,,,,,,,,,,,,,,,,,,,,,,,,,,,,022222,1,3,0,1,1,1,2,0,50,2022_Feb_22_1018,listening_fmri,3.2.4,59.93638340282408,
1,,,,,,,,,,0,0,0,0,0,1,1,1,0,0,0,0,0,0,0,0,,,,,,,,,,,,,,,,,,,,,,,,,,,,,,,,,,,,,,,,,,,,,,,,,,,,,,,,,,,,,,,,,,,,,,,,,,,,,,,,,,,,,,,,,,,,,,,73.37442068700011,None,2,1.0763418090000414,73.37442068700011,None,73.37442068700011,None,74.4905056980001,None,74.4905056980001,None,74.4905056980001,None,2,0.6732603209993613,74.4905056980001,None,,,,,,,,,,,,,,,,,022222,1,3,0,1,1,1,2,0,50,2022_Feb_22_1018,listening_fmri,3.2.4,59.93638340282408,
1,parcelated_audio/32/32_1.ogg,,,,,,,,,0,0,0,0,0,1,1,1,0,0,0,0,,,,,,,,,,,,,0,0,0,0,0,0,0,0,,,,,,,,,,,,,,,,,,,,,,,,,,,,,,,,,,,,,,,,,,,,,,,,,,,,,,,,,,,,,,,,,,,,,,,,,,,,,,,,,,,,,,,,,,,,,,,,,75.19053162999944,None,2,1.1430947850003577,75.19053162999944,None,30.458638880000308,33.46534598399967,33.47119449600041,44.84907269800033,,,,,,,022222,1,3,0,1,1,1,2,0,50,2022_Feb_22_1018,listening_fmri,3.2.4,59.93638340282408,
1,parcelated_audio/32/32_2.ogg,,,,,,,,,0,0,0,0,0,1,1,1,0,0,0,0,,,,,,,,,,,,,0,0,0,0,0,1,1,1,,,,,,,,,,,,,,,,,,,,,,,,,,,,,,,,,,,,,,,,,,,,,,,,,,,,,,,,,,,,,,,,,,,,,,,,,,,,,,,,,,,,,,,,,,,,,,,,,,,,,,,,,44.85065963700026,53.16616462400043,,,,,,,022222,1,3,0,1,1,1,2,0,50,2022_Feb_22_1018,listening_fmri,3.2.4,59.93638340282408,
1,parcelated_audio/32/32_3.ogg,,,,,,,,,0,0,0,0,0,1,1,1,0,0,0,0,,,,,,,,,,,,,0,0,0,0,0,2,2,2,,,,,,,,,,,,,,,,,,,,,,,,,,,,,,,,,,,,,,,,,,,,,,,,,,,,,,,,,,,,,,,,,,,,,,,,,,,,,,,,,,,,,,,,,,,,,,,,,,,,,,,,,53.16666556100017,58.74933401899989,,,,,,,022222,1,3,0,1,1,1,2,0,50,2022_Feb_22_1018,listening_fmri,3.2.4,59.93638340282408,
1,parcelated_audio/32/32_4.ogg,,,,,,,,,0,0,0,0,0,1,1,1,0,0,0,0,,,,,,,,,,,,,0,0,0,0,0,3,3,3,,,,,,,,,,,,,,,,,,,,,,,,,,,,,,,,,,,,,,,,,,,,,,,,,,,,,,,,,,,,,,,,,,,,,,,,,,,,,,,,,,,,,,,,,,,,,,,,,,,,,,,,,58.749662734999674,65.43475378300036,,,,,,,022222,1,3,0,1,1,1,2,0,50,2022_Feb_22_1018,listening_fmri,3.2.4,59.93638340282408,
1,parcelated_audio/32/32_5.ogg,,,,,,,,,0,0,0,0,0,1,1,1,0,0,0,0,,,,,,,,,,,,,0,0,0,0,0,4,4,4,,,,,,,,,,,,,,,,,,,,,,,,,,,,,,,,,,,,,,,,,,,,,,,,,,,,,,,,,,,,,,,,,,,,,,,,,,,,,,,,,,,,,,,,,,,,,,,,,,,,,,,,,65.43634502299983,77.1275506750003,,,,,,,022222,1,3,0,1,1,1,2,0,50,2022_Feb_22_1018,listening_fmri,3.2.4,59.93638340282408,
1,parcelated_audio/32/32_6.ogg,,,,,,,,,0,0,0,0,0,1,1,1,0,0,0,0,,,,,,,,,,,,,0,0,0,0,0,5,5,5,,,,,,,,,,,,,,,,,,,,,,,,,,,,,,,,,,,,,,,,,,,,,,,,,,,,,,,,,,,,,,,,,,,,,,,,,,,,,,,,,,,,,,,,,,,,,,,,,,,,,,,,,77.12802795299967,85.6129638690004,,,,,,,022222,1,3,0,1,1,1,2,0,50,2022_Feb_22_1018,listening_fmri,3.2.4,59.93638340282408,
1,parcelated_audio/32/32_7.ogg,,,,,,,,,0,0,0,0,0,1,1,1,0,0,0,0,,,,,,,,,,,,,0,0,0,0,0,6,6,6,,,,,,,,,,,,,,,,,,,,,,,,,,,,,,,,,,,,,,,,,,,,,,,,,,,,,,,,,,,,,,,,,,,,,,,,,,,,,,,,,,,,,,,,,,,,,,,,,,,,,,,,,85.61338670400028,89.00174892600035,,,,,,,022222,1,3,0,1,1,1,2,0,50,2022_Feb_22_1018,listening_fmri,3.2.4,59.93638340282408,
1,parcelated_audio/32/32_8.ogg,,,,,,,,,0,0,0,0,0,1,1,1,0,0,0,0,,,,,,,,,,,,,0,0,0,0,0,7,7,7,,,,,,,,,,,,,,,,,,,,,,,,,,,,,,,,,,,,,,,,,,,,,,,,,,,,,,,,,,,,,,,,,,,,,,,,,,,,,,,,,,,,,,,,,,,,,,,,,,,,,,,,,89.00292772900002,93.4686608979996,,,,,,,022222,1,3,0,1,1,1,2,0,50,2022_Feb_22_1018,listening_fmri,3.2.4,59.93638340282408,
1,parcelated_audio/32/32_9.ogg,,,,,,,,,0,0,0,0,0,1,1,1,0,0,0,0,,,,,,,,,,,,,0,0,0,0,0,8,8,8,,,,,,,,,,,,,,,,,,,,,,,,,,,,,,,,,,,,,,,,,,,,,,,,,,,,,,,,,,,,,,,,,,,,,,,,,,,,,,,,,,,,,,,,,,,,,,,,,,,,,,,,,93.46900876100017,102.14533288099983,,,,,,,022222,1,3,0,1,1,1,2,0,50,2022_Feb_22_1018,listening_fmri,3.2.4,59.93638340282408,
1,parcelated_audio/32/32_10.ogg,,,,,,,,,0,0,0,0,0,1,1,1,0,0,0,0,,,,,,,,,,,,,0,0,0,0,0,9,9,9,,,,,,,,,,,,,,,,,,,,,,,,,,,,,,,,,,,,,,,,,,,,,,,,,,,,,,,,,,,,,,,,,,,,,,,,,,,,,,,,,,,,,,,,,,,,,,,,,,,,,,,,,102.1456862480004,106.82809862600016,,,,,,,022222,1,3,0,1,1,1,2,0,50,2022_Feb_22_1018,listening_fmri,3.2.4,59.93638340282408,
1,parcelated_audio/32/32_11.ogg,,,,,,,,,0,0,0,0,0,1,1,1,0,0,0,0,,,,,,,,,,,,,0,0,0,0,0,10,10,10,,,,,,,,,,,,,,,,,,,,,,,,,,,,,,,,,,,,,,,,,,,,,,,,,,,,,,,,,,,,,,,,,,,,,,,,,,,,,,,,,,,,,,,,,,,,,,,,,,,,,,,,,106.82857073900004,112.9055889160004,,,,,,,022222,1,3,0,1,1,1,2,0,50,2022_Feb_22_1018,listening_fmri,3.2.4,59.93638340282408,
1,parcelated_audio/32/32_12.ogg,,,,,,,,,0,0,0,0,0,1,1,1,0,0,0,0,,,,,,,,,,,,,0,0,0,0,0,11,11,11,,,,,,,,,,,,,,,,,,,,,,,,,,,,,,,,,,,,,,,,,,,,,,,,,,,,,,,,,,,,,,,,,,,,,,,,,,,,,,,,,,,,,,,,,,,,,,,,,,,,,,,,,112.90606434499978,122.34075313499989,,,,,,,022222,1,3,0,1,1,1,2,0,50,2022_Feb_22_1018,listening_fmri,3.2.4,59.93638340282408,
1,parcelated_audio/32/32_13.ogg,,,,,,,,,0,0,0,0,0,1,1,1,0,0,0,0,,,,,,,,,,,,,0,0,0,0,0,12,12,12,,,,,,,,,,,,,,,,,,,,,,,,,,,,,,,,,,,,,,,,,,,,,,,,,,,,,,,,,,,,,,,,,,,,,,,,,,,,,,,,,,,,,,,,,,,,,,,,,,,,,,,,,122.3410795169998,131.95410425300042,,,,,,,022222,1,3,0,1,1,1,2,0,50,2022_Feb_22_1018,listening_fmri,3.2.4,59.93638340282408,
1,parcelated_audio/32/32_14.ogg,,,,,,,,,0,0,0,0,0,1,1,1,0,0,0,0,,,,,,,,,,,,,0,0,0,0,0,13,13,13,,,,,,,,,,,,,,,,,,,,,,,,,,,,,,,,,,,,,,,,,,,,,,,,,,,,,,,,,,,,,,,,,,,,,,,,,,,,,,,,,,,,,,,,,,,,,,,,,,,,,,,,,131.9544542890003,140.03511471299998,,,,,,,022222,1,3,0,1,1,1,2,0,50,2022_Feb_22_1018,listening_fmri,3.2.4,59.93638340282408,
1,parcelated_audio/32/32_15.ogg,,,,,,,,,0,0,0,0,0,1,1,1,0,0,0,0,,,,,,,,,,,,,0,0,0,0,0,14,14,14,,,,,,,,,,,,,,,,,,,,,,,,,,,,,,,,,,,,,,,,,,,,,,,,,,,,,,,,,,,,,,,,,,,,,,,,,,,,,,,,,,,,,,,,,,,,,,,,,,,,,,,,,140.03545911399988,146.92354296999974,,,,,,,022222,1,3,0,1,1,1,2,0,50,2022_Feb_22_1018,listening_fmri,3.2.4,59.93638340282408,
1,parcelated_audio/32/32_16.ogg,,,,,,,,,0,0,0,0,0,1,1,1,0,0,0,0,,,,,,,,,,,,,0,0,0,0,0,15,15,15,,,,,,,,,,,,,,,,,,,,,,,,,,,,,,,,,,,,,,,,,,,,,,,,,,,,,,,,,,,,,,,,,,,,,,,,,,,,,,,,,,,,,,,,,,,,,,,,,,,,,,,,,146.92495597900006,154.54475487399986,,,,,,,022222,1,3,0,1,1,1,2,0,50,2022_Feb_22_1018,listening_fmri,3.2.4,59.93638340282408,
1,parcelated_audio/32/32_17.ogg,,,,,,,,,0,0,0,0,0,1,1,1,0,0,0,0,,,,,,,,,,,,,0,0,0,0,0,16,16,16,,,,,,,,,,,,,,,,,,,,,,,,,,,,,,,,,,,,,,,,,,,,,,,,,,,,,,,,,,,,,,,,,,,,,,,,,,,,,,,,,,,,,,,,,,,,,,,,,,,,,,,,,154.545633147,162.84495385400032,,,,,,,022222,1,3,0,1,1,1,2,0,50,2022_Feb_22_1018,listening_fmri,3.2.4,59.93638340282408,
1,parcelated_audio/32/32_18.ogg,,,,,,,,,0,0,0,0,0,1,1,1,0,0,0,0,,,,,,,,,,,,,0,0,0,0,0,17,17,17,,,,,,,,,,,,,,,,,,,,,,,,,,,,,,,,,,,,,,,,,,,,,,,,,,,,,,,,,,,,,,,,,,,,,,,,,,,,,,,,,,,,,,,,,,,,,,,,,,,,,,,,,162.8453193800001,167.23155337599974,,,,,,,022222,1,3,0,1,1,1,2,0,50,2022_Feb_22_1018,listening_fmri,3.2.4,59.93638340282408,
1,parcelated_audio/32/32_19.ogg,,,,,,,,,0,0,0,0,0,1,1,1,0,0,0,0,,,,,,,,,,,,,0,0,0,0,0,18,18,18,,,,,,,,,,,,,,,,,,,,,,,,,,,,,,,,,,,,,,,,,,,,,,,,,,,,,,,,,,,,,,,,,,,,,,,,,,,,,,,,,,,,,,,,,,,,,,,,,,,,,,,,,167.2320224199998,175.27610178700024,,,,,,,022222,1,3,0,1,1,1,2,0,50,2022_Feb_22_1018,listening_fmri,3.2.4,59.93638340282408,
1,parcelated_audio/32/32_20.ogg,,,,,,,,,0,0,0,0,0,1,1,1,0,0,0,0,,,,,,,,,,,,,0,0,0,0,0,19,19,19,,,,,,,,,,,,,,,,,,,,,,,,,,,,,,,,,,,,,,,,,,,,,,,,,,,,,,,,,,,,,,,,,,,,,,,,,,,,,,,,,,,,,,,,,,,,,,,,,,,,,,,,,175.2764227800003,186.2681715929998,,,,,,,022222,1,3,0,1,1,1,2,0,50,2022_Feb_22_1018,listening_fmri,3.2.4,59.93638340282408,
1,parcelated_audio/32/32_21.ogg,,,,,,,,,0,0,0,0,0,1,1,1,0,0,0,0,,,,,,,,,,,,,0,0,0,0,0,20,20,20,,,,,,,,,,,,,,,,,,,,,,,,,,,,,,,,,,,,,,,,,,,,,,,,,,,,,,,,,,,,,,,,,,,,,,,,,,,,,,,,,,,,,,,,,,,,,,,,,,,,,,,,,186.26850031799995,195.13384272600024,,,,,,,022222,1,3,0,1,1,1,2,0,50,2022_Feb_22_1018,listening_fmri,3.2.4,59.93638340282408,
1,parcelated_audio/32/32_22.ogg,,,,,,,,,0,0,0,0,0,1,1,1,0,0,0,0,,,,,,,,,,,,,0,0,0,0,0,21,21,21,,,,,,,,,,,,,,,,,,,,,,,,,,,,,,,,,,,,,,,,,,,,,,,,,,,,,,,,,,,,,,,,,,,,,,,,,,,,,,,,,,,,,,,,,,,,,,,,,,,,,,,,,195.13431112599983,209.1700408290003,,,,,,,022222,1,3,0,1,1,1,2,0,50,2022_Feb_22_1018,listening_fmri,3.2.4,59.93638340282408,
1,parcelated_audio/32/32_23.ogg,,,,,,,,,0,0,0,0,0,1,1,1,0,0,0,0,,,,,,,,,,,,,0,0,0,0,0,22,22,22,,,,,,,,,,,,,,,,,,,,,,,,,,,,,,,,,,,,,,,,,,,,,,,,,,,,,,,,,,,,,,,,,,,,,,,,,,,,,,,,,,,,,,,,,,,,,,,,,,,,,,,,,209.1703960030004,218.20422941199968,,,,,,,022222,1,3,0,1,1,1,2,0,50,2022_Feb_22_1018,listening_fmri,3.2.4,59.93638340282408,
1,parcelated_audio/32/32_24.ogg,,,,,,,,,0,0,0,0,0,1,1,1,0,0,0,0,,,,,,,,,,,,,0,0,0,0,0,23,23,23,,,,,,,,,,,,,,,,,,,,,,,,,,,,,,,,,,,,,,,,,,,,,,,,,,,,,,,,,,,,,,,,,,,,,,,,,,,,,,,,,,,,,,,,,,,,,,,,,,,,,,,,,218.20458159500004,229.50317936300007,,,,,,,022222,1,3,0,1,1,1,2,0,50,2022_Feb_22_1018,listening_fmri,3.2.4,59.93638340282408,
1,parcelated_audio/32/32_25.ogg,,,,,,,,,0,0,0,0,0,1,1,1,0,0,0,0,,,,,,,,,,,,,0,0,0,0,0,24,24,24,,,,,,,,,,,,,,,,,,,,,,,,,,,,,,,,,,,,,,,,,,,,,,,,,,,,,,,,,,,,,,,,,,,,,,,,,,,,,,,,,,,,,,,,,,,,,,,,,,,,,,,,,229.50352989500016,235.56484451400001,,,,,,,022222,1,3,0,1,1,1,2,0,50,2022_Feb_22_1018,listening_fmri,3.2.4,59.93638340282408,
1,parcelated_audio/32/32_26.ogg,,,,,,,,,0,0,0,0,0,1,1,1,0,0,0,0,,,,,,,,,,,,,0,0,0,0,0,25,25,25,,,,,,,,,,,,,,,,,,,,,,,,,,,,,,,,,,,,,,,,,,,,,,,,,,,,,,,,,,,,,,,,,,,,,,,,,,,,,,,,,,,,,,,,,,,,,,,,,,,,,,,,,235.56518594300042,248.93256980999968,,,,,,,022222,1,3,0,1,1,1,2,0,50,2022_Feb_22_1018,listening_fmri,3.2.4,59.93638340282408,
1,parcelated_audio/32/32_27.ogg,,,,,,,,,0,0,0,0,0,1,1,1,0,0,0,0,,,,,,,,,,,,,0,0,0,0,0,26,26,26,,,,,,,,,,,,,,,,,,,,,,,,,,,,,,,,,,,,,,,,,,,,,,,,,,,,,,,,,,,,,,,,,,,,,,,,,,,,,,,,,,,,,,,,,,,,,,,,,,,,,,,,,248.93298044799985,255.92183919799982,,,,,,,022222,1,3,0,1,1,1,2,0,50,2022_Feb_22_1018,listening_fmri,3.2.4,59.93638340282408,
1,parcelated_audio/32/32_28.ogg,,,,,,,,,0,0,0,0,0,1,1,1,0,0,0,0,,,,,,,,,,,,,0,0,0,0,0,27,27,27,,,,,,,,,,,,,,,,,,,,,,,,,,,,,,,,,,,,,,,,,,,,,,,,,,,,,,,,,,,,,,,,,,,,,,,,,,,,,,,,,,,,,,,,,,,,,,,,,,,,,,,,,255.92214842299973,262.61565639100036,,,,,,,022222,1,3,0,1,1,1,2,0,50,2022_Feb_22_1018,listening_fmri,3.2.4,59.93638340282408,
1,parcelated_audio/32/32_29.ogg,,,,,,,,,0,0,0,0,0,1,1,1,0,0,0,0,,,,,,,,,,,,,0,0,0,0,0,28,28,28,,,,,,,,,,,,,,,,,,,,,,,,,,,,,,,,,,,,,,,,,,,,,,,,,,,,,,,,,,,,,,,,,,,,,,,,,,,,,,,,,,,,,,,,,,,,,,,,,,,,,,,,,262.6161246050001,265.26904173699995,,,,,,,022222,1,3,0,1,1,1,2,0,50,2022_Feb_22_1018,listening_fmri,3.2.4,59.93638340282408,
1,parcelated_audio/32/32_30.ogg,,,,,,,,,0,0,0,0,0,1,1,1,0,0,0,0,,,,,,,,,,,,,0,0,0,0,0,29,29,29,,,,,,,,,,,,,,,,,,,,,,,,,,,,,,,,,,,,,,,,,,,,,,,,,,,,,,,,,,,,,,,,,,,,,,,,,,,,,,,,,,,,,,,,,,,,,,,,,,,,,,,,,265.2695182319999,272.30309085199997,,,,,,,022222,1,3,0,1,1,1,2,0,50,2022_Feb_22_1018,listening_fmri,3.2.4,59.93638340282408,
1,parcelated_audio/32/32_31.ogg,,,,,,,,,0,0,0,0,0,1,1,1,0,0,0,0,,,,,,,,,,,,,0,0,0,0,0,30,30,30,,,,,,,,,,,,,,,,,,,,,,,,,,,,,,,,,,,,,,,,,,,,,,,,,,,,,,,,,,,,,,,,,,,,,,,,,,,,,,,,,,,,,,,,,,,,,,,,,,,,,,,,,272.3035503369997,278.6421188540003,,,,,,,022222,1,3,0,1,1,1,2,0,50,2022_Feb_22_1018,listening_fmri,3.2.4,59.93638340282408,
1,parcelated_audio/32/32_32.ogg,,,,,,,,,0,0,0,0,0,1,1,1,0,0,0,0,,,,,,,,,,,,,0,0,0,0,0,31,31,31,,,,,,,,,,,,,,,,,,,,,,,,,,,,,,,,,,,,,,,,,,,,,,,,,,,,,,,,,,,,,,,,,,,,,,,,,,,,,,,,,,,,,,,,,,,,,,,,,,,,,,,,,278.64246383399995,288.3539732060003,,,,,,,022222,1,3,0,1,1,1,2,0,50,2022_Feb_22_1018,listening_fmri,3.2.4,59.93638340282408,
1,parcelated_audio/32/32_33.ogg,,,,,,,,,0,0,0,0,0,1,1,1,0,0,0,0,,,,,,,,,,,,,0,0,0,0,0,32,32,32,,,,,,,,,,,,,,,,,,,,,,,,,,,,,,,,,,,,,,,,,,,,,,,,,,,,,,,,,,,,,,,,,,,,,,,,,,,,,,,,,,,,,,,,,,,,,,,,,,,,,,,,,288.354319603,294.10160604400016,,,,,,,022222,1,3,0,1,1,1,2,0,50,2022_Feb_22_1018,listening_fmri,3.2.4,59.93638340282408,
1,,,,,,,,,,0,0,0,0,0,1,1,1,0,0,0,0,,,,,,,,,,,,,0,0,0,0,,,,,,,,,,,,,,,,,,,,,,,,,,,,,,,,,,,,,,,,,,,,,,,,,,,,,,,,,,,,,,,,,,,,,,,,,,,,,,,,,,,,,,,,,,,,,,,,,,,,,,,,,,,,,,,,,,,,,022222,1,3,0,1,1,1,2,0,50,2022_Feb_22_1018,listening_fmri,3.2.4,59.93638340282408,
1,,,,,,,,,,0,0,0,0,0,1,1,1,0,0,0,0,,,,,,,,,,,,,,,,,,,,,,,,,,,,,,,,,,,,,,,,,,294.1020032900001,300.09911028800025,340.02238748599984,None,,,,,,,,,,,,,,,,,,,,,,,,,,,,,,,,,,,,,,,,,,,,,,,,,,,,,,,,,,,,,,,,,,,,,,,,,,,,,,,,,,346.0238644619999,None,346.0238644619999,None,,,022222,1,3,0,1,1,1,2,0,50,2022_Feb_22_1018,listening_fmri,3.2.4,59.93638340282408,
1,,,,,,,,,,0,0,0,0,0,1,1,1,,,,,,,,,,,,,,,,,,,,,,,,,,,,,,,,,,,,,,,,,,,,,,,,,,,,,,,,,,,,,,,,,,,,,,,,,,,,,,,,,,,,,,,,,,,,,,,,,,,,,,,,,,,,,,,,,,,,,,,,,,,,,,,,,,,,,,,,,022222,1,3,0,1,1,1,2,0,50,2022_Feb_22_1018,listening_fmri,3.2.4,59.93638340282408,
2,,,,,,,,,,0,0,0,0,0,2,2,2,0,0,0,0,0,0,0,0,0,0,0,0,,,,,,,,,,,,,,,,,,,,,,,,,,,,,,,,,,,,,,347.0380495059994,None,347.0380495059994,None,9,0.8365681909999694,347.0380495059994,None,347.0380495059994,None,347.89186311799995,None,9,0.8427810430002864,347.89186311799995,None,347.89186311799995,None,348.77353886899937,None,348.77353886899937,None,348.77353886899937,None,9,0.5582264109998505,348.77353886899937,None,349.35766616199953,None,9,1.0861075539996818,349.35766616199953,None,349.35766616199953,None,350.55591116200003,None,350.55591116200003,None,350.55591116200003,None,350.55591116200003,None,350.55591116200003,None,350.55591116200003,None,350.55591116200003,None,None,350.55591116200003,None,,,,,,,,,,,,,,,,,,,,,,,,,,,,,,,,,,,022222,1,3,0,1,1,1,2,0,50,2022_Feb_22_1018,listening_fmri,3.2.4,59.93638340282408,
2,,,,,,,,,,0,0,0,0,0,2,2,2,0,0,0,0,0,0,0,0,,,,,,,,,,,,,,,,,,,,,,,,,,,,,,,,,,,,,,,,,,,,,,,,,,,,,,,,,,,,,,,,,,,,,,,,,,,,,,,,,,,,,,,,,,,,,,,370.3722507689995,None,8,1.110505880999881,370.3722507689995,None,370.3722507689995,None,371.52168329799997,None,371.52168329799997,None,371.52168329799997,None,8,0.762117935999413,371.52168329799997,None,,,,,,,,,,,,,,,,,022222,1,3,0,1,1,1,2,0,50,2022_Feb_22_1018,listening_fmri,3.2.4,59.93638340282408,
2,parcelated_audio/23/23_1.ogg,,,,,,,,,0,0,0,0,0,2,2,2,0,0,0,0,,,,,,,,,,,,,0,0,0,0,0,0,0,0,,,,,,,,,,,,,,,,,,,,,,,,,,,,,,,,,,,,,,,,,,,,,,,,,,,,,,,,,,,,,,,,,,,,,,,,,,,,,,,,,,,,,,,,,,,,,,,,,372.307593174,None,8,0.8101783670008444,372.307593174,None,327.23116601100037,330.2335263279997,330.23920768200014,340.631477765,,,,,,,022222,1,3,0,1,1,1,2,0,50,2022_Feb_22_1018,listening_fmri,3.2.4,59.93638340282408,
2,parcelated_audio/23/23_2.ogg,,,,,,,,,0,0,0,0,0,2,2,2,0,0,0,0,,,,,,,,,,,,,0,0,0,0,0,1,1,1,,,,,,,,,,,,,,,,,,,,,,,,,,,,,,,,,,,,,,,,,,,,,,,,,,,,,,,,,,,,,,,,,,,,,,,,,,,,,,,,,,,,,,,,,,,,,,,,,,,,,,,,,340.63222332600026,347.503553989,,,,,,,022222,1,3,0,1,1,1,2,0,50,2022_Feb_22_1018,listening_fmri,3.2.4,59.93638340282408,
2,parcelated_audio/23/23_3.ogg,,,,,,,,,0,0,0,0,0,2,2,2,0,0,0,0,,,,,,,,,,,,,0,0,0,0,0,2,2,2,,,,,,,,,,,,,,,,,,,,,,,,,,,,,,,,,,,,,,,,,,,,,,,,,,,,,,,,,,,,,,,,,,,,,,,,,,,,,,,,,,,,,,,,,,,,,,,,,,,,,,,,,347.50390164099963,353.27835546100005,,,,,,,022222,1,3,0,1,1,1,2,0,50,2022_Feb_22_1018,listening_fmri,3.2.4,59.93638340282408,
2,parcelated_audio/23/23_4.ogg,,,,,,,,,0,0,0,0,0,2,2,2,0,0,0,0,,,,,,,,,,,,,0,0,0,0,0,3,3,3,,,,,,,,,,,,,,,,,,,,,,,,,,,,,,,,,,,,,,,,,,,,,,,,,,,,,,,,,,,,,,,,,,,,,,,,,,,,,,,,,,,,,,,,,,,,,,,,,,,,,,,,,353.2787210780002,364.5460647069999,,,,,,,022222,1,3,0,1,1,1,2,0,50,2022_Feb_22_1018,listening_fmri,3.2.4,59.93638340282408,
2,parcelated_audio/23/23_5.ogg,,,,,,,,,0,0,0,0,0,2,2,2,0,0,0,0,,,,,,,,,,,,,0,0,0,0,0,4,4,4,,,,,,,,,,,,,,,,,,,,,,,,,,,,,,,,,,,,,,,,,,,,,,,,,,,,,,,,,,,,,,,,,,,,,,,,,,,,,,,,,,,,,,,,,,,,,,,,,,,,,,,,,364.54654071699997,370.7643368900003,,,,,,,022222,1,3,0,1,1,1,2,0,50,2022_Feb_22_1018,listening_fmri,3.2.4,59.93638340282408,
2,parcelated_audio/23/23_6.ogg,,,,,,,,,0,0,0,0,0,2,2,2,0,0,0,0,,,,,,,,,,,,,0,0,0,0,0,5,5,5,,,,,,,,,,,,,,,,,,,,,,,,,,,,,,,,,,,,,,,,,,,,,,,,,,,,,,,,,,,,,,,,,,,,,,,,,,,,,,,,,,,,,,,,,,,,,,,,,,,,,,,,,370.76470321199986,378.17998803900036,,,,,,,022222,1,3,0,1,1,1,2,0,50,2022_Feb_22_1018,listening_fmri,3.2.4,59.93638340282408,
2,parcelated_audio/23/23_7.ogg,,,,,,,,,0,0,0,0,0,2,2,2,0,0,0,0,,,,,,,,,,,,,0,0,0,0,0,6,6,6,,,,,,,,,,,,,,,,,,,,,,,,,,,,,,,,,,,,,,,,,,,,,,,,,,,,,,,,,,,,,,,,,,,,,,,,,,,,,,,,,,,,,,,,,,,,,,,,,,,,,,,,,378.18034449299967,384.9471453279998,,,,,,,022222,1,3,0,1,1,1,2,0,50,2022_Feb_22_1018,listening_fmri,3.2.4,59.93638340282408,
2,parcelated_audio/23/23_8.ogg,,,,,,,,,0,0,0,0,0,2,2,2,0,0,0,0,,,,,,,,,,,,,0,0,0,0,0,7,7,7,,,,,,,,,,,,,,,,,,,,,,,,,,,,,,,,,,,,,,,,,,,,,,,,,,,,,,,,,,,,,,,,,,,,,,,,,,,,,,,,,,,,,,,,,,,,,,,,,,,,,,,,,384.9478326180001,390.34805662200006,,,,,,,022222,1,3,0,1,1,1,2,0,50,2022_Feb_22_1018,listening_fmri,3.2.4,59.93638340282408,
2,parcelated_audio/23/23_9.ogg,,,,,,,,,0,0,0,0,0,2,2,2,0,0,0,0,,,,,,,,,,,,,0,0,0,0,0,8,8,8,,,,,,,,,,,,,,,,,,,,,,,,,,,,,,,,,,,,,,,,,,,,,,,,,,,,,,,,,,,,,,,,,,,,,,,,,,,,,,,,,,,,,,,,,,,,,,,,,,,,,,,,,390.34841289800033,394.73807811899997,,,,,,,022222,1,3,0,1,1,1,2,0,50,2022_Feb_22_1018,listening_fmri,3.2.4,59.93638340282408,
2,parcelated_audio/23/23_10.ogg,,,,,,,,,0,0,0,0,0,2,2,2,0,0,0,0,,,,,,,,,,,,,0,0,0,0,0,9,9,9,,,,,,,,,,,,,,,,,,,,,,,,,,,,,,,,,,,,,,,,,,,,,,,,,,,,,,,,,,,,,,,,,,,,,,,,,,,,,,,,,,,,,,,,,,,,,,,,,,,,,,,,,394.7383862399997,398.69206434000034,,,,,,,022222,1,3,0,1,1,1,2,0,50,2022_Feb_22_1018,listening_fmri,3.2.4,59.93638340282408,
2,parcelated_audio/23/23_11.ogg,,,,,,,,,0,0,0,0,0,2,2,2,0,0,0,0,,,,,,,,,,,,,0,0,0,0,0,10,10,10,,,,,,,,,,,,,,,,,,,,,,,,,,,,,,,,,,,,,,,,,,,,,,,,,,,,,,,,,,,,,,,,,,,,,,,,,,,,,,,,,,,,,,,,,,,,,,,,,,,,,,,,,398.6924164269999,406.83693766900024,,,,,,,022222,1,3,0,1,1,1,2,0,50,2022_Feb_22_1018,listening_fmri,3.2.4,59.93638340282408,
2,parcelated_audio/23/23_12.ogg,,,,,,,,,0,0,0,0,0,2,2,2,0,0,0,0,,,,,,,,,,,,,0,0,0,0,0,11,11,11,,,,,,,,,,,,,,,,,,,,,,,,,,,,,,,,,,,,,,,,,,,,,,,,,,,,,,,,,,,,,,,,,,,,,,,,,,,,,,,,,,,,,,,,,,,,,,,,,,,,,,,,,406.83728463800026,413.9888782860003,,,,,,,022222,1,3,0,1,1,1,2,0,50,2022_Feb_22_1018,listening_fmri,3.2.4,59.93638340282408,
2,parcelated_audio/23/23_13.ogg,,,,,,,,,0,0,0,0,0,2,2,2,0,0,0,0,,,,,,,,,,,,,0,0,0,0,0,12,12,12,,,,,,,,,,,,,,,,,,,,,,,,,,,,,,,,,,,,,,,,,,,,,,,,,,,,,,,,,,,,,,,,,,,,,,,,,,,,,,,,,,,,,,,,,,,,,,,,,,,,,,,,,413.9892250320004,420.7649122170001,,,,,,,022222,1,3,0,1,1,1,2,0,50,2022_Feb_22_1018,listening_fmri,3.2.4,59.93638340282408,
2,parcelated_audio/23/23_14.ogg,,,,,,,,,0,0,0,0,0,2,2,2,0,0,0,0,,,,,,,,,,,,,0,0,0,0,0,13,13,13,,,,,,,,,,,,,,,,,,,,,,,,,,,,,,,,,,,,,,,,,,,,,,,,,,,,,,,,,,,,,,,,,,,,,,,,,,,,,,,,,,,,,,,,,,,,,,,,,,,,,,,,,420.7652775069996,425.13285774600035,,,,,,,022222,1,3,0,1,1,1,2,0,50,2022_Feb_22_1018,listening_fmri,3.2.4,59.93638340282408,
2,parcelated_audio/23/23_15.ogg,,,,,,,,,0,0,0,0,0,2,2,2,0,0,0,0,,,,,,,,,,,,,0,0,0,0,0,14,14,14,,,,,,,,,,,,,,,,,,,,,,,,,,,,,,,,,,,,,,,,,,,,,,,,,,,,,,,,,,,,,,,,,,,,,,,,,,,,,,,,,,,,,,,,,,,,,,,,,,,,,,,,,425.13321142500035,429.5569203079999,,,,,,,022222,1,3,0,1,1,1,2,0,50,2022_Feb_22_1018,listening_fmri,3.2.4,59.93638340282408,
2,parcelated_audio/23/23_16.ogg,,,,,,,,,0,0,0,0,0,2,2,2,0,0,0,0,,,,,,,,,,,,,0,0,0,0,0,15,15,15,,,,,,,,,,,,,,,,,,,,,,,,,,,,,,,,,,,,,,,,,,,,,,,,,,,,,,,,,,,,,,,,,,,,,,,,,,,,,,,,,,,,,,,,,,,,,,,,,,,,,,,,,429.5572644480003,436.13217048700017,,,,,,,022222,1,3,0,1,1,1,2,0,50,2022_Feb_22_1018,listening_fmri,3.2.4,59.93638340282408,
2,parcelated_audio/23/23_17.ogg,,,,,,,,,0,0,0,0,0,2,2,2,0,0,0,0,,,,,,,,,,,,,0,0,0,0,0,16,16,16,,,,,,,,,,,,,,,,,,,,,,,,,,,,,,,,,,,,,,,,,,,,,,,,,,,,,,,,,,,,,,,,,,,,,,,,,,,,,,,,,,,,,,,,,,,,,,,,,,,,,,,,,436.13252808599964,442.8762444050003,,,,,,,022222,1,3,0,1,1,1,2,0,50,2022_Feb_22_1018,listening_fmri,3.2.4,59.93638340282408,
2,parcelated_audio/23/23_18.ogg,,,,,,,,,0,0,0,0,0,2,2,2,0,0,0,0,,,,,,,,,,,,,0,0,0,0,0,17,17,17,,,,,,,,,,,,,,,,,,,,,,,,,,,,,,,,,,,,,,,,,,,,,,,,,,,,,,,,,,,,,,,,,,,,,,,,,,,,,,,,,,,,,,,,,,,,,,,,,,,,,,,,,442.8766064710003,454.8520641629998,,,,,,,022222,1,3,0,1,1,1,2,0,50,2022_Feb_22_1018,listening_fmri,3.2.4,59.93638340282408,
2,parcelated_audio/23/23_19.ogg,,,,,,,,,0,0,0,0,0,2,2,2,0,0,0,0,,,,,,,,,,,,,0,0,0,0,0,18,18,18,,,,,,,,,,,,,,,,,,,,,,,,,,,,,,,,,,,,,,,,,,,,,,,,,,,,,,,,,,,,,,,,,,,,,,,,,,,,,,,,,,,,,,,,,,,,,,,,,,,,,,,,,454.8536424409999,460.61807689900024,,,,,,,022222,1,3,0,1,1,1,2,0,50,2022_Feb_22_1018,listening_fmri,3.2.4,59.93638340282408,
2,parcelated_audio/23/23_20.ogg,,,,,,,,,0,0,0,0,0,2,2,2,0,0,0,0,,,,,,,,,,,,,0,0,0,0,0,19,19,19,,,,,,,,,,,,,,,,,,,,,,,,,,,,,,,,,,,,,,,,,,,,,,,,,,,,,,,,,,,,,,,,,,,,,,,,,,,,,,,,,,,,,,,,,,,,,,,,,,,,,,,,,460.6184249359999,463.4920027109997,,,,,,,022222,1,3,0,1,1,1,2,0,50,2022_Feb_22_1018,listening_fmri,3.2.4,59.93638340282408,
2,parcelated_audio/23/23_21.ogg,,,,,,,,,0,0,0,0,0,2,2,2,0,0,0,0,,,,,,,,,,,,,0,0,0,0,0,20,20,20,,,,,,,,,,,,,,,,,,,,,,,,,,,,,,,,,,,,,,,,,,,,,,,,,,,,,,,,,,,,,,,,,,,,,,,,,,,,,,,,,,,,,,,,,,,,,,,,,,,,,,,,,463.4923577180002,471.1563096320001,,,,,,,022222,1,3,0,1,1,1,2,0,50,2022_Feb_22_1018,listening_fmri,3.2.4,59.93638340282408,
2,parcelated_audio/23/23_22.ogg,,,,,,,,,0,0,0,0,0,2,2,2,0,0,0,0,,,,,,,,,,,,,0,0,0,0,0,21,21,21,,,,,,,,,,,,,,,,,,,,,,,,,,,,,,,,,,,,,,,,,,,,,,,,,,,,,,,,,,,,,,,,,,,,,,,,,,,,,,,,,,,,,,,,,,,,,,,,,,,,,,,,,471.15666932500017,473.82385179899984,,,,,,,022222,1,3,0,1,1,1,2,0,50,2022_Feb_22_1018,listening_fmri,3.2.4,59.93638340282408,
2,parcelated_audio/23/23_23.ogg,,,,,,,,,0,0,0,0,0,2,2,2,0,0,0,0,,,,,,,,,,,,,0,0,0,0,0,22,22,22,,,,,,,,,,,,,,,,,,,,,,,,,,,,,,,,,,,,,,,,,,,,,,,,,,,,,,,,,,,,,,,,,,,,,,,,,,,,,,,,,,,,,,,,,,,,,,,,,,,,,,,,,473.8241932850001,477.97812222699986,,,,,,,022222,1,3,0,1,1,1,2,0,50,2022_Feb_22_1018,listening_fmri,3.2.4,59.93638340282408,
2,parcelated_audio/23/23_24.ogg,,,,,,,,,0,0,0,0,0,2,2,2,0,0,0,0,,,,,,,,,,,,,0,0,0,0,0,23,23,23,,,,,,,,,,,,,,,,,,,,,,,,,,,,,,,,,,,,,,,,,,,,,,,,,,,,,,,,,,,,,,,,,,,,,,,,,,,,,,,,,,,,,,,,,,,,,,,,,,,,,,,,,477.97971720800024,481.42819608000036,,,,,,,022222,1,3,0,1,1,1,2,0,50,2022_Feb_22_1018,listening_fmri,3.2.4,59.93638340282408,
2,parcelated_audio/23/23_25.ogg,,,,,,,,,0,0,0,0,0,2,2,2,0,0,0,0,,,,,,,,,,,,,0,0,0,0,0,24,24,24,,,,,,,,,,,,,,,,,,,,,,,,,,,,,,,,,,,,,,,,,,,,,,,,,,,,,,,,,,,,,,,,,,,,,,,,,,,,,,,,,,,,,,,,,,,,,,,,,,,,,,,,,481.42855621900026,485.5648794780004,,,,,,,022222,1,3,0,1,1,1,2,0,50,2022_Feb_22_1018,listening_fmri,3.2.4,59.93638340282408,
2,parcelated_audio/23/23_26.ogg,,,,,,,,,0,0,0,0,0,2,2,2,0,0,0,0,,,,,,,,,,,,,0,0,0,0,0,25,25,25,,,,,,,,,,,,,,,,,,,,,,,,,,,,,,,,,,,,,,,,,,,,,,,,,,,,,,,,,,,,,,,,,,,,,,,,,,,,,,,,,,,,,,,,,,,,,,,,,,,,,,,,,485.56535098799986,491.79621736000036,,,,,,,022222,1,3,0,1,1,1,2,0,50,2022_Feb_22_1018,listening_fmri,3.2.4,59.93638340282408,
2,parcelated_audio/23/23_27.ogg,,,,,,,,,0,0,0,0,0,2,2,2,0,0,0,0,,,,,,,,,,,,,0,0,0,0,0,26,26,26,,,,,,,,,,,,,,,,,,,,,,,,,,,,,,,,,,,,,,,,,,,,,,,,,,,,,,,,,,,,,,,,,,,,,,,,,,,,,,,,,,,,,,,,,,,,,,,,,,,,,,,,,491.7965725509998,497.0781718510002,,,,,,,022222,1,3,0,1,1,1,2,0,50,2022_Feb_22_1018,listening_fmri,3.2.4,59.93638340282408,
2,parcelated_audio/23/23_28.ogg,,,,,,,,,0,0,0,0,0,2,2,2,0,0,0,0,,,,,,,,,,,,,0,0,0,0,0,27,27,27,,,,,,,,,,,,,,,,,,,,,,,,,,,,,,,,,,,,,,,,,,,,,,,,,,,,,,,,,,,,,,,,,,,,,,,,,,,,,,,,,,,,,,,,,,,,,,,,,,,,,,,,,497.07853251700044,505.0411003989998,,,,,,,022222,1,3,0,1,1,1,2,0,50,2022_Feb_22_1018,listening_fmri,3.2.4,59.93638340282408,
2,parcelated_audio/23/23_29.ogg,,,,,,,,,0,0,0,0,0,2,2,2,0,0,0,0,,,,,,,,,,,,,0,0,0,0,0,28,28,28,,,,,,,,,,,,,,,,,,,,,,,,,,,,,,,,,,,,,,,,,,,,,,,,,,,,,,,,,,,,,,,,,,,,,,,,,,,,,,,,,,,,,,,,,,,,,,,,,,,,,,,,,505.0426665359996,508.7961646409999,,,,,,,022222,1,3,0,1,1,1,2,0,50,2022_Feb_22_1018,listening_fmri,3.2.4,59.93638340282408,
2,parcelated_audio/23/23_30.ogg,,,,,,,,,0,0,0,0,0,2,2,2,0,0,0,0,,,,,,,,,,,,,0,0,0,0,0,29,29,29,,,,,,,,,,,,,,,,,,,,,,,,,,,,,,,,,,,,,,,,,,,,,,,,,,,,,,,,,,,,,,,,,,,,,,,,,,,,,,,,,,,,,,,,,,,,,,,,,,,,,,,,,508.7965169009999,514.8005550419998,,,,,,,022222,1,3,0,1,1,1,2,0,50,2022_Feb_22_1018,listening_fmri,3.2.4,59.93638340282408,
2,parcelated_audio/23/23_31.ogg,,,,,,,,,0,0,0,0,0,2,2,2,0,0,0,0,,,,,,,,,,,,,0,0,0,0,0,30,30,30,,,,,,,,,,,,,,,,,,,,,,,,,,,,,,,,,,,,,,,,,,,,,,,,,,,,,,,,,,,,,,,,,,,,,,,,,,,,,,,,,,,,,,,,,,,,,,,,,,,,,,,,,514.8009202010003,516.827257681,,,,,,,022222,1,3,0,1,1,1,2,0,50,2022_Feb_22_1018,listening_fmri,3.2.4,59.93638340282408,
2,parcelated_audio/23/23_32.ogg,,,,,,,,,0,0,0,0,0,2,2,2,0,0,0,0,,,,,,,,,,,,,0,0,0,0,0,31,31,31,,,,,,,,,,,,,,,,,,,,,,,,,,,,,,,,,,,,,,,,,,,,,,,,,,,,,,,,,,,,,,,,,,,,,,,,,,,,,,,,,,,,,,,,,,,,,,,,,,,,,,,,,516.8276219739996,520.4330797429998,,,,,,,022222,1,3,0,1,1,1,2,0,50,2022_Feb_22_1018,listening_fmri,3.2.4,59.93638340282408,
2,parcelated_audio/23/23_33.ogg,,,,,,,,,0,0,0,0,0,2,2,2,0,0,0,0,,,,,,,,,,,,,0,0,0,0,0,32,32,32,,,,,,,,,,,,,,,,,,,,,,,,,,,,,,,,,,,,,,,,,,,,,,,,,,,,,,,,,,,,,,,,,,,,,,,,,,,,,,,,,,,,,,,,,,,,,,,,,,,,,,,,,520.4335701069999,526.4802528140003,,,,,,,022222,1,3,0,1,1,1,2,0,50,2022_Feb_22_1018,listening_fmri,3.2.4,59.93638340282408,
2,parcelated_audio/23/23_34.ogg,,,,,,,,,0,0,0,0,0,2,2,2,0,0,0,0,,,,,,,,,,,,,0,0,0,0,0,33,33,33,,,,,,,,,,,,,,,,,,,,,,,,,,,,,,,,,,,,,,,,,,,,,,,,,,,,,,,,,,,,,,,,,,,,,,,,,,,,,,,,,,,,,,,,,,,,,,,,,,,,,,,,,526.4806134559999,530.0359401330002,,,,,,,022222,1,3,0,1,1,1,2,0,50,2022_Feb_22_1018,listening_fmri,3.2.4,59.93638340282408,
2,parcelated_audio/23/23_35.ogg,,,,,,,,,0,0,0,0,0,2,2,2,0,0,0,0,,,,,,,,,,,,,0,0,0,0,0,34,34,34,,,,,,,,,,,,,,,,,,,,,,,,,,,,,,,,,,,,,,,,,,,,,,,,,,,,,,,,,,,,,,,,,,,,,,,,,,,,,,,,,,,,,,,,,,,,,,,,,,,,,,,,,530.0362937490004,534.3121980709998,,,,,,,022222,1,3,0,1,1,1,2,0,50,2022_Feb_22_1018,listening_fmri,3.2.4,59.93638340282408,
2,parcelated_audio/23/23_36.ogg,,,,,,,,,0,0,0,0,0,2,2,2,0,0,0,0,,,,,,,,,,,,,0,0,0,0,0,35,35,35,,,,,,,,,,,,,,,,,,,,,,,,,,,,,,,,,,,,,,,,,,,,,,,,,,,,,,,,,,,,,,,,,,,,,,,,,,,,,,,,,,,,,,,,,,,,,,,,,,,,,,,,,534.3125420069996,538.9331465299997,,,,,,,022222,1,3,0,1,1,1,2,0,50,2022_Feb_22_1018,listening_fmri,3.2.4,59.93638340282408,
2,parcelated_audio/23/23_37.ogg,,,,,,,,,0,0,0,0,0,2,2,2,0,0,0,0,,,,,,,,,,,,,0,0,0,0,0,36,36,36,,,,,,,,,,,,,,,,,,,,,,,,,,,,,,,,,,,,,,,,,,,,,,,,,,,,,,,,,,,,,,,,,,,,,,,,,,,,,,,,,,,,,,,,,,,,,,,,,,,,,,,,,538.9334672489999,543.7222188350001,,,,,,,022222,1,3,0,1,1,1,2,0,50,2022_Feb_22_1018,listening_fmri,3.2.4,59.93638340282408,
2,parcelated_audio/23/23_38.ogg,,,,,,,,,0,0,0,0,0,2,2,2,0,0,0,0,,,,,,,,,,,,,0,0,0,0,0,37,37,37,,,,,,,,,,,,,,,,,,,,,,,,,,,,,,,,,,,,,,,,,,,,,,,,,,,,,,,,,,,,,,,,,,,,,,,,,,,,,,,,,,,,,,,,,,,,,,,,,,,,,,,,,543.7227549960003,551.2194968299996,,,,,,,022222,1,3,0,1,1,1,2,0,50,2022_Feb_22_1018,listening_fmri,3.2.4,59.93638340282408,
2,parcelated_audio/23/23_39.ogg,,,,,,,,,0,0,0,0,0,2,2,2,0,0,0,0,,,,,,,,,,,,,0,0,0,0,0,38,38,38,,,,,,,,,,,,,,,,,,,,,,,,,,,,,,,,,,,,,,,,,,,,,,,,,,,,,,,,,,,,,,,,,,,,,,,,,,,,,,,,,,,,,,,,,,,,,,,,,,,,,,,,,551.2198463689997,557.4917093660001,,,,,,,022222,1,3,0,1,1,1,2,0,50,2022_Feb_22_1018,listening_fmri,3.2.4,59.93638340282408,
2,,,,,,,,,,0,0,0,0,0,2,2,2,0,0,0,0,,,,,,,,,,,,,0,0,0,0,,,,,,,,,,,,,,,,,,,,,,,,,,,,,,,,,,,,,,,,,,,,,,,,,,,,,,,,,,,,,,,,,,,,,,,,,,,,,,,,,,,,,,,,,,,,,,,,,,,,,,,,,,,,,,,,,,,,,022222,1,3,0,1,1,1,2,0,50,2022_Feb_22_1018,listening_fmri,3.2.4,59.93638340282408,
2,,,,,,,,,,0,0,0,0,0,2,2,2,0,0,0,0,,,,,,,,,,,,,,,,,,,,,,,,,,,,,,,,,,,,,,,,,,557.492216827,563.4946807849997,603.4078682059994,None,,,,,,,,,,,,,,,,,,,,,,,,,,,,,,,,,,,,,,,,,,,,,,,,,,,,,,,,,,,,,,,,,,,,,,,,,,,,,,,,,,609.419653642,None,609.419653642,None,,,022222,1,3,0,1,1,1,2,0,50,2022_Feb_22_1018,listening_fmri,3.2.4,59.93638340282408,
2,,,,,,,,,,0,0,0,0,0,2,2,2,,,,,,,,,,,,,,,,,,,,,,,,,,,,,,,,,,,,,,,,,,,,,,,,,,,,,,,,,,,,,,,,,,,,,,,,,,,,,,,,,,,,,,,,,,,,,,,,,,,,,,,,,,,,,,,,,,,,,,,,,,,,,,,,,,,,,,,,,022222,1,3,0,1,1,1,2,0,50,2022_Feb_22_1018,listening_fmri,3.2.4,59.93638340282408,
3,,,,,,,,,,0,0,0,0,0,3,3,3,0,0,0,0,0,0,0,0,0,0,0,0,,,,,,,,,,,,,,,,,,,,,,,,,,,,,,,,,,,,,,610.4418083260002,None,610.4418083260002,None,2,0.5138294620001034,610.4418083260002,None,610.4418083260002,None,610.9749171649996,None,2,0.6228505690005477,610.9749171649996,None,610.9749171649996,None,611.6406742129998,None,611.6406742129998,None,611.6406742129998,None,2,0.47908016400015185,611.6406742129998,None,612.1408759679994,None,2,1.88184004499999,612.1408759679994,None,612.1408759679994,None,614.1189475939996,None,614.1189475939996,None,614.1189475939996,None,614.1189475939996,None,614.1189475939996,None,614.1189475939996,None,614.1189475939996,None,None,614.1189475939996,None,,,,,,,,,,,,,,,,,,,,,,,,,,,,,,,,,,,022222,1,3,0,1,1,1,2,0,50,2022_Feb_22_1018,listening_fmri,3.2.4,59.93638340282408,
3,,,,,,,,,,0,0,0,0,0,3,3,3,0,0,0,0,0,0,0,0,,,,,,,,,,,,,,,,,,,,,,,,,,,,,,,,,,,,,,,,,,,,,,,,,,,,,,,,,,,,,,,,,,,,,,,,,,,,,,,,,,,,,,,,,,,,,,,633.7081654379995,None,1,0.8136054560000048,633.7081654379995,None,633.7081654379995,None,634.5575815449997,None,634.5575815449997,None,634.5575815449997,None,1,0.493057988000146,634.5575815449997,None,,,,,,,,,,,,,,,,,022222,1,3,0,1,1,1,2,0,50,2022_Feb_22_1018,listening_fmri,3.2.4,59.93638340282408,
3,parcelated_audio/43/43_1.ogg,,,,,,,,,0,0,0,0,0,3,3,3,0,0,0,0,,,,,,,,,,,,,0,0,0,0,0,0,0,0,,,,,,,,,,,,,,,,,,,,,,,,,,,,,,,,,,,,,,,,,,,,,,,,,,,,,,,,,,,,,,,,,,,,,,,,,,,,,,,,,,,,,,,,,,,,,,,,,635.0744310949999,None,1,0.5623373480002556,635.0744310949999,None,589.7446283120003,592.7506882519997,592.7557370290001,600.3439939739997,,,,,,,022222,1,3,0,1,1,1,2,0,50,2022_Feb_22_1018,listening_fmri,3.2.4,59.93638340282408,
3,parcelated_audio/43/43_2.ogg,,,,,,,,,0,0,0,0,0,3,3,3,0,0,0,0,,,,,,,,,,,,,0,0,0,0,0,1,1,1,,,,,,,,,,,,,,,,,,,,,,,,,,,,,,,,,,,,,,,,,,,,,,,,,,,,,,,,,,,,,,,,,,,,,,,,,,,,,,,,,,,,,,,,,,,,,,,,,,,,,,,,,600.3454463000003,604.1196292030004,,,,,,,022222,1,3,0,1,1,1,2,0,50,2022_Feb_22_1018,listening_fmri,3.2.4,59.93638340282408,
3,parcelated_audio/43/43_3.ogg,,,,,,,,,0,0,0,0,0,3,3,3,0,0,0,0,,,,,,,,,,,,,0,0,0,0,0,2,2,2,,,,,,,,,,,,,,,,,,,,,,,,,,,,,,,,,,,,,,,,,,,,,,,,,,,,,,,,,,,,,,,,,,,,,,,,,,,,,,,,,,,,,,,,,,,,,,,,,,,,,,,,,604.1207143879997,612.9991020949997,,,,,,,022222,1,3,0,1,1,1,2,0,50,2022_Feb_22_1018,listening_fmri,3.2.4,59.93638340282408,
3,parcelated_audio/43/43_4.ogg,,,,,,,,,0,0,0,0,0,3,3,3,0,0,0,0,,,,,,,,,,,,,0,0,0,0,0,3,3,3,,,,,,,,,,,,,,,,,,,,,,,,,,,,,,,,,,,,,,,,,,,,,,,,,,,,,,,,,,,,,,,,,,,,,,,,,,,,,,,,,,,,,,,,,,,,,,,,,,,,,,,,,613.0001390709999,621.4980857619998,,,,,,,022222,1,3,0,1,1,1,2,0,50,2022_Feb_22_1018,listening_fmri,3.2.4,59.93638340282408,
3,parcelated_audio/43/43_5.ogg,,,,,,,,,0,0,0,0,0,3,3,3,0,0,0,0,,,,,,,,,,,,,0,0,0,0,0,4,4,4,,,,,,,,,,,,,,,,,,,,,,,,,,,,,,,,,,,,,,,,,,,,,,,,,,,,,,,,,,,,,,,,,,,,,,,,,,,,,,,,,,,,,,,,,,,,,,,,,,,,,,,,,621.4985568400002,630.7585719249996,,,,,,,022222,1,3,0,1,1,1,2,0,50,2022_Feb_22_1018,listening_fmri,3.2.4,59.93638340282408,
3,parcelated_audio/43/43_6.ogg,,,,,,,,,0,0,0,0,0,3,3,3,0,0,0,0,,,,,,,,,,,,,0,0,0,0,0,5,5,5,,,,,,,,,,,,,,,,,,,,,,,,,,,,,,,,,,,,,,,,,,,,,,,,,,,,,,,,,,,,,,,,,,,,,,,,,,,,,,,,,,,,,,,,,,,,,,,,,,,,,,,,,630.7591214139998,639.8901810789998,,,,,,,022222,1,3,0,1,1,1,2,0,50,2022_Feb_22_1018,listening_fmri,3.2.4,59.93638340282408,
3,parcelated_audio/43/43_7.ogg,,,,,,,,,0,0,0,0,0,3,3,3,0,0,0,0,,,,,,,,,,,,,0,0,0,0,0,6,6,6,,,,,,,,,,,,,,,,,,,,,,,,,,,,,,,,,,,,,,,,,,,,,,,,,,,,,,,,,,,,,,,,,,,,,,,,,,,,,,,,,,,,,,,,,,,,,,,,,,,,,,,,,639.8910018390002,644.6440247719997,,,,,,,022222,1,3,0,1,1,1,2,0,50,2022_Feb_22_1018,listening_fmri,3.2.4,59.93638340282408,
3,parcelated_audio/43/43_8.ogg,,,,,,,,,0,0,0,0,0,3,3,3,0,0,0,0,,,,,,,,,,,,,0,0,0,0,0,7,7,7,,,,,,,,,,,,,,,,,,,,,,,,,,,,,,,,,,,,,,,,,,,,,,,,,,,,,,,,,,,,,,,,,,,,,,,,,,,,,,,,,,,,,,,,,,,,,,,,,,,,,,,,,644.644376701,651.188013126,,,,,,,022222,1,3,0,1,1,1,2,0,50,2022_Feb_22_1018,listening_fmri,3.2.4,59.93638340282408,
3,parcelated_audio/43/43_9.ogg,,,,,,,,,0,0,0,0,0,3,3,3,0,0,0,0,,,,,,,,,,,,,0,0,0,0,0,8,8,8,,,,,,,,,,,,,,,,,,,,,,,,,,,,,,,,,,,,,,,,,,,,,,,,,,,,,,,,,,,,,,,,,,,,,,,,,,,,,,,,,,,,,,,,,,,,,,,,,,,,,,,,,651.1883624890002,655.6939993419996,,,,,,,022222,1,3,0,1,1,1,2,0,50,2022_Feb_22_1018,listening_fmri,3.2.4,59.93638340282408,
3,parcelated_audio/43/43_10.ogg,,,,,,,,,0,0,0,0,0,3,3,3,0,0,0,0,,,,,,,,,,,,,0,0,0,0,0,9,9,9,,,,,,,,,,,,,,,,,,,,,,,,,,,,,,,,,,,,,,,,,,,,,,,,,,,,,,,,,,,,,,,,,,,,,,,,,,,,,,,,,,,,,,,,,,,,,,,,,,,,,,,,,655.6943544250003,660.5728906489999,,,,,,,022222,1,3,0,1,1,1,2,0,50,2022_Feb_22_1018,listening_fmri,3.2.4,59.93638340282408,
3,parcelated_audio/43/43_11.ogg,,,,,,,,,0,0,0,0,0,3,3,3,0,0,0,0,,,,,,,,,,,,,0,0,0,0,0,10,10,10,,,,,,,,,,,,,,,,,,,,,,,,,,,,,,,,,,,,,,,,,,,,,,,,,,,,,,,,,,,,,,,,,,,,,,,,,,,,,,,,,,,,,,,,,,,,,,,,,,,,,,,,,660.5732425749998,671.609091887,,,,,,,022222,1,3,0,1,1,1,2,0,50,2022_Feb_22_1018,listening_fmri,3.2.4,59.93638340282408,
3,parcelated_audio/43/43_12.ogg,,,,,,,,,0,0,0,0,0,3,3,3,0,0,0,0,,,,,,,,,,,,,0,0,0,0,0,11,11,11,,,,,,,,,,,,,,,,,,,,,,,,,,,,,,,,,,,,,,,,,,,,,,,,,,,,,,,,,,,,,,,,,,,,,,,,,,,,,,,,,,,,,,,,,,,,,,,,,,,,,,,,,671.609441823,677.6991525219996,,,,,,,022222,1,3,0,1,1,1,2,0,50,2022_Feb_22_1018,listening_fmri,3.2.4,59.93638340282408,
3,parcelated_audio/43/43_13.ogg,,,,,,,,,0,0,0,0,0,3,3,3,0,0,0,0,,,,,,,,,,,,,0,0,0,0,0,12,12,12,,,,,,,,,,,,,,,,,,,,,,,,,,,,,,,,,,,,,,,,,,,,,,,,,,,,,,,,,,,,,,,,,,,,,,,,,,,,,,,,,,,,,,,,,,,,,,,,,,,,,,,,,677.6998745429996,685.9391948420002,,,,,,,022222,1,3,0,1,1,1,2,0,50,2022_Feb_22_1018,listening_fmri,3.2.4,59.93638340282408,
3,parcelated_audio/43/43_14.ogg,,,,,,,,,0,0,0,0,0,3,3,3,0,0,0,0,,,,,,,,,,,,,0,0,0,0,0,13,13,13,,,,,,,,,,,,,,,,,,,,,,,,,,,,,,,,,,,,,,,,,,,,,,,,,,,,,,,,,,,,,,,,,,,,,,,,,,,,,,,,,,,,,,,,,,,,,,,,,,,,,,,,,685.939544669,694.4758226119998,,,,,,,022222,1,3,0,1,1,1,2,0,50,2022_Feb_22_1018,listening_fmri,3.2.4,59.93638340282408,
3,parcelated_audio/43/43_15.ogg,,,,,,,,,0,0,0,0,0,3,3,3,0,0,0,0,,,,,,,,,,,,,0,0,0,0,0,14,14,14,,,,,,,,,,,,,,,,,,,,,,,,,,,,,,,,,,,,,,,,,,,,,,,,,,,,,,,,,,,,,,,,,,,,,,,,,,,,,,,,,,,,,,,,,,,,,,,,,,,,,,,,,694.476188778,698.8106791810001,,,,,,,022222,1,3,0,1,1,1,2,0,50,2022_Feb_22_1018,listening_fmri,3.2.4,59.93638340282408,
3,parcelated_audio/43/43_16.ogg,,,,,,,,,0,0,0,0,0,3,3,3,0,0,0,0,,,,,,,,,,,,,0,0,0,0,0,15,15,15,,,,,,,,,,,,,,,,,,,,,,,,,,,,,,,,,,,,,,,,,,,,,,,,,,,,,,,,,,,,,,,,,,,,,,,,,,,,,,,,,,,,,,,,,,,,,,,,,,,,,,,,,698.8123694740002,703.3248197449998,,,,,,,022222,1,3,0,1,1,1,2,0,50,2022_Feb_22_1018,listening_fmri,3.2.4,59.93638340282408,
3,parcelated_audio/43/43_17.ogg,,,,,,,,,0,0,0,0,0,3,3,3,0,0,0,0,,,,,,,,,,,,,0,0,0,0,0,16,16,16,,,,,,,,,,,,,,,,,,,,,,,,,,,,,,,,,,,,,,,,,,,,,,,,,,,,,,,,,,,,,,,,,,,,,,,,,,,,,,,,,,,,,,,,,,,,,,,,,,,,,,,,,703.3253372149998,707.0968777909998,,,,,,,022222,1,3,0,1,1,1,2,0,50,2022_Feb_22_1018,listening_fmri,3.2.4,59.93638340282408,
3,parcelated_audio/43/43_18.ogg,,,,,,,,,0,0,0,0,0,3,3,3,0,0,0,0,,,,,,,,,,,,,0,0,0,0,0,17,17,17,,,,,,,,,,,,,,,,,,,,,,,,,,,,,,,,,,,,,,,,,,,,,,,,,,,,,,,,,,,,,,,,,,,,,,,,,,,,,,,,,,,,,,,,,,,,,,,,,,,,,,,,,707.0972082089997,709.305947247,,,,,,,022222,1,3,0,1,1,1,2,0,50,2022_Feb_22_1018,listening_fmri,3.2.4,59.93638340282408,
3,parcelated_audio/43/43_19.ogg,,,,,,,,,0,0,0,0,0,3,3,3,0,0,0,0,,,,,,,,,,,,,0,0,0,0,0,18,18,18,,,,,,,,,,,,,,,,,,,,,,,,,,,,,,,,,,,,,,,,,,,,,,,,,,,,,,,,,,,,,,,,,,,,,,,,,,,,,,,,,,,,,,,,,,,,,,,,,,,,,,,,,709.3062786719997,712.9621590230004,,,,,,,022222,1,3,0,1,1,1,2,0,50,2022_Feb_22_1018,listening_fmri,3.2.4,59.93638340282408,
3,parcelated_audio/43/43_20.ogg,,,,,,,,,0,0,0,0,0,3,3,3,0,0,0,0,,,,,,,,,,,,,0,0,0,0,0,19,19,19,,,,,,,,,,,,,,,,,,,,,,,,,,,,,,,,,,,,,,,,,,,,,,,,,,,,,,,,,,,,,,,,,,,,,,,,,,,,,,,,,,,,,,,,,,,,,,,,,,,,,,,,,712.962657343,720.1473616210001,,,,,,,022222,1,3,0,1,1,1,2,0,50,2022_Feb_22_1018,listening_fmri,3.2.4,59.93638340282408,
3,parcelated_audio/43/43_21.ogg,,,,,,,,,0,0,0,0,0,3,3,3,0,0,0,0,,,,,,,,,,,,,0,0,0,0,0,20,20,20,,,,,,,,,,,,,,,,,,,,,,,,,,,,,,,,,,,,,,,,,,,,,,,,,,,,,,,,,,,,,,,,,,,,,,,,,,,,,,,,,,,,,,,,,,,,,,,,,,,,,,,,,720.1476987299998,722.6329838779998,,,,,,,022222,1,3,0,1,1,1,2,0,50,2022_Feb_22_1018,listening_fmri,3.2.4,59.93638340282408,
3,parcelated_audio/43/43_22.ogg,,,,,,,,,0,0,0,0,0,3,3,3,0,0,0,0,,,,,,,,,,,,,0,0,0,0,0,21,21,21,,,,,,,,,,,,,,,,,,,,,,,,,,,,,,,,,,,,,,,,,,,,,,,,,,,,,,,,,,,,,,,,,,,,,,,,,,,,,,,,,,,,,,,,,,,,,,,,,,,,,,,,,722.6335421239996,726.0310240100002,,,,,,,022222,1,3,0,1,1,1,2,0,50,2022_Feb_22_1018,listening_fmri,3.2.4,59.93638340282408,
3,parcelated_audio/43/43_23.ogg,,,,,,,,,0,0,0,0,0,3,3,3,0,0,0,0,,,,,,,,,,,,,0,0,0,0,0,22,22,22,,,,,,,,,,,,,,,,,,,,,,,,,,,,,,,,,,,,,,,,,,,,,,,,,,,,,,,,,,,,,,,,,,,,,,,,,,,,,,,,,,,,,,,,,,,,,,,,,,,,,,,,,726.031335874,732.0689982449999,,,,,,,022222,1,3,0,1,1,1,2,0,50,2022_Feb_22_1018,listening_fmri,3.2.4,59.93638340282408,
3,parcelated_audio/43/43_24.ogg,,,,,,,,,0,0,0,0,0,3,3,3,0,0,0,0,,,,,,,,,,,,,0,0,0,0,0,23,23,23,,,,,,,,,,,,,,,,,,,,,,,,,,,,,,,,,,,,,,,,,,,,,,,,,,,,,,,,,,,,,,,,,,,,,,,,,,,,,,,,,,,,,,,,,,,,,,,,,,,,,,,,,732.0693503079997,738.4209783900001,,,,,,,022222,1,3,0,1,1,1,2,0,50,2022_Feb_22_1018,listening_fmri,3.2.4,59.93638340282408,
3,parcelated_audio/43/43_25.ogg,,,,,,,,,0,0,0,0,0,3,3,3,0,0,0,0,,,,,,,,,,,,,0,0,0,0,0,24,24,24,,,,,,,,,,,,,,,,,,,,,,,,,,,,,,,,,,,,,,,,,,,,,,,,,,,,,,,,,,,,,,,,,,,,,,,,,,,,,,,,,,,,,,,,,,,,,,,,,,,,,,,,,738.4214600609998,743.4774595129998,,,,,,,022222,1,3,0,1,1,1,2,0,50,2022_Feb_22_1018,listening_fmri,3.2.4,59.93638340282408,
3,parcelated_audio/43/43_26.ogg,,,,,,,,,0,0,0,0,0,3,3,3,0,0,0,0,,,,,,,,,,,,,0,0,0,0,0,25,25,25,,,,,,,,,,,,,,,,,,,,,,,,,,,,,,,,,,,,,,,,,,,,,,,,,,,,,,,,,,,,,,,,,,,,,,,,,,,,,,,,,,,,,,,,,,,,,,,,,,,,,,,,,743.4777352570004,752.0441123960004,,,,,,,022222,1,3,0,1,1,1,2,0,50,2022_Feb_22_1018,listening_fmri,3.2.4,59.93638340282408,
3,parcelated_audio/43/43_27.ogg,,,,,,,,,0,0,0,0,0,3,3,3,0,0,0,0,,,,,,,,,,,,,0,0,0,0,0,26,26,26,,,,,,,,,,,,,,,,,,,,,,,,,,,,,,,,,,,,,,,,,,,,,,,,,,,,,,,,,,,,,,,,,,,,,,,,,,,,,,,,,,,,,,,,,,,,,,,,,,,,,,,,,752.0444544420002,756.428172726,,,,,,,022222,1,3,0,1,1,1,2,0,50,2022_Feb_22_1018,listening_fmri,3.2.4,59.93638340282408,
3,parcelated_audio/43/43_28.ogg,,,,,,,,,0,0,0,0,0,3,3,3,0,0,0,0,,,,,,,,,,,,,0,0,0,0,0,27,27,27,,,,,,,,,,,,,,,,,,,,,,,,,,,,,,,,,,,,,,,,,,,,,,,,,,,,,,,,,,,,,,,,,,,,,,,,,,,,,,,,,,,,,,,,,,,,,,,,,,,,,,,,,756.4285261910004,761.3969626169996,,,,,,,022222,1,3,0,1,1,1,2,0,50,2022_Feb_22_1018,listening_fmri,3.2.4,59.93638340282408,
3,parcelated_audio/43/43_29.ogg,,,,,,,,,0,0,0,0,0,3,3,3,0,0,0,0,,,,,,,,,,,,,0,0,0,0,0,28,28,28,,,,,,,,,,,,,,,,,,,,,,,,,,,,,,,,,,,,,,,,,,,,,,,,,,,,,,,,,,,,,,,,,,,,,,,,,,,,,,,,,,,,,,,,,,,,,,,,,,,,,,,,,761.3973288599996,767.5410838479997,,,,,,,022222,1,3,0,1,1,1,2,0,50,2022_Feb_22_1018,listening_fmri,3.2.4,59.93638340282408,
3,,,,,,,,,,0,0,0,0,0,3,3,3,0,0,0,0,,,,,,,,,,,,,0,0,0,0,,,,,,,,,,,,,,,,,,,,,,,,,,,,,,,,,,,,,,,,,,,,,,,,,,,,,,,,,,,,,,,,,,,,,,,,,,,,,,,,,,,,,,,,,,,,,,,,,,,,,,,,,,,,,,,,,,,,,022222,1,3,0,1,1,1,2,0,50,2022_Feb_22_1018,listening_fmri,3.2.4,59.93638340282408,
3,,,,,,,,,,0,0,0,0,0,3,3,3,0,0,0,0,,,,,,,,,,,,,,,,,,,,,,,,,,,,,,,,,,,,,,,,,,767.5415507379998,773.5421539020003,813.458818527,None,,,,,,,,,,,,,,,,,,,,,,,,,,,,,,,,,,,,,,,,,,,,,,,,,,,,,,,,,,,,,,,,,,,,,,,,,,,,,,,,,,819.4585313069997,None,819.4585313069997,None,,,022222,1,3,0,1,1,1,2,0,50,2022_Feb_22_1018,listening_fmri,3.2.4,59.93638340282408,
3,,,,,,,,,,0,0,0,0,0,3,3,3,,,,,,,,,,,,,,,,,,,,,,,,,,,,,,,,,,,,,,,,,,,,,,,,,,,,,,,,,,,,,,,,,,,,,,,,,,,,,,,,,,,,,,,,,,,,,,,,,,,,,,,,,,,,,,,,,,,,,,,,,,,,,,,,,,,,,,,,,022222,1,3,0,1,1,1,2,0,50,2022_Feb_22_1018,listening_fmri,3.2.4,59.93638340282408,
4,,,,,,,,,,0,0,0,0,0,4,4,4,0,0,0,0,0,0,0,0,0,0,0,0,,,,,,,,,,,,,,,,,,,,,,,,,,,,,,,,,,,,,,820.4752136510001,None,820.4752136510001,None,1,0.23542288699991332,820.4752136510001,None,820.4752136510001,None,820.7412368740002,None,1,0.8004596729997502,820.7412368740002,None,820.7412368740002,None,821.5759821819997,None,821.5759821819997,None,821.5759821819997,None,1,1.303781349000019,821.5759821819997,None,822.9080147290001,None,1,0.7427369330007423,822.9080147290001,None,822.9080147290001,None,823.748596766,None,823.748596766,None,823.748596766,None,823.748596766,None,823.748596766,None,823.748596766,None,823.748596766,None,None,823.748596766,None,,,,,,,,,,,,,,,,,,,,,,,,,,,,,,,,,,,022222,1,3,0,1,1,1,2,0,50,2022_Feb_22_1018,listening_fmri,3.2.4,59.93638340282408,
4,,,,,,,,,,0,0,0,0,0,4,4,4,0,0,0,0,0,0,0,0,,,,,,,,,,,,,,,,,,,,,,,,,,,,,,,,,,,,,,,,,,,,,,,,,,,,,,,,,,,,,,,,,,,,,,,,,,,,,,,,,,,,,,,,,,,,,,,842.558606305,None,2,0.757164943999669,842.558606305,None,842.558606305,None,843.3585917189998,None,843.3585917189998,None,843.3585917189998,None,2,0.7891725959998439,843.3585917189998,None,,,,,,,,,,,,,,,,,022222,1,3,0,1,1,1,2,0,50,2022_Feb_22_1018,listening_fmri,3.2.4,59.93638340282408,
4,parcelated_audio/12/12_1.ogg,,,,,,,,,0,0,0,0,0,4,4,4,0,0,0,0,,,,,,,,,,,,,0,0,0,0,0,0,0,0,,,,,,,,,,,,,,,,,,,,,,,,,,,,,,,,,,,,,,,,,,,,,,,,,,,,,,,,,,,,,,,,,,,,,,,,,,,,,,,,,,,,,,,,,,,,,,,,,844.1758435569996,None,2,0.6157902560007642,844.1758435569996,None,798.917052329,801.9171403470004,801.9225207149998,811.7729668400002,,,,,,,022222,1,3,0,1,1,1,2,0,50,2022_Feb_22_1018,listening_fmri,3.2.4,59.93638340282408,
4,parcelated_audio/12/12_2.ogg,,,,,,,,,0,0,0,0,0,4,4,4,0,0,0,0,,,,,,,,,,,,,0,0,0,0,0,1,1,1,,,,,,,,,,,,,,,,,,,,,,,,,,,,,,,,,,,,,,,,,,,,,,,,,,,,,,,,,,,,,,,,,,,,,,,,,,,,,,,,,,,,,,,,,,,,,,,,,,,,,,,,,811.7734603470003,819.5141578019998,,,,,,,022222,1,3,0,1,1,1,2,0,50,2022_Feb_22_1018,listening_fmri,3.2.4,59.93638340282408,
4,parcelated_audio/12/12_3.ogg,,,,,,,,,0,0,0,0,0,4,4,4,0,0,0,0,,,,,,,,,,,,,0,0,0,0,0,2,2,2,,,,,,,,,,,,,,,,,,,,,,,,,,,,,,,,,,,,,,,,,,,,,,,,,,,,,,,,,,,,,,,,,,,,,,,,,,,,,,,,,,,,,,,,,,,,,,,,,,,,,,,,,819.5151841510001,826.8752195170005,,,,,,,022222,1,3,0,1,1,1,2,0,50,2022_Feb_22_1018,listening_fmri,3.2.4,59.93638340282408,
4,parcelated_audio/12/12_4.ogg,,,,,,,,,0,0,0,0,0,4,4,4,0,0,0,0,,,,,,,,,,,,,0,0,0,0,0,3,3,3,,,,,,,,,,,,,,,,,,,,,,,,,,,,,,,,,,,,,,,,,,,,,,,,,,,,,,,,,,,,,,,,,,,,,,,,,,,,,,,,,,,,,,,,,,,,,,,,,,,,,,,,,826.8755286620003,833.4315680550003,,,,,,,022222,1,3,0,1,1,1,2,0,50,2022_Feb_22_1018,listening_fmri,3.2.4,59.93638340282408,
4,parcelated_audio/12/12_5.ogg,,,,,,,,,0,0,0,0,0,4,4,4,0,0,0,0,,,,,,,,,,,,,0,0,0,0,0,4,4,4,,,,,,,,,,,,,,,,,,,,,,,,,,,,,,,,,,,,,,,,,,,,,,,,,,,,,,,,,,,,,,,,,,,,,,,,,,,,,,,,,,,,,,,,,,,,,,,,,,,,,,,,,833.4319231209997,841.3801393580002,,,,,,,022222,1,3,0,1,1,1,2,0,50,2022_Feb_22_1018,listening_fmri,3.2.4,59.93638340282408,
4,parcelated_audio/12/12_6.ogg,,,,,,,,,0,0,0,0,0,4,4,4,0,0,0,0,,,,,,,,,,,,,0,0,0,0,0,5,5,5,,,,,,,,,,,,,,,,,,,,,,,,,,,,,,,,,,,,,,,,,,,,,,,,,,,,,,,,,,,,,,,,,,,,,,,,,,,,,,,,,,,,,,,,,,,,,,,,,,,,,,,,,841.3804898740004,844.9810804860003,,,,,,,022222,1,3,0,1,1,1,2,0,50,2022_Feb_22_1018,listening_fmri,3.2.4,59.93638340282408,
4,parcelated_audio/12/12_7.ogg,,,,,,,,,0,0,0,0,0,4,4,4,0,0,0,0,,,,,,,,,,,,,0,0,0,0,0,6,6,6,,,,,,,,,,,,,,,,,,,,,,,,,,,,,,,,,,,,,,,,,,,,,,,,,,,,,,,,,,,,,,,,,,,,,,,,,,,,,,,,,,,,,,,,,,,,,,,,,,,,,,,,,844.9814307689999,855.3061345219999,,,,,,,022222,1,3,0,1,1,1,2,0,50,2022_Feb_22_1018,listening_fmri,3.2.4,59.93638340282408,
4,parcelated_audio/12/12_8.ogg,,,,,,,,,0,0,0,0,0,4,4,4,0,0,0,0,,,,,,,,,,,,,0,0,0,0,0,7,7,7,,,,,,,,,,,,,,,,,,,,,,,,,,,,,,,,,,,,,,,,,,,,,,,,,,,,,,,,,,,,,,,,,,,,,,,,,,,,,,,,,,,,,,,,,,,,,,,,,,,,,,,,,855.306487624,864.0781500239996,,,,,,,022222,1,3,0,1,1,1,2,0,50,2022_Feb_22_1018,listening_fmri,3.2.4,59.93638340282408,
4,parcelated_audio/12/12_9.ogg,,,,,,,,,0,0,0,0,0,4,4,4,0,0,0,0,,,,,,,,,,,,,0,0,0,0,0,8,8,8,,,,,,,,,,,,,,,,,,,,,,,,,,,,,,,,,,,,,,,,,,,,,,,,,,,,,,,,,,,,,,,,,,,,,,,,,,,,,,,,,,,,,,,,,,,,,,,,,,,,,,,,,864.078491445,867.9218547040005,,,,,,,022222,1,3,0,1,1,1,2,0,50,2022_Feb_22_1018,listening_fmri,3.2.4,59.93638340282408,
4,parcelated_audio/12/12_10.ogg,,,,,,,,,0,0,0,0,0,4,4,4,0,0,0,0,,,,,,,,,,,,,0,0,0,0,0,9,9,9,,,,,,,,,,,,,,,,,,,,,,,,,,,,,,,,,,,,,,,,,,,,,,,,,,,,,,,,,,,,,,,,,,,,,,,,,,,,,,,,,,,,,,,,,,,,,,,,,,,,,,,,,867.9222065660001,872.7243565169997,,,,,,,022222,1,3,0,1,1,1,2,0,50,2022_Feb_22_1018,listening_fmri,3.2.4,59.93638340282408,
4,parcelated_audio/12/12_11.ogg,,,,,,,,,0,0,0,0,0,4,4,4,0,0,0,0,,,,,,,,,,,,,0,0,0,0,0,10,10,10,,,,,,,,,,,,,,,,,,,,,,,,,,,,,,,,,,,,,,,,,,,,,,,,,,,,,,,,,,,,,,,,,,,,,,,,,,,,,,,,,,,,,,,,,,,,,,,,,,,,,,,,,872.7248347899999,875.5951153560004,,,,,,,022222,1,3,0,1,1,1,2,0,50,2022_Feb_22_1018,listening_fmri,3.2.4,59.93638340282408,
4,parcelated_audio/12/12_12.ogg,,,,,,,,,0,0,0,0,0,4,4,4,0,0,0,0,,,,,,,,,,,,,0,0,0,0,0,11,11,11,,,,,,,,,,,,,,,,,,,,,,,,,,,,,,,,,,,,,,,,,,,,,,,,,,,,,,,,,,,,,,,,,,,,,,,,,,,,,,,,,,,,,,,,,,,,,,,,,,,,,,,,,875.5954681340004,884.4581495959997,,,,,,,022222,1,3,0,1,1,1,2,0,50,2022_Feb_22_1018,listening_fmri,3.2.4,59.93638340282408,
4,parcelated_audio/12/12_13.ogg,,,,,,,,,0,0,0,0,0,4,4,4,0,0,0,0,,,,,,,,,,,,,0,0,0,0,0,12,12,12,,,,,,,,,,,,,,,,,,,,,,,,,,,,,,,,,,,,,,,,,,,,,,,,,,,,,,,,,,,,,,,,,,,,,,,,,,,,,,,,,,,,,,,,,,,,,,,,,,,,,,,,,884.4611208259998,889.7211027930002,,,,,,,022222,1,3,0,1,1,1,2,0,50,2022_Feb_22_1018,listening_fmri,3.2.4,59.93638340282408,
4,parcelated_audio/12/12_14.ogg,,,,,,,,,0,0,0,0,0,4,4,4,0,0,0,0,,,,,,,,,,,,,0,0,0,0,0,13,13,13,,,,,,,,,,,,,,,,,,,,,,,,,,,,,,,,,,,,,,,,,,,,,,,,,,,,,,,,,,,,,,,,,,,,,,,,,,,,,,,,,,,,,,,,,,,,,,,,,,,,,,,,,889.7214385519997,894.6481361159999,,,,,,,022222,1,3,0,1,1,1,2,0,50,2022_Feb_22_1018,listening_fmri,3.2.4,59.93638340282408,
4,parcelated_audio/12/12_15.ogg,,,,,,,,,0,0,0,0,0,4,4,4,0,0,0,0,,,,,,,,,,,,,0,0,0,0,0,14,14,14,,,,,,,,,,,,,,,,,,,,,,,,,,,,,,,,,,,,,,,,,,,,,,,,,,,,,,,,,,,,,,,,,,,,,,,,,,,,,,,,,,,,,,,,,,,,,,,,,,,,,,,,,894.6484405859997,900.6411209410003,,,,,,,022222,1,3,0,1,1,1,2,0,50,2022_Feb_22_1018,listening_fmri,3.2.4,59.93638340282408,
4,parcelated_audio/12/12_16.ogg,,,,,,,,,0,0,0,0,0,4,4,4,0,0,0,0,,,,,,,,,,,,,0,0,0,0,0,15,15,15,,,,,,,,,,,,,,,,,,,,,,,,,,,,,,,,,,,,,,,,,,,,,,,,,,,,,,,,,,,,,,,,,,,,,,,,,,,,,,,,,,,,,,,,,,,,,,,,,,,,,,,,,900.641474599,904.8501384019996,,,,,,,022222,1,3,0,1,1,1,2,0,50,2022_Feb_22_1018,listening_fmri,3.2.4,59.93638340282408,
4,parcelated_audio/12/12_17.ogg,,,,,,,,,0,0,0,0,0,4,4,4,0,0,0,0,,,,,,,,,,,,,0,0,0,0,0,16,16,16,,,,,,,,,,,,,,,,,,,,,,,,,,,,,,,,,,,,,,,,,,,,,,,,,,,,,,,,,,,,,,,,,,,,,,,,,,,,,,,,,,,,,,,,,,,,,,,,,,,,,,,,,904.8506034810002,909.834256224,,,,,,,022222,1,3,0,1,1,1,2,0,50,2022_Feb_22_1018,listening_fmri,3.2.4,59.93638340282408,
4,parcelated_audio/12/12_18.ogg,,,,,,,,,0,0,0,0,0,4,4,4,0,0,0,0,,,,,,,,,,,,,0,0,0,0,0,17,17,17,,,,,,,,,,,,,,,,,,,,,,,,,,,,,,,,,,,,,,,,,,,,,,,,,,,,,,,,,,,,,,,,,,,,,,,,,,,,,,,,,,,,,,,,,,,,,,,,,,,,,,,,,909.8355211539997,919.0501635169999,,,,,,,022222,1,3,0,1,1,1,2,0,50,2022_Feb_22_1018,listening_fmri,3.2.4,59.93638340282408,
4,parcelated_audio/12/12_19.ogg,,,,,,,,,0,0,0,0,0,4,4,4,0,0,0,0,,,,,,,,,,,,,0,0,0,0,0,18,18,18,,,,,,,,,,,,,,,,,,,,,,,,,,,,,,,,,,,,,,,,,,,,,,,,,,,,,,,,,,,,,,,,,,,,,,,,,,,,,,,,,,,,,,,,,,,,,,,,,,,,,,,,,919.051371815,929.0874312049996,,,,,,,022222,1,3,0,1,1,1,2,0,50,2022_Feb_22_1018,listening_fmri,3.2.4,59.93638340282408,
4,parcelated_audio/12/12_20.ogg,,,,,,,,,0,0,0,0,0,4,4,4,0,0,0,0,,,,,,,,,,,,,0,0,0,0,0,19,19,19,,,,,,,,,,,,,,,,,,,,,,,,,,,,,,,,,,,,,,,,,,,,,,,,,,,,,,,,,,,,,,,,,,,,,,,,,,,,,,,,,,,,,,,,,,,,,,,,,,,,,,,,,929.0877944360004,936.8906289370002,,,,,,,022222,1,3,0,1,1,1,2,0,50,2022_Feb_22_1018,listening_fmri,3.2.4,59.93638340282408,
4,parcelated_audio/12/12_21.ogg,,,,,,,,,0,0,0,0,0,4,4,4,0,0,0,0,,,,,,,,,,,,,0,0,0,0,0,20,20,20,,,,,,,,,,,,,,,,,,,,,,,,,,,,,,,,,,,,,,,,,,,,,,,,,,,,,,,,,,,,,,,,,,,,,,,,,,,,,,,,,,,,,,,,,,,,,,,,,,,,,,,,,936.8909735250004,942.3913945440004,,,,,,,022222,1,3,0,1,1,1,2,0,50,2022_Feb_22_1018,listening_fmri,3.2.4,59.93638340282408,
4,parcelated_audio/12/12_22.ogg,,,,,,,,,0,0,0,0,0,4,4,4,0,0,0,0,,,,,,,,,,,,,0,0,0,0,0,21,21,21,,,,,,,,,,,,,,,,,,,,,,,,,,,,,,,,,,,,,,,,,,,,,,,,,,,,,,,,,,,,,,,,,,,,,,,,,,,,,,,,,,,,,,,,,,,,,,,,,,,,,,,,,942.3917306199996,946.2529472330002,,,,,,,022222,1,3,0,1,1,1,2,0,50,2022_Feb_22_1018,listening_fmri,3.2.4,59.93638340282408,
4,parcelated_audio/12/12_23.ogg,,,,,,,,,0,0,0,0,0,4,4,4,0,0,0,0,,,,,,,,,,,,,0,0,0,0,0,22,22,22,,,,,,,,,,,,,,,,,,,,,,,,,,,,,,,,,,,,,,,,,,,,,,,,,,,,,,,,,,,,,,,,,,,,,,,,,,,,,,,,,,,,,,,,,,,,,,,,,,,,,,,,,946.2532971779997,953.0970918170001,,,,,,,022222,1,3,0,1,1,1,2,0,50,2022_Feb_22_1018,listening_fmri,3.2.4,59.93638340282408,
4,parcelated_audio/12/12_24.ogg,,,,,,,,,0,0,0,0,0,4,4,4,0,0,0,0,,,,,,,,,,,,,0,0,0,0,0,23,23,23,,,,,,,,,,,,,,,,,,,,,,,,,,,,,,,,,,,,,,,,,,,,,,,,,,,,,,,,,,,,,,,,,,,,,,,,,,,,,,,,,,,,,,,,,,,,,,,,,,,,,,,,,953.097574504,957.2391134220002,,,,,,,022222,1,3,0,1,1,1,2,0,50,2022_Feb_22_1018,listening_fmri,3.2.4,59.93638340282408,
4,parcelated_audio/12/12_25.ogg,,,,,,,,,0,0,0,0,0,4,4,4,0,0,0,0,,,,,,,,,,,,,0,0,0,0,0,24,24,24,,,,,,,,,,,,,,,,,,,,,,,,,,,,,,,,,,,,,,,,,,,,,,,,,,,,,,,,,,,,,,,,,,,,,,,,,,,,,,,,,,,,,,,,,,,,,,,,,,,,,,,,,957.2395708620002,967.6770995860002,,,,,,,022222,1,3,0,1,1,1,2,0,50,2022_Feb_22_1018,listening_fmri,3.2.4,59.93638340282408,
4,parcelated_audio/12/12_26.ogg,,,,,,,,,0,0,0,0,0,4,4,4,0,0,0,0,,,,,,,,,,,,,0,0,0,0,0,25,25,25,,,,,,,,,,,,,,,,,,,,,,,,,,,,,,,,,,,,,,,,,,,,,,,,,,,,,,,,,,,,,,,,,,,,,,,,,,,,,,,,,,,,,,,,,,,,,,,,,,,,,,,,,967.6774531449996,972.911639032,,,,,,,022222,1,3,0,1,1,1,2,0,50,2022_Feb_22_1018,listening_fmri,3.2.4,59.93638340282408,
4,parcelated_audio/12/12_27.ogg,,,,,,,,,0,0,0,0,0,4,4,4,0,0,0,0,,,,,,,,,,,,,0,0,0,0,0,26,26,26,,,,,,,,,,,,,,,,,,,,,,,,,,,,,,,,,,,,,,,,,,,,,,,,,,,,,,,,,,,,,,,,,,,,,,,,,,,,,,,,,,,,,,,,,,,,,,,,,,,,,,,,,972.9119925669997,980.596740085,,,,,,,022222,1,3,0,1,1,1,2,0,50,2022_Feb_22_1018,listening_fmri,3.2.4,59.93638340282408,
4,parcelated_audio/12/12_28.ogg,,,,,,,,,0,0,0,0,0,4,4,4,0,0,0,0,,,,,,,,,,,,,0,0,0,0,0,27,27,27,,,,,,,,,,,,,,,,,,,,,,,,,,,,,,,,,,,,,,,,,,,,,,,,,,,,,,,,,,,,,,,,,,,,,,,,,,,,,,,,,,,,,,,,,,,,,,,,,,,,,,,,,980.5970886729997,991.5834817870004,,,,,,,022222,1,3,0,1,1,1,2,0,50,2022_Feb_22_1018,listening_fmri,3.2.4,59.93638340282408,
4,parcelated_audio/12/12_29.ogg,,,,,,,,,0,0,0,0,0,4,4,4,0,0,0,0,,,,,,,,,,,,,0,0,0,0,0,28,28,28,,,,,,,,,,,,,,,,,,,,,,,,,,,,,,,,,,,,,,,,,,,,,,,,,,,,,,,,,,,,,,,,,,,,,,,,,,,,,,,,,,,,,,,,,,,,,,,,,,,,,,,,,991.5838346369997,997.6683287350002,,,,,,,022222,1,3,0,1,1,1,2,0,50,2022_Feb_22_1018,listening_fmri,3.2.4,59.93638340282408,
4,parcelated_audio/12/12_30.ogg,,,,,,,,,0,0,0,0,0,4,4,4,0,0,0,0,,,,,,,,,,,,,0,0,0,0,0,29,29,29,,,,,,,,,,,,,,,,,,,,,,,,,,,,,,,,,,,,,,,,,,,,,,,,,,,,,,,,,,,,,,,,,,,,,,,,,,,,,,,,,,,,,,,,,,,,,,,,,,,,,,,,,997.6687912319999,1004.6172235999998,,,,,,,022222,1,3,0,1,1,1,2,0,50,2022_Feb_22_1018,listening_fmri,3.2.4,59.93638340282408,
4,parcelated_audio/12/12_31.ogg,,,,,,,,,0,0,0,0,0,4,4,4,0,0,0,0,,,,,,,,,,,,,0,0,0,0,0,30,30,30,,,,,,,,,,,,,,,,,,,,,,,,,,,,,,,,,,,,,,,,,,,,,,,,,,,,,,,,,,,,,,,,,,,,,,,,,,,,,,,,,,,,,,,,,,,,,,,,,,,,,,,,,1004.6175767299997,1011.7521845590004,,,,,,,022222,1,3,0,1,1,1,2,0,50,2022_Feb_22_1018,listening_fmri,3.2.4,59.93638340282408,
4,,,,,,,,,,0,0,0,0,0,4,4,4,0,0,0,0,,,,,,,,,,,,,0,0,0,0,,,,,,,,,,,,,,,,,,,,,,,,,,,,,,,,,,,,,,,,,,,,,,,,,,,,,,,,,,,,,,,,,,,,,,,,,,,,,,,,,,,,,,,,,,,,,,,,,,,,,,,,,,,,,,,,,,,,,022222,1,3,0,1,1,1,2,0,50,2022_Feb_22_1018,listening_fmri,3.2.4,59.93638340282408,
4,,,,,,,,,,0,0,0,0,0,4,4,4,0,0,0,0,,,,,,,,,,,,,,,,,,,,,,,,,,,,,,,,,,,,,,,,,,1011.7525609990003,1017.7514830719997,1057.6759184359994,None,,,,,,,,,,,,,,,,,,,,,,,,,,,,,,,,,,,,,,,,,,,,,,,,,,,,,,,,,,,,,,,,,,,,,,,,,,,,,,,,,,1063.6759621420001,None,1063.6759621420001,None,,,022222,1,3,0,1,1,1,2,0,50,2022_Feb_22_1018,listening_fmri,3.2.4,59.93638340282408,
4,,,,,,,,,,0,0,0,0,0,4,4,4,,,,,,,,,,,,,,,,,,,,,,,,,,,,,,,,,,,,,,,,,,,,,,,,,,,,,,,,,,,,,,,,,,,,,,,,,,,,,,,,,,,,,,,,,,,,,,,,,,,,,,,,,,,,,,,,,,,,,,,,,,,,,,,,,,,,,,,,,022222,1,3,0,1,1,1,2,0,50,2022_Feb_22_1018,listening_fmri,3.2.4,59.93638340282408,
5,parcelated_audio/34/34_1.ogg,,,,,,,,,0,0,0,0,0,5,5,5,0,0,0,0,,,,,,,,,,,,,0,0,0,0,0,0,0,0,,,,,,,,,,,,,,,,,,,,,,,,,,1064.7094195189998,None,1064.7094195189998,None,8,0.49533360700024787,1064.7094195189998,None,1064.7094195189998,None,,,,,,,,,,,,,,,,,,,,,,,,,,,,,,,,,,,,,,,,,,,,,,,,,,,,,,,,,,,,,,1065.225379127,None,8,0.5243914749999021,1065.225379127,None,1019.8574646539996,1022.8677373770001,1022.8727703620002,1031.5680861759997,,,,,,,022222,1,3,0,1,1,1,2,0,50,2022_Feb_22_1018,listening_fmri,3.2.4,59.93638340282408,
5,parcelated_audio/34/34_2.ogg,,,,,,,,,0,0,0,0,0,5,5,5,0,0,0,0,,,,,,,,,,,,,0,0,0,0,0,1,1,1,,,,,,,,,,,,,,,,,,,,,,,,,,,,,,,,,,,,,,,,,,,,,,,,,,,,,,,,,,,,,,,,,,,,,,,,,,,,,,,,,,,,,,,,,,,,,,,,,,,,,,,,,1031.5684115950003,1036.1221271979998,,,,,,,022222,1,3,0,1,1,1,2,0,50,2022_Feb_22_1018,listening_fmri,3.2.4,59.93638340282408,
5,parcelated_audio/34/34_3.ogg,,,,,,,,,0,0,0,0,0,5,5,5,0,0,0,0,,,,,,,,,,,,,0,0,0,0,0,2,2,2,,,,,,,,,,,,,,,,,,,,,,,,,,,,,,,,,,,,,,,,,,,,,,,,,,,,,,,,,,,,,,,,,,,,,,,,,,,,,,,,,,,,,,,,,,,,,,,,,,,,,,,,,1036.122484041,1040.8016600799997,,,,,,,022222,1,3,0,1,1,1,2,0,50,2022_Feb_22_1018,listening_fmri,3.2.4,59.93638340282408,
5,parcelated_audio/34/34_4.ogg,,,,,,,,,0,0,0,0,0,5,5,5,0,0,0,0,,,,,,,,,,,,,0,0,0,0,0,3,3,3,,,,,,,,,,,,,,,,,,,,,,,,,,,,,,,,,,,,,,,,,,,,,,,,,,,,,,,,,,,,,,,,,,,,,,,,,,,,,,,,,,,,,,,,,,,,,,,,,,,,,,,,,1040.802025853,1050.4101477440004,,,,,,,022222,1,3,0,1,1,1,2,0,50,2022_Feb_22_1018,listening_fmri,3.2.4,59.93638340282408,
5,parcelated_audio/34/34_5.ogg,,,,,,,,,0,0,0,0,0,5,5,5,0,0,0,0,,,,,,,,,,,,,0,0,0,0,0,4,4,4,,,,,,,,,,,,,,,,,,,,,,,,,,,,,,,,,,,,,,,,,,,,,,,,,,,,,,,,,,,,,,,,,,,,,,,,,,,,,,,,,,,,,,,,,,,,,,,,,,,,,,,,,1050.4105018579999,1060.8299504319998,,,,,,,022222,1,3,0,1,1,1,2,0,50,2022_Feb_22_1018,listening_fmri,3.2.4,59.93638340282408,
5,parcelated_audio/34/34_6.ogg,,,,,,,,,0,0,0,0,0,5,5,5,0,0,0,0,,,,,,,,,,,,,0,0,0,0,0,5,5,5,,,,,,,,,,,,,,,,,,,,,,,,,,,,,,,,,,,,,,,,,,,,,,,,,,,,,,,,,,,,,,,,,,,,,,,,,,,,,,,,,,,,,,,,,,,,,,,,,,,,,,,,,1060.830302426,1069.5381434670003,,,,,,,022222,1,3,0,1,1,1,2,0,50,2022_Feb_22_1018,listening_fmri,3.2.4,59.93638340282408,
5,parcelated_audio/34/34_7.ogg,,,,,,,,,0,0,0,0,0,5,5,5,0,0,0,0,,,,,,,,,,,,,0,0,0,0,0,6,6,6,,,,,,,,,,,,,,,,,,,,,,,,,,,,,,,,,,,,,,,,,,,,,,,,,,,,,,,,,,,,,,,,,,,,,,,,,,,,,,,,,,,,,,,,,,,,,,,,,,,,,,,,,1069.5384932660004,1075.5247380650003,,,,,,,022222,1,3,0,1,1,1,2,0,50,2022_Feb_22_1018,listening_fmri,3.2.4,59.93638340282408,
5,parcelated_audio/34/34_8.ogg,,,,,,,,,0,0,0,0,0,5,5,5,0,0,0,0,,,,,,,,,,,,,0,0,0,0,0,7,7,7,,,,,,,,,,,,,,,,,,,,,,,,,,,,,,,,,,,,,,,,,,,,,,,,,,,,,,,,,,,,,,,,,,,,,,,,,,,,,,,,,,,,,,,,,,,,,,,,,,,,,,,,,1075.5250895109998,1083.4952753559996,,,,,,,022222,1,3,0,1,1,1,2,0,50,2022_Feb_22_1018,listening_fmri,3.2.4,59.93638340282408,
5,parcelated_audio/34/34_9.ogg,,,,,,,,,0,0,0,0,0,5,5,5,0,0,0,0,,,,,,,,,,,,,0,0,0,0,0,8,8,8,,,,,,,,,,,,,,,,,,,,,,,,,,,,,,,,,,,,,,,,,,,,,,,,,,,,,,,,,,,,,,,,,,,,,,,,,,,,,,,,,,,,,,,,,,,,,,,,,,,,,,,,,1083.4961617980002,1088.2842024409997,,,,,,,022222,1,3,0,1,1,1,2,0,50,2022_Feb_22_1018,listening_fmri,3.2.4,59.93638340282408,
5,parcelated_audio/34/34_10.ogg,,,,,,,,,0,0,0,0,0,5,5,5,0,0,0,0,,,,,,,,,,,,,0,0,0,0,0,9,9,9,,,,,,,,,,,,,,,,,,,,,,,,,,,,,,,,,,,,,,,,,,,,,,,,,,,,,,,,,,,,,,,,,,,,,,,,,,,,,,,,,,,,,,,,,,,,,,,,,,,,,,,,,1088.2847293480004,1095.3908161610002,,,,,,,022222,1,3,0,1,1,1,2,0,50,2022_Feb_22_1018,listening_fmri,3.2.4,59.93638340282408,
5,parcelated_audio/34/34_11.ogg,,,,,,,,,0,0,0,0,0,5,5,5,0,0,0,0,,,,,,,,,,,,,0,0,0,0,0,10,10,10,,,,,,,,,,,,,,,,,,,,,,,,,,,,,,,,,,,,,,,,,,,,,,,,,,,,,,,,,,,,,,,,,,,,,,,,,,,,,,,,,,,,,,,,,,,,,,,,,,,,,,,,,1095.3912774710002,1098.8279962680003,,,,,,,022222,1,3,0,1,1,1,2,0,50,2022_Feb_22_1018,listening_fmri,3.2.4,59.93638340282408,
5,parcelated_audio/34/34_12.ogg,,,,,,,,,0,0,0,0,0,5,5,5,0,0,0,0,,,,,,,,,,,,,0,0,0,0,0,11,11,11,,,,,,,,,,,,,,,,,,,,,,,,,,,,,,,,,,,,,,,,,,,,,,,,,,,,,,,,,,,,,,,,,,,,,,,,,,,,,,,,,,,,,,,,,,,,,,,,,,,,,,,,,1098.8283483170003,1106.9900798840004,,,,,,,022222,1,3,0,1,1,1,2,0,50,2022_Feb_22_1018,listening_fmri,3.2.4,59.93638340282408,
5,parcelated_audio/34/34_13.ogg,,,,,,,,,0,0,0,0,0,5,5,5,0,0,0,0,,,,,,,,,,,,,0,0,0,0,0,12,12,12,,,,,,,,,,,,,,,,,,,,,,,,,,,,,,,,,,,,,,,,,,,,,,,,,,,,,,,,,,,,,,,,,,,,,,,,,,,,,,,,,,,,,,,,,,,,,,,,,,,,,,,,,1106.9904282829998,1110.9847139970002,,,,,,,022222,1,3,0,1,1,1,2,0,50,2022_Feb_22_1018,listening_fmri,3.2.4,59.93638340282408,
5,parcelated_audio/34/34_14.ogg,,,,,,,,,0,0,0,0,0,5,5,5,0,0,0,0,,,,,,,,,,,,,0,0,0,0,0,13,13,13,,,,,,,,,,,,,,,,,,,,,,,,,,,,,,,,,,,,,,,,,,,,,,,,,,,,,,,,,,,,,,,,,,,,,,,,,,,,,,,,,,,,,,,,,,,,,,,,,,,,,,,,,1110.9852825020002,1115.6448383129996,,,,,,,022222,1,3,0,1,1,1,2,0,50,2022_Feb_22_1018,listening_fmri,3.2.4,59.93638340282408,
5,parcelated_audio/34/34_15.ogg,,,,,,,,,0,0,0,0,0,5,5,5,0,0,0,0,,,,,,,,,,,,,0,0,0,0,0,14,14,14,,,,,,,,,,,,,,,,,,,,,,,,,,,,,,,,,,,,,,,,,,,,,,,,,,,,,,,,,,,,,,,,,,,,,,,,,,,,,,,,,,,,,,,,,,,,,,,,,,,,,,,,,1115.645190414,1119.8367902450004,,,,,,,022222,1,3,0,1,1,1,2,0,50,2022_Feb_22_1018,listening_fmri,3.2.4,59.93638340282408,
5,parcelated_audio/34/34_16.ogg,,,,,,,,,0,0,0,0,0,5,5,5,0,0,0,0,,,,,,,,,,,,,0,0,0,0,0,15,15,15,,,,,,,,,,,,,,,,,,,,,,,,,,,,,,,,,,,,,,,,,,,,,,,,,,,,,,,,,,,,,,,,,,,,,,,,,,,,,,,,,,,,,,,,,,,,,,,,,,,,,,,,,1119.8373314940004,1132.8435034629997,,,,,,,022222,1,3,0,1,1,1,2,0,50,2022_Feb_22_1018,listening_fmri,3.2.4,59.93638340282408,
5,parcelated_audio/34/34_17.ogg,,,,,,,,,0,0,0,0,0,5,5,5,0,0,0,0,,,,,,,,,,,,,0,0,0,0,0,16,16,16,,,,,,,,,,,,,,,,,,,,,,,,,,,,,,,,,,,,,,,,,,,,,,,,,,,,,,,,,,,,,,,,,,,,,,,,,,,,,,,,,,,,,,,,,,,,,,,,,,,,,,,,,1132.8438550710002,1141.767684727,,,,,,,022222,1,3,0,1,1,1,2,0,50,2022_Feb_22_1018,listening_fmri,3.2.4,59.93638340282408,
5,parcelated_audio/34/34_18.ogg,,,,,,,,,0,0,0,0,0,5,5,5,0,0,0,0,,,,,,,,,,,,,0,0,0,0,0,17,17,17,,,,,,,,,,,,,,,,,,,,,,,,,,,,,,,,,,,,,,,,,,,,,,,,,,,,,,,,,,,,,,,,,,,,,,,,,,,,,,,,,,,,,,,,,,,,,,,,,,,,,,,,,1141.7681410290002,1147.6494704809998,,,,,,,022222,1,3,0,1,1,1,2,0,50,2022_Feb_22_1018,listening_fmri,3.2.4,59.93638340282408,
5,parcelated_audio/34/34_19.ogg,,,,,,,,,0,0,0,0,0,5,5,5,0,0,0,0,,,,,,,,,,,,,0,0,0,0,0,18,18,18,,,,,,,,,,,,,,,,,,,,,,,,,,,,,,,,,,,,,,,,,,,,,,,,,,,,,,,,,,,,,,,,,,,,,,,,,,,,,,,,,,,,,,,,,,,,,,,,,,,,,,,,,1147.6498269950002,1153.858901307,,,,,,,022222,1,3,0,1,1,1,2,0,50,2022_Feb_22_1018,listening_fmri,3.2.4,59.93638340282408,
5,parcelated_audio/34/34_20.ogg,,,,,,,,,0,0,0,0,0,5,5,5,0,0,0,0,,,,,,,,,,,,,0,0,0,0,0,19,19,19,,,,,,,,,,,,,,,,,,,,,,,,,,,,,,,,,,,,,,,,,,,,,,,,,,,,,,,,,,,,,,,,,,,,,,,,,,,,,,,,,,,,,,,,,,,,,,,,,,,,,,,,,1153.859256759,1162.316132636,,,,,,,022222,1,3,0,1,1,1,2,0,50,2022_Feb_22_1018,listening_fmri,3.2.4,59.93638340282408,
5,parcelated_audio/34/34_21.ogg,,,,,,,,,0,0,0,0,0,5,5,5,0,0,0,0,,,,,,,,,,,,,0,0,0,0,0,20,20,20,,,,,,,,,,,,,,,,,,,,,,,,,,,,,,,,,,,,,,,,,,,,,,,,,,,,,,,,,,,,,,,,,,,,,,,,,,,,,,,,,,,,,,,,,,,,,,,,,,,,,,,,,1162.3166567780004,1168.6741841750004,,,,,,,022222,1,3,0,1,1,1,2,0,50,2022_Feb_22_1018,listening_fmri,3.2.4,59.93638340282408,
5,parcelated_audio/34/34_22.ogg,,,,,,,,,0,0,0,0,0,5,5,5,0,0,0,0,,,,,,,,,,,,,0,0,0,0,0,21,21,21,,,,,,,,,,,,,,,,,,,,,,,,,,,,,,,,,,,,,,,,,,,,,,,,,,,,,,,,,,,,,,,,,,,,,,,,,,,,,,,,,,,,,,,,,,,,,,,,,,,,,,,,,1168.6745864010004,1173.8061272700002,,,,,,,022222,1,3,0,1,1,1,2,0,50,2022_Feb_22_1018,listening_fmri,3.2.4,59.93638340282408,
5,parcelated_audio/34/34_23.ogg,,,,,,,,,0,0,0,0,0,5,5,5,0,0,0,0,,,,,,,,,,,,,0,0,0,0,0,22,22,22,,,,,,,,,,,,,,,,,,,,,,,,,,,,,,,,,,,,,,,,,,,,,,,,,,,,,,,,,,,,,,,,,,,,,,,,,,,,,,,,,,,,,,,,,,,,,,,,,,,,,,,,,1173.806474939,1181.5916164120003,,,,,,,022222,1,3,0,1,1,1,2,0,50,2022_Feb_22_1018,listening_fmri,3.2.4,59.93638340282408,
5,parcelated_audio/34/34_24.ogg,,,,,,,,,0,0,0,0,0,5,5,5,0,0,0,0,,,,,,,,,,,,,0,0,0,0,0,23,23,23,,,,,,,,,,,,,,,,,,,,,,,,,,,,,,,,,,,,,,,,,,,,,,,,,,,,,,,,,,,,,,,,,,,,,,,,,,,,,,,,,,,,,,,,,,,,,,,,,,,,,,,,,1181.5925438620002,1187.3808009059999,,,,,,,022222,1,3,0,1,1,1,2,0,50,2022_Feb_22_1018,listening_fmri,3.2.4,59.93638340282408,
5,parcelated_audio/34/34_25.ogg,,,,,,,,,0,0,0,0,0,5,5,5,0,0,0,0,,,,,,,,,,,,,0,0,0,0,0,24,24,24,,,,,,,,,,,,,,,,,,,,,,,,,,,,,,,,,,,,,,,,,,,,,,,,,,,,,,,,,,,,,,,,,,,,,,,,,,,,,,,,,,,,,,,,,,,,,,,,,,,,,,,,,1187.3811493649996,1193.940222973,,,,,,,022222,1,3,0,1,1,1,2,0,50,2022_Feb_22_1018,listening_fmri,3.2.4,59.93638340282408,
5,parcelated_audio/34/34_26.ogg,,,,,,,,,0,0,0,0,0,5,5,5,0,0,0,0,,,,,,,,,,,,,0,0,0,0,0,25,25,25,,,,,,,,,,,,,,,,,,,,,,,,,,,,,,,,,,,,,,,,,,,,,,,,,,,,,,,,,,,,,,,,,,,,,,,,,,,,,,,,,,,,,,,,,,,,,,,,,,,,,,,,,1193.9405737920001,1203.5980918789996,,,,,,,022222,1,3,0,1,1,1,2,0,50,2022_Feb_22_1018,listening_fmri,3.2.4,59.93638340282408,
5,parcelated_audio/34/34_27.ogg,,,,,,,,,0,0,0,0,0,5,5,5,0,0,0,0,,,,,,,,,,,,,0,0,0,0,0,26,26,26,,,,,,,,,,,,,,,,,,,,,,,,,,,,,,,,,,,,,,,,,,,,,,,,,,,,,,,,,,,,,,,,,,,,,,,,,,,,,,,,,,,,,,,,,,,,,,,,,,,,,,,,,1203.5984351729999,1211.0923781079996,,,,,,,022222,1,3,0,1,1,1,2,0,50,2022_Feb_22_1018,listening_fmri,3.2.4,59.93638340282408,
5,,,,,,,,,,0,0,0,0,0,5,5,5,0,0,0,0,,,,,,,,,,,,,0,0,0,0,,,,,,,,,,,,,,,,,,,,,,,,,,,,,,,,,,,,,,,,,,,,,,,,,,,,,,,,,,,,,,,,,,,,,,,,,,,,,,,,,,,,,,,,,,,,,,,,,,,,,,,,,,,,,,,,,,,,,022222,1,3,0,1,1,1,2,0,50,2022_Feb_22_1018,listening_fmri,3.2.4,59.93638340282408,
5,,,,,,,,,,0,0,0,0,0,5,5,5,0,0,0,0,,,,,,,,,,,,,,,,,,,,,,,,,,,,,,,,,,,,,,,,,,1211.092861226,1217.0854489890003,1257.0092903279997,None,,,,,,,,,,,,,,,,,,,,,,,,,,,,,,,,,,,,,,,,,,,,,,,,,,,,,,,,,,,,,,,,,,,,,,,,,,,,,,,,,,1263.009893203,None,1263.009893203,None,,,022222,1,3,0,1,1,1,2,0,50,2022_Feb_22_1018,listening_fmri,3.2.4,59.93638340282408,
5,,,,,,,,,,0,0,0,0,0,5,5,5,,,,,,,,,,,,,,,,,,,,,,,,,,,,,,,,,,,,,,,,,,,,,,,,,,,,,,,,,,,,,,,,,,,,,,,,,,,,,,,,,,,,,,,,,,,,,,,,,,,,,,,,,,,,,,,,,,,,,,,,,,,,,,,,,,,,,,,,,022222,1,3,0,1,1,1,2,0,50,2022_Feb_22_1018,listening_fmri,3.2.4,59.93638340282408,
6,parcelated_audio/14/14_1.ogg,,,,,,,,,0,0,0,0,0,6,6,6,0,0,0,0,,,,,,,,,,,,,0,0,0,0,0,0,0,0,,,,,,,,,,,,,,,,,,,,,,,,,,1264.042160556,None,1264.042160556,None,1,0.6504423500000485,1264.042160556,None,1264.042160556,None,,,,,,,,,,,,,,,,,,,,,,,,,,,,,,,,,,,,,,,,,,,,,,,,,,,,,,,,,,,,,,1264.7257676200002,None,1,0.550857506000284,1264.7257676200002,None,1219.3922182390002,1222.4015983329996,1222.4099746939996,1229.2641130289999,,,,,,,022222,1,3,0,1,1,1,2,0,50,2022_Feb_22_1018,listening_fmri,3.2.4,59.93638340282408,
6,parcelated_audio/14/14_2.ogg,,,,,,,,,0,0,0,0,0,6,6,6,0,0,0,0,,,,,,,,,,,,,0,0,0,0,0,1,1,1,,,,,,,,,,,,,,,,,,,,,,,,,,,,,,,,,,,,,,,,,,,,,,,,,,,,,,,,,,,,,,,,,,,,,,,,,,,,,,,,,,,,,,,,,,,,,,,,,,,,,,,,,1229.2645740969997,1235.9080510010003,,,,,,,022222,1,3,0,1,1,1,2,0,50,2022_Feb_22_1018,listening_fmri,3.2.4,59.93638340282408,
6,parcelated_audio/14/14_3.ogg,,,,,,,,,0,0,0,0,0,6,6,6,0,0,0,0,,,,,,,,,,,,,0,0,0,0,0,2,2,2,,,,,,,,,,,,,,,,,,,,,,,,,,,,,,,,,,,,,,,,,,,,,,,,,,,,,,,,,,,,,,,,,,,,,,,,,,,,,,,,,,,,,,,,,,,,,,,,,,,,,,,,,1235.908408332,1239.6159793410002,,,,,,,022222,1,3,0,1,1,1,2,0,50,2022_Feb_22_1018,listening_fmri,3.2.4,59.93638340282408,
6,parcelated_audio/14/14_4.ogg,,,,,,,,,0,0,0,0,0,6,6,6,0,0,0,0,,,,,,,,,,,,,0,0,0,0,0,3,3,3,,,,,,,,,,,,,,,,,,,,,,,,,,,,,,,,,,,,,,,,,,,,,,,,,,,,,,,,,,,,,,,,,,,,,,,,,,,,,,,,,,,,,,,,,,,,,,,,,,,,,,,,,1239.616363691,1247.5636725680001,,,,,,,022222,1,3,0,1,1,1,2,0,50,2022_Feb_22_1018,listening_fmri,3.2.4,59.93638340282408,
6,parcelated_audio/14/14_5.ogg,,,,,,,,,0,0,0,0,0,6,6,6,0,0,0,0,,,,,,,,,,,,,0,0,0,0,0,4,4,4,,,,,,,,,,,,,,,,,,,,,,,,,,,,,,,,,,,,,,,,,,,,,,,,,,,,,,,,,,,,,,,,,,,,,,,,,,,,,,,,,,,,,,,,,,,,,,,,,,,,,,,,,1247.5640312600003,1252.4340806510004,,,,,,,022222,1,3,0,1,1,1,2,0,50,2022_Feb_22_1018,listening_fmri,3.2.4,59.93638340282408,
6,parcelated_audio/14/14_6.ogg,,,,,,,,,0,0,0,0,0,6,6,6,0,0,0,0,,,,,,,,,,,,,0,0,0,0,0,5,5,5,,,,,,,,,,,,,,,,,,,,,,,,,,,,,,,,,,,,,,,,,,,,,,,,,,,,,,,,,,,,,,,,,,,,,,,,,,,,,,,,,,,,,,,,,,,,,,,,,,,,,,,,,1252.4344265590003,1258.2967070079999,,,,,,,022222,1,3,0,1,1,1,2,0,50,2022_Feb_22_1018,listening_fmri,3.2.4,59.93638340282408,
6,parcelated_audio/14/14_7.ogg,,,,,,,,,0,0,0,0,0,6,6,6,0,0,0,0,,,,,,,,,,,,,0,0,0,0,0,6,6,6,,,,,,,,,,,,,,,,,,,,,,,,,,,,,,,,,,,,,,,,,,,,,,,,,,,,,,,,,,,,,,,,,,,,,,,,,,,,,,,,,,,,,,,,,,,,,,,,,,,,,,,,,1258.2970628059998,1267.9351804370003,,,,,,,022222,1,3,0,1,1,1,2,0,50,2022_Feb_22_1018,listening_fmri,3.2.4,59.93638340282408,
6,parcelated_audio/14/14_8.ogg,,,,,,,,,0,0,0,0,0,6,6,6,0,0,0,0,,,,,,,,,,,,,0,0,0,0,0,7,7,7,,,,,,,,,,,,,,,,,,,,,,,,,,,,,,,,,,,,,,,,,,,,,,,,,,,,,,,,,,,,,,,,,,,,,,,,,,,,,,,,,,,,,,,,,,,,,,,,,,,,,,,,,1267.9362090540003,1273.140126576,,,,,,,022222,1,3,0,1,1,1,2,0,50,2022_Feb_22_1018,listening_fmri,3.2.4,59.93638340282408,
6,parcelated_audio/14/14_9.ogg,,,,,,,,,0,0,0,0,0,6,6,6,0,0,0,0,,,,,,,,,,,,,0,0,0,0,0,8,8,8,,,,,,,,,,,,,,,,,,,,,,,,,,,,,,,,,,,,,,,,,,,,,,,,,,,,,,,,,,,,,,,,,,,,,,,,,,,,,,,,,,,,,,,,,,,,,,,,,,,,,,,,,1273.140431378,1276.8858730019997,,,,,,,022222,1,3,0,1,1,1,2,0,50,2022_Feb_22_1018,listening_fmri,3.2.4,59.93638340282408,
6,parcelated_audio/14/14_10.ogg,,,,,,,,,0,0,0,0,0,6,6,6,0,0,0,0,,,,,,,,,,,,,0,0,0,0,0,9,9,9,,,,,,,,,,,,,,,,,,,,,,,,,,,,,,,,,,,,,,,,,,,,,,,,,,,,,,,,,,,,,,,,,,,,,,,,,,,,,,,,,,,,,,,,,,,,,,,,,,,,,,,,,1276.886870891,1288.141896136,,,,,,,022222,1,3,0,1,1,1,2,0,50,2022_Feb_22_1018,listening_fmri,3.2.4,59.93638340282408,
6,parcelated_audio/14/14_11.ogg,,,,,,,,,0,0,0,0,0,6,6,6,0,0,0,0,,,,,,,,,,,,,0,0,0,0,0,10,10,10,,,,,,,,,,,,,,,,,,,,,,,,,,,,,,,,,,,,,,,,,,,,,,,,,,,,,,,,,,,,,,,,,,,,,,,,,,,,,,,,,,,,,,,,,,,,,,,,,,,,,,,,,1288.142374732,1295.3662072740003,,,,,,,022222,1,3,0,1,1,1,2,0,50,2022_Feb_22_1018,listening_fmri,3.2.4,59.93638340282408,
6,parcelated_audio/14/14_12.ogg,,,,,,,,,0,0,0,0,0,6,6,6,0,0,0,0,,,,,,,,,,,,,0,0,0,0,0,11,11,11,,,,,,,,,,,,,,,,,,,,,,,,,,,,,,,,,,,,,,,,,,,,,,,,,,,,,,,,,,,,,,,,,,,,,,,,,,,,,,,,,,,,,,,,,,,,,,,,,,,,,,,,,1295.366468795,1303.3831908839998,,,,,,,022222,1,3,0,1,1,1,2,0,50,2022_Feb_22_1018,listening_fmri,3.2.4,59.93638340282408,
6,parcelated_audio/14/14_13.ogg,,,,,,,,,0,0,0,0,0,6,6,6,0,0,0,0,,,,,,,,,,,,,0,0,0,0,0,12,12,12,,,,,,,,,,,,,,,,,,,,,,,,,,,,,,,,,,,,,,,,,,,,,,,,,,,,,,,,,,,,,,,,,,,,,,,,,,,,,,,,,,,,,,,,,,,,,,,,,,,,,,,,,1303.383522183,1309.5020943949999,,,,,,,022222,1,3,0,1,1,1,2,0,50,2022_Feb_22_1018,listening_fmri,3.2.4,59.93638340282408,
6,parcelated_audio/14/14_14.ogg,,,,,,,,,0,0,0,0,0,6,6,6,0,0,0,0,,,,,,,,,,,,,0,0,0,0,0,13,13,13,,,,,,,,,,,,,,,,,,,,,,,,,,,,,,,,,,,,,,,,,,,,,,,,,,,,,,,,,,,,,,,,,,,,,,,,,,,,,,,,,,,,,,,,,,,,,,,,,,,,,,,,,1309.5024475490004,1316.0556023980002,,,,,,,022222,1,3,0,1,1,1,2,0,50,2022_Feb_22_1018,listening_fmri,3.2.4,59.93638340282408,
6,parcelated_audio/14/14_15.ogg,,,,,,,,,0,0,0,0,0,6,6,6,0,0,0,0,,,,,,,,,,,,,0,0,0,0,0,14,14,14,,,,,,,,,,,,,,,,,,,,,,,,,,,,,,,,,,,,,,,,,,,,,,,,,,,,,,,,,,,,,,,,,,,,,,,,,,,,,,,,,,,,,,,,,,,,,,,,,,,,,,,,,1316.0561544770003,1323.1770665939998,,,,,,,022222,1,3,0,1,1,1,2,0,50,2022_Feb_22_1018,listening_fmri,3.2.4,59.93638340282408,
6,parcelated_audio/14/14_16.ogg,,,,,,,,,0,0,0,0,0,6,6,6,0,0,0,0,,,,,,,,,,,,,0,0,0,0,0,15,15,15,,,,,,,,,,,,,,,,,,,,,,,,,,,,,,,,,,,,,,,,,,,,,,,,,,,,,,,,,,,,,,,,,,,,,,,,,,,,,,,,,,,,,,,,,,,,,,,,,,,,,,,,,1323.1775221639996,1328.5971393710001,,,,,,,022222,1,3,0,1,1,1,2,0,50,2022_Feb_22_1018,listening_fmri,3.2.4,59.93638340282408,
6,parcelated_audio/14/14_17.ogg,,,,,,,,,0,0,0,0,0,6,6,6,0,0,0,0,,,,,,,,,,,,,0,0,0,0,0,16,16,16,,,,,,,,,,,,,,,,,,,,,,,,,,,,,,,,,,,,,,,,,,,,,,,,,,,,,,,,,,,,,,,,,,,,,,,,,,,,,,,,,,,,,,,,,,,,,,,,,,,,,,,,,1328.5975308700004,1338.302172276,,,,,,,022222,1,3,0,1,1,1,2,0,50,2022_Feb_22_1018,listening_fmri,3.2.4,59.93638340282408,
6,parcelated_audio/14/14_18.ogg,,,,,,,,,0,0,0,0,0,6,6,6,0,0,0,0,,,,,,,,,,,,,0,0,0,0,0,17,17,17,,,,,,,,,,,,,,,,,,,,,,,,,,,,,,,,,,,,,,,,,,,,,,,,,,,,,,,,,,,,,,,,,,,,,,,,,,,,,,,,,,,,,,,,,,,,,,,,,,,,,,,,,1338.3025305260003,1345.911922021,,,,,,,022222,1,3,0,1,1,1,2,0,50,2022_Feb_22_1018,listening_fmri,3.2.4,59.93638340282408,
6,parcelated_audio/14/14_19.ogg,,,,,,,,,0,0,0,0,0,6,6,6,0,0,0,0,,,,,,,,,,,,,0,0,0,0,0,18,18,18,,,,,,,,,,,,,,,,,,,,,,,,,,,,,,,,,,,,,,,,,,,,,,,,,,,,,,,,,,,,,,,,,,,,,,,,,,,,,,,,,,,,,,,,,,,,,,,,,,,,,,,,,1345.912234086,1348.7660913240002,,,,,,,022222,1,3,0,1,1,1,2,0,50,2022_Feb_22_1018,listening_fmri,3.2.4,59.93638340282408,
6,parcelated_audio/14/14_20.ogg,,,,,,,,,0,0,0,0,0,6,6,6,0,0,0,0,,,,,,,,,,,,,0,0,0,0,0,19,19,19,,,,,,,,,,,,,,,,,,,,,,,,,,,,,,,,,,,,,,,,,,,,,,,,,,,,,,,,,,,,,,,,,,,,,,,,,,,,,,,,,,,,,,,,,,,,,,,,,,,,,,,,,1348.7665881199996,1350.9130596560003,,,,,,,022222,1,3,0,1,1,1,2,0,50,2022_Feb_22_1018,listening_fmri,3.2.4,59.93638340282408,
6,parcelated_audio/14/14_21.ogg,,,,,,,,,0,0,0,0,0,6,6,6,0,0,0,0,,,,,,,,,,,,,0,0,0,0,0,20,20,20,,,,,,,,,,,,,,,,,,,,,,,,,,,,,,,,,,,,,,,,,,,,,,,,,,,,,,,,,,,,,,,,,,,,,,,,,,,,,,,,,,,,,,,,,,,,,,,,,,,,,,,,,1350.9134116319997,1360.4858161630004,,,,,,,022222,1,3,0,1,1,1,2,0,50,2022_Feb_22_1018,listening_fmri,3.2.4,59.93638340282408,
6,parcelated_audio/14/14_22.ogg,,,,,,,,,0,0,0,0,0,6,6,6,0,0,0,0,,,,,,,,,,,,,0,0,0,0,0,21,21,21,,,,,,,,,,,,,,,,,,,,,,,,,,,,,,,,,,,,,,,,,,,,,,,,,,,,,,,,,,,,,,,,,,,,,,,,,,,,,,,,,,,,,,,,,,,,,,,,,,,,,,,,,1360.4861617990005,1366.8226757059997,,,,,,,022222,1,3,0,1,1,1,2,0,50,2022_Feb_22_1018,listening_fmri,3.2.4,59.93638340282408,
6,parcelated_audio/14/14_23.ogg,,,,,,,,,0,0,0,0,0,6,6,6,0,0,0,0,,,,,,,,,,,,,0,0,0,0,0,22,22,22,,,,,,,,,,,,,,,,,,,,,,,,,,,,,,,,,,,,,,,,,,,,,,,,,,,,,,,,,,,,,,,,,,,,,,,,,,,,,,,,,,,,,,,,,,,,,,,,,,,,,,,,,1366.8230398760002,1371.9001107239997,,,,,,,022222,1,3,0,1,1,1,2,0,50,2022_Feb_22_1018,listening_fmri,3.2.4,59.93638340282408,
6,parcelated_audio/14/14_24.ogg,,,,,,,,,0,0,0,0,0,6,6,6,0,0,0,0,,,,,,,,,,,,,0,0,0,0,0,23,23,23,,,,,,,,,,,,,,,,,,,,,,,,,,,,,,,,,,,,,,,,,,,,,,,,,,,,,,,,,,,,,,,,,,,,,,,,,,,,,,,,,,,,,,,,,,,,,,,,,,,,,,,,,1371.9006179029998,1382.8113903509998,,,,,,,022222,1,3,0,1,1,1,2,0,50,2022_Feb_22_1018,listening_fmri,3.2.4,59.93638340282408,
6,parcelated_audio/14/14_25.ogg,,,,,,,,,0,0,0,0,0,6,6,6,0,0,0,0,,,,,,,,,,,,,0,0,0,0,0,24,24,24,,,,,,,,,,,,,,,,,,,,,,,,,,,,,,,,,,,,,,,,,,,,,,,,,,,,,,,,,,,,,,,,,,,,,,,,,,,,,,,,,,,,,,,,,,,,,,,,,,,,,,,,,1382.8117109549999,1389.4594284199998,,,,,,,022222,1,3,0,1,1,1,2,0,50,2022_Feb_22_1018,listening_fmri,3.2.4,59.93638340282408,
6,parcelated_audio/14/14_26.ogg,,,,,,,,,0,0,0,0,0,6,6,6,0,0,0,0,,,,,,,,,,,,,0,0,0,0,0,25,25,25,,,,,,,,,,,,,,,,,,,,,,,,,,,,,,,,,,,,,,,,,,,,,,,,,,,,,,,,,,,,,,,,,,,,,,,,,,,,,,,,,,,,,,,,,,,,,,,,,,,,,,,,,1389.4597730030005,1391.6351048709998,,,,,,,022222,1,3,0,1,1,1,2,0,50,2022_Feb_22_1018,listening_fmri,3.2.4,59.93638340282408,
6,parcelated_audio/14/14_27.ogg,,,,,,,,,0,0,0,0,0,6,6,6,0,0,0,0,,,,,,,,,,,,,0,0,0,0,0,26,26,26,,,,,,,,,,,,,,,,,,,,,,,,,,,,,,,,,,,,,,,,,,,,,,,,,,,,,,,,,,,,,,,,,,,,,,,,,,,,,,,,,,,,,,,,,,,,,,,,,,,,,,,,,1391.6355653590003,1397.6558047069998,,,,,,,022222,1,3,0,1,1,1,2,0,50,2022_Feb_22_1018,listening_fmri,3.2.4,59.93638340282408,
6,parcelated_audio/14/14_28.ogg,,,,,,,,,0,0,0,0,0,6,6,6,0,0,0,0,,,,,,,,,,,,,0,0,0,0,0,27,27,27,,,,,,,,,,,,,,,,,,,,,,,,,,,,,,,,,,,,,,,,,,,,,,,,,,,,,,,,,,,,,,,,,,,,,,,,,,,,,,,,,,,,,,,,,,,,,,,,,,,,,,,,,1397.6561105839996,1400.634025242,,,,,,,022222,1,3,0,1,1,1,2,0,50,2022_Feb_22_1018,listening_fmri,3.2.4,59.93638340282408,
6,parcelated_audio/14/14_29.ogg,,,,,,,,,0,0,0,0,0,6,6,6,0,0,0,0,,,,,,,,,,,,,0,0,0,0,0,28,28,28,,,,,,,,,,,,,,,,,,,,,,,,,,,,,,,,,,,,,,,,,,,,,,,,,,,,,,,,,,,,,,,,,,,,,,,,,,,,,,,,,,,,,,,,,,,,,,,,,,,,,,,,,1400.634377899,1403.009764172,,,,,,,022222,1,3,0,1,1,1,2,0,50,2022_Feb_22_1018,listening_fmri,3.2.4,59.93638340282408,
6,parcelated_audio/14/14_30.ogg,,,,,,,,,0,0,0,0,0,6,6,6,0,0,0,0,,,,,,,,,,,,,0,0,0,0,0,29,29,29,,,,,,,,,,,,,,,,,,,,,,,,,,,,,,,,,,,,,,,,,,,,,,,,,,,,,,,,,,,,,,,,,,,,,,,,,,,,,,,,,,,,,,,,,,,,,,,,,,,,,,,,,1403.0101127120001,1407.2679779470004,,,,,,,022222,1,3,0,1,1,1,2,0,50,2022_Feb_22_1018,listening_fmri,3.2.4,59.93638340282408,
6,parcelated_audio/14/14_31.ogg,,,,,,,,,0,0,0,0,0,6,6,6,0,0,0,0,,,,,,,,,,,,,0,0,0,0,0,30,30,30,,,,,,,,,,,,,,,,,,,,,,,,,,,,,,,,,,,,,,,,,,,,,,,,,,,,,,,,,,,,,,,,,,,,,,,,,,,,,,,,,,,,,,,,,,,,,,,,,,,,,,,,,1407.2683310019997,1414.5373175640002,,,,,,,022222,1,3,0,1,1,1,2,0,50,2022_Feb_22_1018,listening_fmri,3.2.4,59.93638340282408,
6,parcelated_audio/14/14_32.ogg,,,,,,,,,0,0,0,0,0,6,6,6,0,0,0,0,,,,,,,,,,,,,0,0,0,0,0,31,31,31,,,,,,,,,,,,,,,,,,,,,,,,,,,,,,,,,,,,,,,,,,,,,,,,,,,,,,,,,,,,,,,,,,,,,,,,,,,,,,,,,,,,,,,,,,,,,,,,,,,,,,,,,1414.537734051,1421.7030490680004,,,,,,,022222,1,3,0,1,1,1,2,0,50,2022_Feb_22_1018,listening_fmri,3.2.4,59.93638340282408,
6,parcelated_audio/14/14_33.ogg,,,,,,,,,0,0,0,0,0,6,6,6,0,0,0,0,,,,,,,,,,,,,0,0,0,0,0,32,32,32,,,,,,,,,,,,,,,,,,,,,,,,,,,,,,,,,,,,,,,,,,,,,,,,,,,,,,,,,,,,,,,,,,,,,,,,,,,,,,,,,,,,,,,,,,,,,,,,,,,,,,,,,1421.7044167119998,1428.27107354,,,,,,,022222,1,3,0,1,1,1,2,0,50,2022_Feb_22_1018,listening_fmri,3.2.4,59.93638340282408,
6,,,,,,,,,,0,0,0,0,0,6,6,6,0,0,0,0,,,,,,,,,,,,,0,0,0,0,,,,,,,,,,,,,,,,,,,,,,,,,,,,,,,,,,,,,,,,,,,,,,,,,,,,,,,,,,,,,,,,,,,,,,,,,,,,,,,,,,,,,,,,,,,,,,,,,,,,,,,,,,,,,,,,,,,,,022222,1,3,0,1,1,1,2,0,50,2022_Feb_22_1018,listening_fmri,3.2.4,59.93638340282408,
6,,,,,,,,,,0,0,0,0,0,6,6,6,0,0,0,0,,,,,,,,,,,,,,,,,,,,,,,,,,,,,,,,,,,,,,,,,,1428.2715212770004,1434.2690715889999,1474.1909301310002,None,,,,,,,,,,,,,,,,,,,,,,,,,,,,,,,,,,,,,,,,,,,,,,,,,,,,,,,,,,,,,,,,,,,,,,,,,,,,,,,,,,1480.192862253,None,1480.192862253,None,,,022222,1,3,0,1,1,1,2,0,50,2022_Feb_22_1018,listening_fmri,3.2.4,59.93638340282408,
6,,,,,,,,,,0,0,0,0,0,6,6,6,,,,,,,,,,,,,,,,,,,,,,,,,,,,,,,,,,,,,,,,,,,,,,,,,,,,,,,,,,,,,,,,,,,,,,,,,,,,,,,,,,,,,,,,,,,,,,,,,,,,,,,,,,,,,,,,,,,,,,,,,,,,,,,,,,,,,,,,,022222,1,3,0,1,1,1,2,0,50,2022_Feb_22_1018,listening_fmri,3.2.4,59.93638340282408,
7,,,,,,,,,,0,0,0,0,0,7,7,7,,,,,,,,,,,,,,,,,,,,,,,,,,,,,,,,,,,,,,,,,,,,,,,,,,,,,,,,,,,,,,,,,,,,,,,,,,,,,,,,,,,,,,,,,,,,,,,,,,,,,,,,,,,,,,,,,,,,,,,,,,,,,,,,,,,,,,,,,022222,1,3,0,1,1,1,2,0,50,2022_Feb_22_1018,listening_fmri,3.2.4,59.93638340282408,
,,,,,,,,,,0,0,0,0,,,,,,,,,,,,,,,,,,,,,,,,,,,,,,,,,,,,,,,,,,,,,,,,,,,,,,,,,,,,,,,,,,,,,,,,,,,,,,,,,,,,,,,,,,,,,,,,,,,,,,,,,,,,,,,,,,,,,,,,,,,,,,,,,,,,,,,,,,,,,022222,1,3,0,1,1,1,2,0,50,2022_Feb_22_1018,listening_fmri,3.2.4,59.93638340282408,
,,,,,,,,,,,,,,,,,,,,,,,,,,,,,,,,,,,,,,,,,,,,,,0,0,0,0,,,,,,,,,,,,,,,,,,,,,,,,,,,,,,,,,,,,,,,,,,,,,,,,,,,,,,,,,,,,,,,,,,,,,,,,,,,,,,,,,,,,,,,,,,,,,,,,,,,,,,,1481.2251647849994,None,022222,1,3,0,1,1,1,2,0,50,2022_Feb_22_1018,listening_fmri,3.2.4,59.93638340282408,
,,,,,,,,,,,,,,,,,,,,,,,,,,,,,,,,,,,,,,,,,,,,,,1,0,1,0,,,,,,,,,,,,,,,,,,,,,,,,,,,,,,,,,,,,,,,,,,,,,,,,,,,,,,,,,,,,,,,,,,,,,,,,,,,,,,,,,,,,,,,,,,,,,,,,,,,,,,,1481.7267787750002,1481.7267787750002,022222,1,3,0,1,1,1,2,0,50,2022_Feb_22_1018,listening_fmri,3.2.4,59.93638340282408,
,,,,,,,,,,,,,,,,,,,,,,,,,,,,,,,,,,,,,,,,,,,,,,2,0,2,0,,,,,,,,,,,,,,,,,,,,,,,,,,,,,,,,,,,,,,,,,,,,,,,,,,,,,,,,,,,,,,,,,,,,,,,,,,,,,,,,,,,,,,,,,,,,,,,,,,,,,,,1482.226605364,1482.226605364,022222,1,3,0,1,1,1,2,0,50,2022_Feb_22_1018,listening_fmri,3.2.4,59.93638340282408,
,,,,,,,,,,,,,,,,,,,,,,,,,,,,,,,,,,,,,,,,,,,,,,3,0,3,0,,,,,,,,,,,,,,,,,,,,,,,,,,,,,,,,,,,,,,,,,,,,,,,,,,,,,,,,,,,,,,,,,,,,,,,,,,,,,,,,,,,,,,,,,,,,,,,,,,,,,,,1482.726182383,1482.726182383,022222,1,3,0,1,1,1,2,0,50,2022_Feb_22_1018,listening_fmri,3.2.4,59.93638340282408,
,,,,,,,,,,,,,,,,,,,,,,,,,,,,,,,,,,,,,,,,,,,,,,4,0,4,0,,,,,,,,,,,,,,,,,,,,,,,,,,,,,,,,,,,,,,,,,,,,,,,,,,,,,,,,,,,,,,,,,,,,,,,,,,,,,,,,,,,,,,,,,,,,,,,,,,,,,,,1483.2272620179997,1483.2272620179997,022222,1,3,0,1,1,1,2,0,50,2022_Feb_22_1018,listening_fmri,3.2.4,59.93638340282408,
