instruct_text,count,Q1,Q2,Q3,Q4,D1,D2,roleName,rolePic,instruct1.thisRepN,instruct1.thisTrialN,instruct1.thisN,instruct1.thisIndex,instruct3.thisRepN,instruct3.thisTrialN,instruct3.thisN,instruct3.thisIndex,instruct4.thisRepN,instruct4.thisTrialN,instruct4.thisN,instruct4.thisIndex,instruct5.thisRepN,instruct5.thisTrialN,instruct5.thisN,instruct5.thisIndex,count_4.thisRepN,count_4.thisTrialN,count_4.thisN,count_4.thisIndex,trials_5.thisRepN,trials_5.thisTrialN,trials_5.thisN,trials_5.thisIndex,instruct6.thisRepN,instruct6.thisTrialN,instruct6.thisN,instruct6.thisIndex,trials.thisRepN,trials.thisTrialN,trials.thisN,trials.thisIndex,trials_2.thisRepN,trials_2.thisTrialN,trials_2.thisN,trials_2.thisIndex,trials_4.thisRepN,trials_4.thisTrialN,trials_4.thisN,trials_4.thisIndex,trials_3.thisRepN,trials_3.thisTrialN,trials_3.thisN,trials_3.thisIndex,text.started,text.stopped,key_resp.keys,key_resp.rt,key_resp.started,key_resp.stopped,key_resp_6.keys,key_resp_6.rt,key_resp_6.started,key_resp_6.stopped,text_12.started,text_12.stopped,image_11.started,image_11.stopped,image_12.started,image_12.stopped,text_17.started,text_17.stopped,key_resp_7.keys,key_resp_7.rt,key_resp_7.started,key_resp_7.stopped,text_18.started,text_18.stopped,image_9.started,image_9.stopped,key_resp_14.keys,key_resp_14.rt,key_resp_14.started,key_resp_14.stopped,text_8.started,text_8.stopped,text_9.started,text_9.stopped,image_5.started,image_5.stopped,key_resp_10.keys,key_resp_10.rt,key_resp_10.started,key_resp_10.stopped,text_10.started,text_10.stopped,text_11.started,text_11.stopped,image_6.started,image_6.stopped,key_resp_11.keys,key_resp_11.rt,key_resp_11.started,key_resp_11.stopped,text_13.started,text_13.stopped,text_14.started,text_14.stopped,image_7.started,image_7.stopped,key_resp_12.keys,key_resp_12.rt,key_resp_12.started,key_resp_12.stopped,text_15.started,text_15.stopped,text_16.started,text_16.stopped,image_8.started,image_8.stopped,key_resp_13.keys,key_resp_13.rt,key_resp_13.started,key_resp_13.stopped,text_5.started,text_5.stopped,key_resp_4.keys,key_resp_4.rt,key_resp_4.started,key_resp_4.stopped,question1_2.started,question1_2.stopped,question2_2.started,question2_2.stopped,question3_2.started,question3_2.stopped,question4_2.started,question4_2.stopped,question5_2.started,question5_2.stopped,question6_2.started,question6_2.stopped,image_3.started,image_3.stopped,text_3.started,text_3.stopped,image_2.started,image_2.stopped,key_resp_3.keys,key_resp_3.rt,key_resp_3.started,key_resp_3.stopped,text_4.started,text_4.stopped,question1_3.started,question1_3.stopped,question2_3.started,question2_3.stopped,question3_3.started,question3_3.stopped,question4_3.started,question4_3.stopped,question5_3.started,question5_3.stopped,question6_3.started,question6_3.stopped,image_4.started,image_4.stopped,text_2.started,text_2.stopped,participant,sA,sB,lA,lB,date,expName,psychopyVersion,frameRate,
Welcome to the job simulator task! ,,,,,,,,,,0,0,0,0,,,,,,,,,,,,,,,,,,,,,,,,,,,,,,,,,,,,,,,,,6.335318039000015,None,space,6.468943464999995,6.335318039000015,None,,,,,,,,,,,,,,,,,,,,,,,,,,,,,,,,,,,,,,,,,,,,,,,,,,,,,,,,,,,,,,,,,,,,,,,,,,,,,,,,,,,,,,,,,,,,,,,,,,,,,,,,,,,,,,,022222,1,3,0,1,2022_Feb_22_0911,training_fmri,3.2.4,59.60370545268565,
In this experiment you will listen to 12 short stories. ,,,,,,,,,,0,1,1,1,,,,,,,,,,,,,,,,,,,,,,,,,,,,,,,,,,,,,,,,,12.85285453900002,None,space,2.998495003999949,12.85285453900002,None,,,,,,,,,,,,,,,,,,,,,,,,,,,,,,,,,,,,,,,,,,,,,,,,,,,,,,,,,,,,,,,,,,,,,,,,,,,,,,,,,,,,,,,,,,,,,,,,,,,,,,,,,,,,,,,022222,1,3,0,1,2022_Feb_22_0911,training_fmri,3.2.4,59.60370545268565,
"During some of these stories, we will ask you to take on the perspective of a type of job. ",,,,,,,,,,0,2,2,2,,,,,,,,,,,,,,,,,,,,,,,,,,,,,,,,,,,,,,,,,15.885821273000033,None,space,4.8661820350000085,15.885821273000033,None,,,,,,,,,,,,,,,,,,,,,,,,,,,,,,,,,,,,,,,,,,,,,,,,,,,,,,,,,,,,,,,,,,,,,,,,,,,,,,,,,,,,,,,,,,,,,,,,,,,,,,,,,,,,,,,022222,1,3,0,1,2022_Feb_22_0911,training_fmri,3.2.4,59.60370545268565,
"In other words, you should try to listen to the story from the perspective of that job. This is called “job simulation.”",,,,,,,,,,0,3,3,3,,,,,,,,,,,,,,,,,,,,,,,,,,,,,,,,,,,,,,,,,20.787332246000005,None,space,5.8623241579999785,20.787332246000005,None,,,,,,,,,,,,,,,,,,,,,,,,,,,,,,,,,,,,,,,,,,,,,,,,,,,,,,,,,,,,,,,,,,,,,,,,,,,,,,,,,,,,,,,,,,,,,,,,,,,,,,,,,,,,,,,022222,1,3,0,1,2022_Feb_22_0911,training_fmri,3.2.4,59.60370545268565,
You will be told the job to simulate before each story. ,,,,,,,,,,0,4,4,4,,,,,,,,,,,,,,,,,,,,,,,,,,,,,,,,,,,,,,,,,26.686792093999998,None,space,3.579501758000049,26.686792093999998,None,,,,,,,,,,,,,,,,,,,,,,,,,,,,,,,,,,,,,,,,,,,,,,,,,,,,,,,,,,,,,,,,,,,,,,,,,,,,,,,,,,,,,,,,,,,,,,,,,,,,,,,,,,,,,,,022222,1,3,0,1,2022_Feb_22_0911,training_fmri,3.2.4,59.60370545268565,
"Some stories, however, will not have any job assigned to them, and you can simply listen to the story.",,,,,,,,,,,,,,0,0,0,0,,,,,,,,,,,,,,,,,,,,,,,,,,,,,,,,,,,,,30.303748176,None,space,5.098715129000027,30.303748176,None,,,,,,,,,,,,,,,,,,,,,,,,,,,,,,,,,,,,,,,,,,,,,,,,,,,,,,,,,,,,,,,,,,,,,,,,,,,,,,,,,,,,,,,,,,,,,,,,,,,,,,,,,,,,,,,022222,1,3,0,1,2022_Feb_22_0911,training_fmri,3.2.4,59.60370545268565,
"In this part of the experiment outside of the scanner, we will introduce you to four perspectives you will be asked to take on.",,,,,,,,,,,,,,0,1,1,1,,,,,,,,,,,,,,,,,,,,,,,,,,,,,,,,,,,,,35.43636839800001,None,space,6.6038436549999915,35.43636839800001,None,,,,,,,,,,,,,,,,,,,,,,,,,,,,,,,,,,,,,,,,,,,,,,,,,,,,,,,,,,,,,,,,,,,,,,,,,,,,,,,,,,,,,,,,,,,,,,,,,,,,,,,,,,,,,,,022222,1,3,0,1,2022_Feb_22_0911,training_fmri,3.2.4,59.60370545268565,
"For each perspective, you'll also learn 4 questions associated with it to use when listening to a story.",,,,,,,,,,,,,,0,2,2,2,,,,,,,,,,,,,,,,,,,,,,,,,,,,,,,,,,,,,42.085827919999986,None,space,6.463634474999992,42.085827919999986,None,,,,,,,,,,,,,,,,,,,,,,,,,,,,,,,,,,,,,,,,,,,,,,,,,,,,,,,,,,,,,,,,,,,,,,,,,,,,,,,,,,,,,,,,,,,,,,,,,,,,,,,,,,,,,,,022222,1,3,0,1,2022_Feb_22_0911,training_fmri,3.2.4,59.60370545268565,
We encourage you to keep these questions in mind while listening to the story and simulating the associated perspective.,,,,,,,,,,,,,,,,,,0,0,0,0,,,,,,,,,,,,,,,,,,,,,,,,,,,,,,,,,48.586201715000016,None,space,7.329418093000015,48.586201715000016,None,,,,,,,,,,,,,,,,,,,,,,,,,,,,,,,,,,,,,,,,,,,,,,,,,,,,,,,,,,,,,,,,,,,,,,,,,,,,,,,,,,,,,,,,,,,,,,,,,,,,,,,,,,,,,,,022222,1,3,0,1,2022_Feb_22_0911,training_fmri,3.2.4,59.60370545268565,
"When you are in the scanner, you will listen to the 12 short stories.",,,,,,,,,,,,,,,,,,0,1,1,1,,,,,,,,,,,,,,,,,,,,,,,,,,,,,,,,,55.95258631600001,None,space,3.1937174930000083,55.95258631600001,None,,,,,,,,,,,,,,,,,,,,,,,,,,,,,,,,,,,,,,,,,,,,,,,,,,,,,,,,,,,,,,,,,,,,,,,,,,,,,,,,,,,,,,,,,,,,,,,,,,,,,,,,,,,,,,,022222,1,3,0,1,2022_Feb_22_0911,training_fmri,3.2.4,59.60370545268565,
,,,,,,,,,,,,,,,,,,,,,,,,,,,,,,,,,,,,,,,,,,,,,,,,,,,,,,,,,,,,space,8.068644530999961,59.16957383100004,None,,,,,,,,,,,,,,,,,,,,,,,,,,,,,,,,,,,,,,,,,,,,,,,,,,,,,,,,,,,,,,,,,,,,,,,,,,,,,,,,,,,,,,,,,,,,,,,,,,,,,,,,,,,022222,1,3,0,1,2022_Feb_22_0911,training_fmri,3.2.4,59.60370545268565,
"Before listening to each story, you may be assigned one of the perspectives to take on while listening to it.",,,,,,,,,,,,,,,,,,,,,,0,0,0,0,,,,,,,,,,,,,,,,,,,,,,,,,,,,,67.28557616300003,None,space,5.3954458810000006,67.28557616300003,None,,,,,59.16957383100004,None,59.16957383100004,None,,,,,,,,,,,,,,,,,,,,,,,,,,,,,,,,,,,,,,,,,,,,,,,,,,,,,,,,,,,,,,,,,,,,,,,,,,,,,,,,,,,,,,,,,,,,,,,,,,,,,,,022222,1,3,0,1,2022_Feb_22_0911,training_fmri,3.2.4,59.60370545268565,
"If a perspective is assigned, you’ll be quizzed on the 4 questions associated with it before listening.",,,,,,,,,,,,,,,,,,,,,,0,1,1,1,,,,,,,,,,,,,,,,,,,,,,,,,,,,,72.71910578699999,None,space,13.506136443000003,72.71910578699999,None,,,,,,,,,,,,,,,,,,,,,,,,,,,,,,,,,,,,,,,,,,,,,,,,,,,,,,,,,,,,,,,,,,,,,,,,,,,,,,,,,,,,,,,,,,,,,,,,,,,,,,,,,,,,,,,022222,1,3,0,1,2022_Feb_22_0911,training_fmri,3.2.4,59.60370545268565,
You must pass this quiz to move on to the story.,,,,,,,,,,,,,,,,,,,,,,0,2,2,2,,,,,,,,,,,,,,,,,,,,,,,,,,,,,86.26910325200004,None,space,2.797457706999978,86.26910325200004,None,,,,,,,,,,,,,,,,,,,,,,,,,,,,,,,,,,,,,,,,,,,,,,,,,,,,,,,,,,,,,,,,,,,,,,,,,,,,,,,,,,,,,,,,,,,,,,,,,,,,,,,,,,,,,,,022222,1,3,0,1,2022_Feb_22_0911,training_fmri,3.2.4,59.60370545268565,
"There will be additional tasks after the story listening, but we will explain them when we come to them.",,,,,,,,,,,,,,,,,,,,,,0,3,3,3,,,,,,,,,,,,,,,,,,,,,,,,,,,,,89.10223803500003,None,space,6.51730080599998,89.10223803500003,None,,,,,,,,,,,,,,,,,,,,,,,,,,,,,,,,,,,,,,,,,,,,,,,,,,,,,,,,,,,,,,,,,,,,,,,,,,,,,,,,,,,,,,,,,,,,,,,,,,,,,,,,,,,,,,,022222,1,3,0,1,2022_Feb_22_0911,training_fmri,3.2.4,59.60370545268565,
Are you ready to begin the training on the perspectives?,,,,,,,,,,,,,,,,,,,,,,0,4,4,4,,,,,,,,,,,,,,,,,,,,,,,,,,,,,95.66973389100002,None,space,1.830230357000005,95.66973389100002,None,,,,,,,,,,,,,,,,,,,,,,,,,,,,,,,,,,,,,,,,,,,,,,,,,,,,,,,,,,,,,,,,,,,,,,,,,,,,,,,,,,,,,,,,,,,,,,,,,,,,,,,,,,,,,,,022222,1,3,0,1,2022_Feb_22_0911,training_fmri,3.2.4,59.60370545268565,
The four perspectives are as follows:,,,,,,,,,,,,,,,,,,,,,,0,5,5,5,,,,,,,,,,,,,,,,,,,,,,,,,,,,,97.51899592400002,None,space,1.9601425159999621,97.51899592400002,None,,,,,,,,,,,,,,,,,,,,,,,,,,,,,,,,,,,,,,,,,,,,,,,,,,,,,,,,,,,,,,,,,,,,,,,,,,,,,,,,,,,,,,,,,,,,,,,,,,,,,,,,,,,,,,,022222,1,3,0,1,2022_Feb_22_0911,training_fmri,3.2.4,59.60370545268565,
,1,What object is the initiator of the interaction holding when he/she first notices the other person?,What is the initial question that begins the conversation between the couple?,When will be the next time the couple meets and for what occasion?,"What time is it when the couple parts?
",What is the initial question that ends the conversation between the couple?,What object is the initiator of the interaction holding when he/she leaves the other person?,Matchmaker,jobphotos/matchmaker.jpg,,,,,,,,,,,,,,,,,0,0,0,1,0,0,0,0,,,,,,,,,,,,,,,,,,,,,,,,,,,,,,,,,,,99.53522270400003,None,99.53522270400003,None,space,1.698790970999994,99.53522270400003,None,,,,,,,,,,,,,,,,,,,,,,,,,,,,,,,,,,,,,,,,,,,,,,,,,,,,,,,,,,,,,,,,,,,,,,,,,,,,,,,,,,,,,,,,,,,,,,,022222,1,3,0,1,2022_Feb_22_0911,training_fmri,3.2.4,59.60370545268565,
,1,,,,,,,,,,,,,,,,,,,,,,,,,0,0,0,1,,,,,,,,,,,,,,,,,,,,,,,,,,,,,,,,,,,,,,,,,,,,,,,,,,,,,,,,,,,,,,,,,,,,,,,,,,,,,,,,,,,,,,,,,,,,,,,,,,,,,,,,,,,,,,,,,,,,,,,,,,,,,,,,,,,,,,,,,,,,,022222,1,3,0,1,2022_Feb_22_0911,training_fmri,3.2.4,59.60370545268565,
,0,For how long has the couple been dating?,"How many diamonds are on the ring, and what is the diamond color?","In/on what item is the ring presented?
","Who does the new fiancee text first?
",For how long has the couple known the other was going to propose?,Who does the new fiancee hug first?,Wedding Planner,jobphotos/weddingplanner.jpg,,,,,,,,,,,,,,,,,0,1,1,0,0,0,0,0,,,,,,,,,,,,,,,,,,,,,,,,,,,,,,,,,,,101.286088361,None,101.286088361,None,space,1.3968668159999993,101.286088361,None,,,,,,,,,,,,,,,,,,,,,,,,,,,,,,,,,,,,,,,,,,,,,,,,,,,,,,,,,,,,,,,,,,,,,,,,,,,,,,,,,,,,,,,,,,,,,,,022222,1,3,0,1,2022_Feb_22_0911,training_fmri,3.2.4,59.60370545268565,
,0,,,,,,,,,,,,,,,,,,,,,,,,,0,1,1,0,,,,,,,,,,,,,,,,,,,,,,,,,,,,,,,,,,,,,,,,,,,,,,,,,,,,,,,,,,,,,,,,,,,,,,,,,,,,,,,,,,,,,,,,,,,,,,,,,,,,,,,,,,,,,,,,,,,,,,,,,,,,,,,,,,,,,,,,,,,,,022222,1,3,0,1,2022_Feb_22_0911,training_fmri,3.2.4,59.60370545268565,
,3,"When the clients arrive at the airport, how much time do they have until their flight departs?
",What is the reason for the hold-up at security?,"Toward which gate are the clients walking?
","What section and seat does each client sit in on the plane?
",Toward which security line are the clients walking?,What section and seat are roped off on the plane?,Airport Customer Experience Manager,jobphotos/acem.jpg,,,,,,,,,,,,,,,,,0,2,2,3,0,0,0,0,,,,,,,,,,,,,,,,,,,,,,,,,,,,,,,,,,,102.786190116,None,102.786190116,None,space,2.814714241000047,102.786190116,None,,,,,,,,,,,,,,,,,,,,,,,,,,,,,,,,,,,,,,,,,,,,,,,,,,,,,,,,,,,,,,,,,,,,,,,,,,,,,,,,,,,,,,,,,,,,,,,022222,1,3,0,1,2022_Feb_22_0911,training_fmri,3.2.4,59.60370545268565,
,3,,,,,,,,,,,,,,,,,,,,,,,,,0,2,2,3,,,,,,,,,,,,,,,,,,,,,,,,,,,,,,,,,,,,,,,,,,,,,,,,,,,,,,,,,,,,,,,,,,,,,,,,,,,,,,,,,,,,,,,,,,,,,,,,,,,,,,,,,,,,,,,,,,,,,,,,,,,,,,,,,,,,,,,,,,,,,022222,1,3,0,1,2022_Feb_22_0911,training_fmri,3.2.4,59.60370545268565,
,2,How is the restaurant decorated?,What are the menus like?,"What does each client order?
",How do the clients like the food?,How is the restaurant supplied?,How do the clients like the chairs?,Restaurant Critic,jobphotos/restaurant_critic.jpg,,,,,,,,,,,,,,,,,0,3,3,2,0,0,0,0,,,,,,,,,,,,,,,,,,,,,,,,,,,,,,,,,,,105.65319699100002,None,105.65319699100002,None,space,2.543606043000011,105.65319699100002,None,,,,,,,,,,,,,,,,,,,,,,,,,,,,,,,,,,,,,,,,,,,,,,,,,,,,,,,,,,,,,,,,,,,,,,,,,,,,,,,,,,,,,,,,,,,,,,,022222,1,3,0,1,2022_Feb_22_0911,training_fmri,3.2.4,59.60370545268565,
,2,,,,,,,,,,,,,,,,,,,,,,,,,0,3,3,2,,,,,,,,,,,,,,,,,,,,,,,,,,,,,,,,,,,,,,,,,,,,,,,,,,,,,,,,,,,,,,,,,,,,,,,,,,,,,,,,,,,,,,,,,,,,,,,,,,,,,,,,,,,,,,,,,,,,,,,,,,,,,,,,,,,,,,,,,,,,,022222,1,3,0,1,2022_Feb_22_0911,training_fmri,3.2.4,59.60370545268565,
You’ll become acquainted with them more in learning the 4 questions associated with each perspective.,,,,,,,,,,,,,,,,,,,,,,,,,,,,,,,,,,0,0,0,0,,,,,,,,,,,,,,,,,108.236090004,None,space,5.866045442000029,108.236090004,None,,,,,,,,,,,,,,,,,,,,,,,,,,,,,,,,,,,,,,,,,,,,,,,,,,,,,,,,,,,,,,,,,,,,,,,,,,,,,,,,,,,,,,,,,,,,,,,,,,,,,,,,,,,,,,,022222,1,3,0,1,2022_Feb_22_0911,training_fmri,3.2.4,59.60370545268565,
"For each perspective, you'll go through all four questions in a sequence.",,,,,,,,,,,,,,,,,,,,,,,,,,,,,,,,,,0,1,1,1,,,,,,,,,,,,,,,,,114.13625099000001,None,space,3.818368776,114.13625099000001,None,,,,,,,,,,,,,,,,,,,,,,,,,,,,,,,,,,,,,,,,,,,,,,,,,,,,,,,,,,,,,,,,,,,,,,,,,,,,,,,,,,,,,,,,,,,,,,,,,,,,,,,,,,,,,,,022222,1,3,0,1,2022_Feb_22_0911,training_fmri,3.2.4,59.60370545268565,
Then you'll be presented with a quiz and have to indicate which questions you saw in the order in which they appeared in the sequence.,,,,,,,,,,,,,,,,,,,,,,,,,,,,,,,,,,0,2,2,2,,,,,,,,,,,,,,,,,118.00273543899999,None,space,7.756557353000005,118.00273543899999,None,,,,,,,,,,,,,,,,,,,,,,,,,,,,,,,,,,,,,,,,,,,,,,,,,,,,,,,,,,,,,,,,,,,,,,,,,,,,,,,,,,,,,,,,,,,,,,,,,,,,,,,,,,,,,,,022222,1,3,0,1,2022_Feb_22_0911,training_fmri,3.2.4,59.60370545268565,
You'll indicate the question you select by pressing the number key corresponding to the number in front of the question.,,,,,,,,,,,,,,,,,,,,,,,,,,,,,,,,,,0,3,3,3,,,,,,,,,,,,,,,,,125.802649272,None,space,6.120585579999954,125.802649272,None,,,,,,,,,,,,,,,,,,,,,,,,,,,,,,,,,,,,,,,,,,,,,,,,,,,,,,,,,,,,,,,,,,,,,,,,,,,,,,,,,,,,,,,,,,,,,,,,,,,,,,,,,,,,,,,022222,1,3,0,1,2022_Feb_22_0911,training_fmri,3.2.4,59.60370545268565,
"If you make the wrong selection, you'll get the 4 questions presented in the correct order again and restart the quiz.",,,,,,,,,,,,,,,,,,,,,,,,,,,,,,,,,,0,4,4,4,,,,,,,,,,,,,,,,,131.96915985100003,None,space,10.716387345999976,131.96915985100003,None,,,,,,,,,,,,,,,,,,,,,,,,,,,,,,,,,,,,,,,,,,,,,,,,,,,,,,,,,,,,,,,,,,,,,,,,,,,,,,,,,,,,,,,,,,,,,,,,,,,,,,,,,,,,,,,022222,1,3,0,1,2022_Feb_22_0911,training_fmri,3.2.4,59.60370545268565,
"After you've passed the quizzes for each perspective, you'll do all of them a final time, but without seeing the correct order of the questions beforehand.",,,,,,,,,,,,,,,,,,,,,,,,,,,,,,,,,,0,5,5,5,,,,,,,,,,,,,,,,,142.735262413,None,space,7.874887200000046,142.735262413,None,,,,,,,,,,,,,,,,,,,,,,,,,,,,,,,,,,,,,,,,,,,,,,,,,,,,,,,,,,,,,,,,,,,,,,,,,,,,,,,,,,,,,,,,,,,,,,,,,,,,,,,,,,,,,,,022222,1,3,0,1,2022_Feb_22_0911,training_fmri,3.2.4,59.60370545268565,
Press space to begin!,,,,,,,,,,,,,,,,,,,,,,,,,,,,,,,,,,0,6,6,6,,,,,,,,,,,,,,,,,150.635355274,None,space,0.8736713150000242,150.635355274,None,,,,,,,,,,,,,,,,,,,,,,,,,,,,,,,,,,,,,,,,,,,,,,,,,,,,,,,,,,,,,,,,,,,,,,,,,,,,,,,,,,,,,,,,,,,,,,,,,,,,,,,,,,,,,,,022222,1,3,0,1,2022_Feb_22_0911,training_fmri,3.2.4,59.60370545268565,
,1,What object is the initiator of the interaction holding when he/she first notices the other person?,What is the initial question that begins the conversation between the couple?,When will be the next time the couple meets and for what occasion?,"What time is it when the couple parts?
",What is the initial question that ends the conversation between the couple?,What object is the initiator of the interaction holding when he/she leaves the other person?,Matchmaker,jobphotos/matchmaker.jpg,,,,,,,,,,,,,,,,,,,,,,,,,,,,,0,0,0,1,0,0,0,0,,,,,,,,,,,,,,,,,,,,,,,,,,,,,,,151.568442242,None,151.568442242,None,space,9.479360615000019,151.568442242,None,161.102770748,None,161.102770748,None,161.102770748,None,space,8.208260424000002,161.102770748,None,169.369154772,None,169.369154772,None,169.369154772,None,space,2.4134125280000376,169.369154772,None,171.835411374,None,171.835411374,None,171.835411374,None,space,5.972599115999969,171.835411374,None,177.86937334100003,None,177.86937334100003,None,177.86937334100003,None,space,1.827569541999992,177.86937334100003,None,179.71719184900002,None,space,1.5804676950000385,179.71719184900002,None,181.43524483,None,181.43524483,None,181.43524483,None,181.43524483,None,181.43524483,None,181.43524483,None,181.43524483,None,,,,,,,,,,,,,,,,,,,,,,,,,,,022222,1,3,0,1,2022_Feb_22_0911,training_fmri,3.2.4,59.60370545268565,
,1,What object is the initiator of the interaction holding when he/she first notices the other person?,What is the initial question that begins the conversation between the couple?,When will be the next time the couple meets and for what occasion?,"What time is it when the couple parts?
",What is the initial question that ends the conversation between the couple?,What object is the initiator of the interaction holding when he/she leaves the other person?,Matchmaker,jobphotos/matchmaker.jpg,,,,,,,,,,,,,,,,,,,,,,,,,,,,,0,0,0,1,1,0,1,0,,,,,,,,,,,,,,,,,,,,,,,,,,,,,,,209.25215579900004,None,209.25215579900004,None,space,1.524095100000011,209.25215579900004,None,210.818114342,None,210.818114342,None,210.818114342,None,space,1.1779143360000148,210.818114342,None,212.03460318700002,None,212.03460318700002,None,212.03460318700002,None,space,0.9434014509999997,212.03460318700002,None,213.017865502,None,213.017865502,None,213.017865502,None,space,1.3669457469999884,213.017865502,None,214.43460805800004,None,214.43460805800004,None,214.43460805800004,None,space,0.8192563879999852,214.43460805800004,None,215.284613223,None,space,1.261266001000024,215.284613223,None,216.650158405,None,216.650158405,None,216.650158405,None,216.650158405,None,216.650158405,None,216.650158405,None,216.650158405,None,,,,,,,,,,,,,,,,,,,,,,,,,,,022222,1,3,0,1,2022_Feb_22_0911,training_fmri,3.2.4,59.60370545268565,
,1,,,,,,,,,,,,,,,,,,,,,,,,,,,,,,,,,,,,,0,0,0,1,,,,,,,,,,,,,,,,,,,,,,,,,,,,,,,,,,,,,,,,,,,,,,,,,,,,,,,,,,,,,,,,,,,,,,,,,,,,,,,,,,,,,,,,,,,,,,,,,,,,,,,,,,,,,,,,,,,,,,,,,,,,,,,,,022222,1,3,0,1,2022_Feb_22_0911,training_fmri,3.2.4,59.60370545268565,
,2,How is the restaurant decorated?,What are the menus like?,"What does each client order?
",How do the clients like the food?,How is the restaurant supplied?,How do the clients like the chairs?,Restaurant Critic,jobphotos/restaurant_critic.jpg,,,,,,,,,,,,,,,,,,,,,,,,,,,,,0,1,1,2,0,0,0,0,,,,,,,,,,,,,,,,,,,,,,,,,,,,,,,234.36729400500002,None,234.36729400500002,None,space,1.2673257700000136,234.36729400500002,None,235.70143586800003,None,235.70143586800003,None,235.70143586800003,None,space,1.7681463049999593,235.70143586800003,None,237.53523328,None,237.53523328,None,237.53523328,None,space,1.3774451609999687,237.53523328,None,238.96755391,None,238.96755391,None,238.96755391,None,space,1.8960575890000086,238.96755391,None,240.91752571300003,None,240.91752571300003,None,240.91752571300003,None,space,3.849929750000001,240.91752571300003,None,244.78328524,None,space,0.6551602659999958,244.78328524,None,245.55140145900003,None,245.55140145900003,None,245.55140145900003,None,245.55140145900003,None,245.55140145900003,None,245.55140145900003,None,245.55140145900003,None,,,,,,,,,,,,,,,,,,,,,,,,,,,022222,1,3,0,1,2022_Feb_22_0911,training_fmri,3.2.4,59.60370545268565,
,2,,,,,,,,,,,,,,,,,,,,,,,,,,,,,,,,,,,,,0,1,1,2,,,,,,,,,,,,,,,,,,,,,,,,,,,,,,,,,,,,,,,,,,,,,,,,,,,,,,,,,,,,,,,,,,,,,,,,,,,,,,,,,,,,,,,,,,,,,,,,,,,,,,,,,,,,,,,,,,,,,,,,,,,,,,,,,022222,1,3,0,1,2022_Feb_22_0911,training_fmri,3.2.4,59.60370545268565,
,0,For how long has the couple been dating?,"How many diamonds are on the ring, and what is the diamond color?","In/on what item is the ring presented?
","Who does the new fiancee text first?
",For how long has the couple known the other was going to propose?,Who does the new fiancee hug first?,Wedding Planner,jobphotos/weddingplanner.jpg,,,,,,,,,,,,,,,,,,,,,,,,,,,,,0,2,2,0,0,0,0,0,,,,,,,,,,,,,,,,,,,,,,,,,,,,,,,262.066889006,None,262.066889006,None,space,1.4642501639999637,262.066889006,None,263.584626804,None,263.584626804,None,263.584626804,None,space,1.9245692089999693,263.584626804,None,265.567301683,None,265.567301683,None,265.567301683,None,space,5.701402360999964,265.567301683,None,271.33441684,None,271.33441684,None,271.33441684,None,space,2.588027569000019,271.33441684,None,273.98468367,None,273.98468367,None,273.98468367,None,space,2.6866500170000336,273.98468367,None,276.70058927800005,None,space,1.0847159810000448,276.70058927800005,None,277.901346343,None,277.901346343,None,277.901346343,None,277.901346343,None,277.901346343,None,277.901346343,None,277.901346343,None,,,,,,,,,,,,,,,,,,,,,,,,,,,022222,1,3,0,1,2022_Feb_22_0911,training_fmri,3.2.4,59.60370545268565,
,0,,,,,,,,,,,,,,,,,,,,,,,,,,,,,,,,,,,,,0,2,2,0,,,,,,,,,,,,,,,,,,,,,,,,,,,,,,,,,,,,,,,,,,,,,,,,,,,,,,,,,,,,,,,,,,,,,,,,,,,,,,,,,,,,,,,,,,,,,,,,,,,,,,,,,,,,,,,,,,,,,,,,,,,,,,,,,022222,1,3,0,1,2022_Feb_22_0911,training_fmri,3.2.4,59.60370545268565,
,3,"When the clients arrive at the airport, how much time do they have until their flight departs?
",What is the reason for the hold-up at security?,"Toward which gate are the clients walking?
","What section and seat does each client sit in on the plane?
",Toward which security line are the clients walking?,What section and seat are roped off on the plane?,Airport Customer Experience Manager,jobphotos/acem.jpg,,,,,,,,,,,,,,,,,,,,,,,,,,,,,0,3,3,3,0,0,0,0,,,,,,,,,,,,,,,,,,,,,,,,,,,,,,,293.032984584,None,293.032984584,None,space,1.8983367119999457,293.032984584,None,295.001114231,None,295.001114231,None,295.001114231,None,space,8.15209538299996,295.001114231,None,303.216336017,None,303.216336017,None,303.216336017,None,space,2.5463717349999797,303.216336017,None,305.81754112500005,None,305.81754112500005,None,305.81754112500005,None,space,2.3049410739999985,305.81754112500005,None,308.18369876099996,None,308.18369876099996,None,308.18369876099996,None,space,2.9997046429999727,308.18369876099996,None,311.198971489,None,space,0.8865026309999848,311.198971489,None,312.19973836400004,None,312.19973836400004,None,312.19973836400004,None,312.19973836400004,None,312.19973836400004,None,312.19973836400004,None,312.19973836400004,None,,,,,,,,,,,,,,,,,,,,,,,,,,,022222,1,3,0,1,2022_Feb_22_0911,training_fmri,3.2.4,59.60370545268565,
,3,,,,,,,,,,,,,,,,,,,,,,,,,,,,,,,,,,,,,0,3,3,3,,,,,,,,,,,,,,,,,,,,,,,,,,,,,,,,,,,,,,,,,,,,,,,,,,,,,,,,,,,,,,,,,,,,,,,,,,,,,,,,,,,,,,,,,,,,,,,,,,,,,,,,,,,,,,,,,,,,,,,,,,,,,,,,,022222,1,3,0,1,2022_Feb_22_0911,training_fmri,3.2.4,59.60370545268565,
,3,"When the clients arrive at the airport, how much time do they have until their flight departs?
",What is the reason for the hold-up at security?,"Toward which gate are the clients walking?
","What section and seat does each client sit in on the plane?
",Toward which security line are the clients walking?,What section and seat are roped off on the plane?,Airport Customer Experience Manager,jobphotos/acem.jpg,,,,,,,,,,,,,,,,,,,,,,,,,,,,,,,,,,,,,0,0,0,3,0,0,0,0,,,,,,,,,,,,,,,,,,,,,,,,,,,,,,,,,,,,,,,,,,,,,,,,,,,,,,,,,,,,,,,,,,,,,,,,,,,,,,,,,,,,,,,,,,,331.58324032999997,None,332.649478458,None,space,2.284443261999968,332.649478458,None,332.649478458,None,335.049508565,None,335.049508565,None,335.049508565,None,335.049508565,None,335.049508565,None,335.049508565,None,335.049508565,None,,,022222,1,3,0,1,2022_Feb_22_0911,training_fmri,3.2.4,59.60370545268565,
,3,,,,,,,,,,,,,,,,,,,,,,,,,,,,,,,,,,,,,,,,,,,,,0,0,0,3,,,,,,,,,,,,,,,,,,,,,,,,,,,,,,,,,,,,,,,,,,,,,,,,,,,,,,,,,,,,,,,,,,,,,,,,,,,,,,,,,,,,,,,,,,,,,,,,,,,,,,,,,,,,,,,,,,,,,,,,,022222,1,3,0,1,2022_Feb_22_0911,training_fmri,3.2.4,59.60370545268565,
,1,What object is the initiator of the interaction holding when he/she first notices the other person?,What is the initial question that begins the conversation between the couple?,When will be the next time the couple meets and for what occasion?,"What time is it when the couple parts?
",What is the initial question that ends the conversation between the couple?,What object is the initiator of the interaction holding when he/she leaves the other person?,Matchmaker,jobphotos/matchmaker.jpg,,,,,,,,,,,,,,,,,,,,,,,,,,,,,,,,,,,,,0,1,1,1,0,0,0,0,,,,,,,,,,,,,,,,,,,,,,,,,,,,,,,,,,,,,,,,,,,,,,,,,,,,,,,,,,,,,,,,,,,,,,,,,,,,,,,,,,,,,,,,,,,,,356.366842315,None,space,1.363014147000058,356.366842315,None,356.366842315,None,357.85035088000006,None,357.85035088000006,None,357.85035088000006,None,357.85035088000006,None,357.85035088000006,None,357.85035088000006,None,357.85035088000006,None,,,022222,1,3,0,1,2022_Feb_22_0911,training_fmri,3.2.4,59.60370545268565,
,1,,,,,,,,,,,,,,,,,,,,,,,,,,,,,,,,,,,,,,,,,,,,,0,1,1,1,,,,,,,,,,,,,,,,,,,,,,,,,,,,,,,,,,,,,,,,,,,,,,,,,,,,,,,,,,,,,,,,,,,,,,,,,,,,,,,,,,,,,,,,,,,,,,,,,,,,,,,,,,,,,,,,,,,,,,,,,022222,1,3,0,1,2022_Feb_22_0911,training_fmri,3.2.4,59.60370545268565,
,2,How is the restaurant decorated?,What are the menus like?,"What does each client order?
",How do the clients like the food?,How is the restaurant supplied?,How do the clients like the chairs?,Restaurant Critic,jobphotos/restaurant_critic.jpg,,,,,,,,,,,,,,,,,,,,,,,,,,,,,,,,,,,,,0,2,2,2,0,0,0,0,,,,,,,,,,,,,,,,,,,,,,,,,,,,,,,,,,,,,,,,,,,,,,,,,,,,,,,,,,,,,,,,,,,,,,,,,,,,,,,,,,,,,,,,,,,,,375.06658068700006,None,space,1.1230687499999021,375.06658068700006,None,375.06658068700006,None,376.299844119,None,376.299844119,None,376.299844119,None,376.299844119,None,376.299844119,None,376.299844119,None,376.299844119,None,,,022222,1,3,0,1,2022_Feb_22_0911,training_fmri,3.2.4,59.60370545268565,
,2,,,,,,,,,,,,,,,,,,,,,,,,,,,,,,,,,,,,,,,,,,,,,0,2,2,2,,,,,,,,,,,,,,,,,,,,,,,,,,,,,,,,,,,,,,,,,,,,,,,,,,,,,,,,,,,,,,,,,,,,,,,,,,,,,,,,,,,,,,,,,,,,,,,,,,,,,,,,,,,,,,,,,,,,,,,,,022222,1,3,0,1,2022_Feb_22_0911,training_fmri,3.2.4,59.60370545268565,
,0,For how long has the couple been dating?,"How many diamonds are on the ring, and what is the diamond color?","In/on what item is the ring presented?
","Who does the new fiancee text first?
",For how long has the couple known the other was going to propose?,Who does the new fiancee hug first?,Wedding Planner,jobphotos/weddingplanner.jpg,,,,,,,,,,,,,,,,,,,,,,,,,,,,,,,,,,,,,0,3,3,0,0,0,0,0,,,,,,,,,,,,,,,,,,,,,,,,,,,,,,,,,,,,,,,,,,,,,,,,,,,,,,,,,,,,,,,,,,,,,,,,,,,,,,,,,,,,,,,,,,,,,389.68295124200006,None,space,1.3883094569999912,389.68295124200006,None,389.68295124200006,None,391.183290007,None,391.183290007,None,391.183290007,None,391.183290007,None,391.183290007,None,391.183290007,None,391.183290007,None,,,022222,1,3,0,1,2022_Feb_22_0911,training_fmri,3.2.4,59.60370545268565,
,0,,,,,,,,,,,,,,,,,,,,,,,,,,,,,,,,,,,,,,,,,,,,,0,3,3,0,,,,,,,,,,,,,,,,,,,,,,,,,,,,,,,,,,,,,,,,,,,,,,,,,,,,,,,,,,,,,,,,,,,,,,,,,,,,,,,,,,,,,,,,,,,,,,,,,,,,,,,,,,,,,,,,,,,,,,,,,022222,1,3,0,1,2022_Feb_22_0911,training_fmri,3.2.4,59.60370545268565,
,,,,,,,,,,,,,,,,,,,,,,,,,,,,,,,,,,,,,,,,,,,,,,,,,,,,,,,,,,,,,,,,,,,,,,,,,,,,,,,,,,,,,,,,,,,,,,,,,,,,,,,,,,,,,,,,,,,,,,,,,,,,,,,,,,,,,,,,,,,,,,,,,,,,,,,,,,,,,,,,,,,,,,,,405.74867033600003,None,,,,,,,,,,
