count,audio,trials_14.thisRepN,trials_14.thisTrialN,trials_14.thisN,trials_14.thisIndex,trials_3.thisRepN,trials_3.thisTrialN,trials_3.thisN,trials_3.thisIndex,trials_4.thisRepN,trials_4.thisTrialN,trials_4.thisN,trials_4.thisIndex,trials_6.thisRepN,trials_6.thisTrialN,trials_6.thisN,trials_6.thisIndex,trials_9.thisRepN,trials_9.thisTrialN,trials_9.thisN,trials_9.thisIndex,trials_10.thisRepN,trials_10.thisTrialN,trials_10.thisN,trials_10.thisIndex,trials_12.thisRepN,trials_12.thisTrialN,trials_12.thisN,trials_12.thisIndex,trials_25.thisRepN,trials_25.thisTrialN,trials_25.thisN,trials_25.thisIndex,trials_15.thisRepN,trials_15.thisTrialN,trials_15.thisN,trials_15.thisIndex,trials_26.thisRepN,trials_26.thisTrialN,trials_26.thisN,trials_26.thisIndex,trials_11.thisRepN,trials_11.thisTrialN,trials_11.thisN,trials_11.thisIndex,trials_8.thisRepN,trials_8.thisTrialN,trials_8.thisN,trials_8.thisIndex,story_list_block2,action_list_block2,textTrigger.started,textTrigger.stopped,getTrigger.keys,getTrigger.rt,getTrigger.started,getTrigger.stopped,triggerTime,text_76.started,text_76.stopped,text_77.started,text_77.stopped,startWait,endWait,image_23.started,image_23.stopped,text_55.started,text_55.stopped,text_56.started,text_56.stopped,key_resp_2.keys,key_resp_2.rt,key_resp_2.started,key_resp_2.stopped,text_82.started,text_82.stopped,text_64.started,text_64.stopped,key_resp_20.keys,key_resp_20.rt,key_resp_20.started,key_resp_20.stopped,storyImage_StartTime,storyImage_EndTime,clip_StartTime,clip_EndTime,text_67.started,text_67.stopped,text_68.started,text_68.stopped,text_57.started,text_57.stopped,key_resp_17.keys,key_resp_17.rt,key_resp_17.started,key_resp_17.stopped,text_83.started,text_83.stopped,text_60.started,text_60.stopped,image_2.started,image_2.stopped,text_58.started,text_58.stopped,key_resp_23.keys,key_resp_23.rt,key_resp_23.started,key_resp_23.stopped,text_62.started,text_62.stopped,key_resp_18.keys,key_resp_18.rt,key_resp_18.started,key_resp_18.stopped,text_84.started,text_84.stopped,question1_2.started,question1_2.stopped,question2_2.started,question2_2.stopped,question3_2.started,question3_2.stopped,question4_2.started,question4_2.stopped,question5_2.started,question5_2.stopped,question6_2.started,question6_2.stopped,image_15.started,image_15.stopped,key_resp.keys,key_resp.started,key_resp.stopped,text_59.started,text_59.stopped,key_resp_19.keys,key_resp_19.rt,key_resp_19.started,key_resp_19.stopped,text_85.started,text_85.stopped,text_61.started,text_61.stopped,image_17.started,image_17.stopped,text_63.started,text_63.stopped,key_resp_24.keys,key_resp_24.rt,key_resp_24.started,key_resp_24.stopped,text_36.started,text_36.stopped,participant,sA,sB,lA,lB,block_struct,play_stories,block,behavioral,random_seed,date,expName,psychopyVersion,frameRate,
0,parcelated_audio/13/13_1.ogg,,,,,,,,,0,0,0,0,0,0,0,0,0,0,0,0,,,,,,,,,0,0,0,0,0,0,0,0,,,,,,,,,,,,,[13 23 44 43 24 34 33 14],[4 1 3 1 3 2 4 2],14.701527496999915,None,equal,35.99974570099948,14.701527496999915,None,36.0173638669994,14.701527496999915,None,14.701527496999915,None,0.00033381200046278536,6.006931141000678,50.717673721999745,None,56.73465224899974,None,56.73465224899974,None,2,8.857740489000207,56.73465224899974,None,56.73465224899974,None,65.61846829000024,None,2,4.945923057999607,65.61846829000024,None,19.88104694700087,22.890331006999986,22.897267639000347,34.58582807900075,,,,,,,,,,,,,,,,,,,,,,,,,,,,,,,,,,,,,,,,,,,,,,,,,,,,,,,,,,,,,,,,,,,,022122,1,3,1,3,3,1,2,0,58,2022_Feb_21_1224,listening_fmri,3.2.4,59.891713266988965,
0,parcelated_audio/13/13_2.ogg,,,,,,,,,0,0,0,0,0,0,0,0,0,0,0,0,,,,,,,,,0,0,0,0,0,1,1,1,,,,,,,,,,,,,,,,,,,,,,,,,,,,,,,,,,,,,,,,,,,,,,,,34.58615918100077,40.69453912500012,,,,,,,,,,,,,,,,,,,,,,,,,,,,,,,,,,,,,,,,,,,,,,,,,,,,,,,,,,,,,,,,,,,,022122,1,3,1,3,3,1,2,0,58,2022_Feb_21_1224,listening_fmri,3.2.4,59.891713266988965,
0,parcelated_audio/13/13_3.ogg,,,,,,,,,0,0,0,0,0,0,0,0,0,0,0,0,,,,,,,,,0,0,0,0,0,2,2,2,,,,,,,,,,,,,,,,,,,,,,,,,,,,,,,,,,,,,,,,,,,,,,,,40.69489199600048,49.063879388000714,,,,,,,,,,,,,,,,,,,,,,,,,,,,,,,,,,,,,,,,,,,,,,,,,,,,,,,,,,,,,,,,,,,,022122,1,3,1,3,3,1,2,0,58,2022_Feb_21_1224,listening_fmri,3.2.4,59.891713266988965,
0,parcelated_audio/13/13_4.ogg,,,,,,,,,0,0,0,0,0,0,0,0,0,0,0,0,,,,,,,,,0,0,0,0,0,3,3,3,,,,,,,,,,,,,,,,,,,,,,,,,,,,,,,,,,,,,,,,,,,,,,,,49.06422614300027,59.30487316600011,,,,,,,,,,,,,,,,,,,,,,,,,,,,,,,,,,,,,,,,,,,,,,,,,,,,,,,,,,,,,,,,,,,,022122,1,3,1,3,3,1,2,0,58,2022_Feb_21_1224,listening_fmri,3.2.4,59.891713266988965,
0,parcelated_audio/13/13_5.ogg,,,,,,,,,0,0,0,0,0,0,0,0,0,0,0,0,,,,,,,,,0,0,0,0,0,4,4,4,,,,,,,,,,,,,,,,,,,,,,,,,,,,,,,,,,,,,,,,,,,,,,,,59.3052099180004,65.33965249600078,,,,,,,,,,,,,,,,,,,,,,,,,,,,,,,,,,,,,,,,,,,,,,,,,,,,,,,,,,,,,,,,,,,,022122,1,3,1,3,3,1,2,0,58,2022_Feb_21_1224,listening_fmri,3.2.4,59.891713266988965,
0,parcelated_audio/13/13_6.ogg,,,,,,,,,0,0,0,0,0,0,0,0,0,0,0,0,,,,,,,,,0,0,0,0,0,5,5,5,,,,,,,,,,,,,,,,,,,,,,,,,,,,,,,,,,,,,,,,,,,,,,,,65.3401616580004,70.03345102100047,,,,,,,,,,,,,,,,,,,,,,,,,,,,,,,,,,,,,,,,,,,,,,,,,,,,,,,,,,,,,,,,,,,,022122,1,3,1,3,3,1,2,0,58,2022_Feb_21_1224,listening_fmri,3.2.4,59.891713266988965,
0,parcelated_audio/13/13_7.ogg,,,,,,,,,0,0,0,0,0,0,0,0,0,0,0,0,,,,,,,,,0,0,0,0,0,6,6,6,,,,,,,,,,,,,,,,,,,,,,,,,,,,,,,,,,,,,,,,,,,,,,,,70.03400234500077,77.6961428730001,,,,,,,,,,,,,,,,,,,,,,,,,,,,,,,,,,,,,,,,,,,,,,,,,,,,,,,,,,,,,,,,,,,,022122,1,3,1,3,3,1,2,0,58,2022_Feb_21_1224,listening_fmri,3.2.4,59.891713266988965,
0,parcelated_audio/13/13_8.ogg,,,,,,,,,0,0,0,0,0,0,0,0,0,0,0,0,,,,,,,,,0,0,0,0,0,7,7,7,,,,,,,,,,,,,,,,,,,,,,,,,,,,,,,,,,,,,,,,,,,,,,,,77.69651745300052,82.98805910900046,,,,,,,,,,,,,,,,,,,,,,,,,,,,,,,,,,,,,,,,,,,,,,,,,,,,,,,,,,,,,,,,,,,,022122,1,3,1,3,3,1,2,0,58,2022_Feb_21_1224,listening_fmri,3.2.4,59.891713266988965,
0,parcelated_audio/13/13_9.ogg,,,,,,,,,0,0,0,0,0,0,0,0,0,0,0,0,,,,,,,,,0,0,0,0,0,8,8,8,,,,,,,,,,,,,,,,,,,,,,,,,,,,,,,,,,,,,,,,,,,,,,,,82.98842387100012,87.59880819900081,,,,,,,,,,,,,,,,,,,,,,,,,,,,,,,,,,,,,,,,,,,,,,,,,,,,,,,,,,,,,,,,,,,,022122,1,3,1,3,3,1,2,0,58,2022_Feb_21_1224,listening_fmri,3.2.4,59.891713266988965,
0,parcelated_audio/13/13_10.ogg,,,,,,,,,0,0,0,0,0,0,0,0,0,0,0,0,,,,,,,,,0,0,0,0,0,9,9,9,,,,,,,,,,,,,,,,,,,,,,,,,,,,,,,,,,,,,,,,,,,,,,,,87.59932708300039,93.39869988200007,,,,,,,,,,,,,,,,,,,,,,,,,,,,,,,,,,,,,,,,,,,,,,,,,,,,,,,,,,,,,,,,,,,,022122,1,3,1,3,3,1,2,0,58,2022_Feb_21_1224,listening_fmri,3.2.4,59.891713266988965,
0,parcelated_audio/13/13_11.ogg,,,,,,,,,0,0,0,0,0,0,0,0,0,0,0,0,,,,,,,,,0,0,0,0,0,10,10,10,,,,,,,,,,,,,,,,,,,,,,,,,,,,,,,,,,,,,,,,,,,,,,,,93.39905251600067,98.00495485100055,,,,,,,,,,,,,,,,,,,,,,,,,,,,,,,,,,,,,,,,,,,,,,,,,,,,,,,,,,,,,,,,,,,,022122,1,3,1,3,3,1,2,0,58,2022_Feb_21_1224,listening_fmri,3.2.4,59.891713266988965,
0,parcelated_audio/13/13_12.ogg,,,,,,,,,0,0,0,0,0,0,0,0,0,0,0,0,,,,,,,,,0,0,0,0,0,11,11,11,,,,,,,,,,,,,,,,,,,,,,,,,,,,,,,,,,,,,,,,,,,,,,,,98.0054233180008,106.47077076300047,,,,,,,,,,,,,,,,,,,,,,,,,,,,,,,,,,,,,,,,,,,,,,,,,,,,,,,,,,,,,,,,,,,,022122,1,3,1,3,3,1,2,0,58,2022_Feb_21_1224,listening_fmri,3.2.4,59.891713266988965,
0,parcelated_audio/13/13_13.ogg,,,,,,,,,0,0,0,0,0,0,0,0,0,0,0,0,,,,,,,,,0,0,0,0,0,12,12,12,,,,,,,,,,,,,,,,,,,,,,,,,,,,,,,,,,,,,,,,,,,,,,,,106.47113618500043,116.36487631300042,,,,,,,,,,,,,,,,,,,,,,,,,,,,,,,,,,,,,,,,,,,,,,,,,,,,,,,,,,,,,,,,,,,,022122,1,3,1,3,3,1,2,0,58,2022_Feb_21_1224,listening_fmri,3.2.4,59.891713266988965,
0,parcelated_audio/13/13_14.ogg,,,,,,,,,0,0,0,0,0,0,0,0,0,0,0,0,,,,,,,,,0,0,0,0,0,13,13,13,,,,,,,,,,,,,,,,,,,,,,,,,,,,,,,,,,,,,,,,,,,,,,,,116.36521313100002,124.54490893800084,,,,,,,,,,,,,,,,,,,,,,,,,,,,,,,,,,,,,,,,,,,,,,,,,,,,,,,,,,,,,,,,,,,,022122,1,3,1,3,3,1,2,0,58,2022_Feb_21_1224,listening_fmri,3.2.4,59.891713266988965,
0,parcelated_audio/13/13_15.ogg,,,,,,,,,0,0,0,0,0,0,0,0,0,0,0,0,,,,,,,,,0,0,0,0,0,14,14,14,,,,,,,,,,,,,,,,,,,,,,,,,,,,,,,,,,,,,,,,,,,,,,,,124.54525861800084,133.22086400900025,,,,,,,,,,,,,,,,,,,,,,,,,,,,,,,,,,,,,,,,,,,,,,,,,,,,,,,,,,,,,,,,,,,,022122,1,3,1,3,3,1,2,0,58,2022_Feb_21_1224,listening_fmri,3.2.4,59.891713266988965,
0,parcelated_audio/13/13_16.ogg,,,,,,,,,0,0,0,0,0,0,0,0,0,0,0,0,,,,,,,,,0,0,0,0,0,15,15,15,,,,,,,,,,,,,,,,,,,,,,,,,,,,,,,,,,,,,,,,,,,,,,,,133.22121450800023,135.5347672780008,,,,,,,,,,,,,,,,,,,,,,,,,,,,,,,,,,,,,,,,,,,,,,,,,,,,,,,,,,,,,,,,,,,,022122,1,3,1,3,3,1,2,0,58,2022_Feb_21_1224,listening_fmri,3.2.4,59.891713266988965,
0,parcelated_audio/13/13_17.ogg,,,,,,,,,0,0,0,0,0,0,0,0,0,0,0,0,,,,,,,,,0,0,0,0,0,16,16,16,,,,,,,,,,,,,,,,,,,,,,,,,,,,,,,,,,,,,,,,,,,,,,,,135.53590703400005,143.10959897500015,,,,,,,,,,,,,,,,,,,,,,,,,,,,,,,,,,,,,,,,,,,,,,,,,,,,,,,,,,,,,,,,,,,,022122,1,3,1,3,3,1,2,0,58,2022_Feb_21_1224,listening_fmri,3.2.4,59.891713266988965,
0,parcelated_audio/13/13_18.ogg,,,,,,,,,0,0,0,0,0,0,0,0,0,0,0,0,,,,,,,,,0,0,0,0,0,17,17,17,,,,,,,,,,,,,,,,,,,,,,,,,,,,,,,,,,,,,,,,,,,,,,,,143.1101214650007,153.31096572300066,,,,,,,,,,,,,,,,,,,,,,,,,,,,,,,,,,,,,,,,,,,,,,,,,,,,,,,,,,,,,,,,,,,,022122,1,3,1,3,3,1,2,0,58,2022_Feb_21_1224,listening_fmri,3.2.4,59.891713266988965,
0,parcelated_audio/13/13_19.ogg,,,,,,,,,0,0,0,0,0,0,0,0,0,0,0,0,,,,,,,,,0,0,0,0,0,18,18,18,,,,,,,,,,,,,,,,,,,,,,,,,,,,,,,,,,,,,,,,,,,,,,,,153.31131836500026,161.27603286300018,,,,,,,,,,,,,,,,,,,,,,,,,,,,,,,,,,,,,,,,,,,,,,,,,,,,,,,,,,,,,,,,,,,,022122,1,3,1,3,3,1,2,0,58,2022_Feb_21_1224,listening_fmri,3.2.4,59.891713266988965,
0,parcelated_audio/13/13_20.ogg,,,,,,,,,0,0,0,0,0,0,0,0,0,0,0,0,,,,,,,,,0,0,0,0,0,19,19,19,,,,,,,,,,,,,,,,,,,,,,,,,,,,,,,,,,,,,,,,,,,,,,,,161.27808352600005,166.46001837100084,,,,,,,,,,,,,,,,,,,,,,,,,,,,,,,,,,,,,,,,,,,,,,,,,,,,,,,,,,,,,,,,,,,,022122,1,3,1,3,3,1,2,0,58,2022_Feb_21_1224,listening_fmri,3.2.4,59.891713266988965,
0,parcelated_audio/13/13_21.ogg,,,,,,,,,0,0,0,0,0,0,0,0,0,0,0,0,,,,,,,,,0,0,0,0,0,20,20,20,,,,,,,,,,,,,,,,,,,,,,,,,,,,,,,,,,,,,,,,,,,,,,,,166.46036931900016,169.78087075700023,,,,,,,,,,,,,,,,,,,,,,,,,,,,,,,,,,,,,,,,,,,,,,,,,,,,,,,,,,,,,,,,,,,,022122,1,3,1,3,3,1,2,0,58,2022_Feb_21_1224,listening_fmri,3.2.4,59.891713266988965,
0,parcelated_audio/13/13_22.ogg,,,,,,,,,0,0,0,0,0,0,0,0,0,0,0,0,,,,,,,,,0,0,0,0,0,21,21,21,,,,,,,,,,,,,,,,,,,,,,,,,,,,,,,,,,,,,,,,,,,,,,,,169.78129710100075,173.21437184500064,,,,,,,,,,,,,,,,,,,,,,,,,,,,,,,,,,,,,,,,,,,,,,,,,,,,,,,,,,,,,,,,,,,,022122,1,3,1,3,3,1,2,0,58,2022_Feb_21_1224,listening_fmri,3.2.4,59.891713266988965,
0,parcelated_audio/13/13_23.ogg,,,,,,,,,0,0,0,0,0,0,0,0,0,0,0,0,,,,,,,,,0,0,0,0,0,22,22,22,,,,,,,,,,,,,,,,,,,,,,,,,,,,,,,,,,,,,,,,,,,,,,,,173.21541801400053,178.47621854500085,,,,,,,,,,,,,,,,,,,,,,,,,,,,,,,,,,,,,,,,,,,,,,,,,,,,,,,,,,,,,,,,,,,,022122,1,3,1,3,3,1,2,0,58,2022_Feb_21_1224,listening_fmri,3.2.4,59.891713266988965,
0,parcelated_audio/13/13_24.ogg,,,,,,,,,0,0,0,0,0,0,0,0,0,0,0,0,,,,,,,,,0,0,0,0,0,23,23,23,,,,,,,,,,,,,,,,,,,,,,,,,,,,,,,,,,,,,,,,,,,,,,,,178.4767784430005,188.20088562100045,,,,,,,,,,,,,,,,,,,,,,,,,,,,,,,,,,,,,,,,,,,,,,,,,,,,,,,,,,,,,,,,,,,,022122,1,3,1,3,3,1,2,0,58,2022_Feb_21_1224,listening_fmri,3.2.4,59.891713266988965,
0,parcelated_audio/13/13_25.ogg,,,,,,,,,0,0,0,0,0,0,0,0,0,0,0,0,,,,,,,,,0,0,0,0,0,24,24,24,,,,,,,,,,,,,,,,,,,,,,,,,,,,,,,,,,,,,,,,,,,,,,,,188.20136725500015,195.47591953900064,,,,,,,,,,,,,,,,,,,,,,,,,,,,,,,,,,,,,,,,,,,,,,,,,,,,,,,,,,,,,,,,,,,,022122,1,3,1,3,3,1,2,0,58,2022_Feb_21_1224,listening_fmri,3.2.4,59.891713266988965,
0,parcelated_audio/13/13_26.ogg,,,,,,,,,0,0,0,0,0,0,0,0,0,0,0,0,,,,,,,,,0,0,0,0,0,25,25,25,,,,,,,,,,,,,,,,,,,,,,,,,,,,,,,,,,,,,,,,,,,,,,,,195.47640967799998,201.66492503000063,,,,,,,,,,,,,,,,,,,,,,,,,,,,,,,,,,,,,,,,,,,,,,,,,,,,,,,,,,,,,,,,,,,,022122,1,3,1,3,3,1,2,0,58,2022_Feb_21_1224,listening_fmri,3.2.4,59.891713266988965,
0,parcelated_audio/13/13_27.ogg,,,,,,,,,0,0,0,0,0,0,0,0,0,0,0,0,,,,,,,,,0,0,0,0,0,26,26,26,,,,,,,,,,,,,,,,,,,,,,,,,,,,,,,,,,,,,,,,,,,,,,,,201.66547969400017,206.90276564000033,,,,,,,,,,,,,,,,,,,,,,,,,,,,,,,,,,,,,,,,,,,,,,,,,,,,,,,,,,,,,,,,,,,,022122,1,3,1,3,3,1,2,0,58,2022_Feb_21_1224,listening_fmri,3.2.4,59.891713266988965,
0,parcelated_audio/13/13_28.ogg,,,,,,,,,0,0,0,0,0,0,0,0,0,0,0,0,,,,,,,,,0,0,0,0,0,27,27,27,,,,,,,,,,,,,,,,,,,,,,,,,,,,,,,,,,,,,,,,,,,,,,,,206.90311536700028,212.33495343600043,,,,,,,,,,,,,,,,,,,,,,,,,,,,,,,,,,,,,,,,,,,,,,,,,,,,,,,,,,,,,,,,,,,,022122,1,3,1,3,3,1,2,0,58,2022_Feb_21_1224,listening_fmri,3.2.4,59.891713266988965,
0,parcelated_audio/13/13_29.ogg,,,,,,,,,0,0,0,0,0,0,0,0,0,0,0,0,,,,,,,,,0,0,0,0,0,28,28,28,,,,,,,,,,,,,,,,,,,,,,,,,,,,,,,,,,,,,,,,,,,,,,,,212.33530048800003,215.62821924400032,,,,,,,,,,,,,,,,,,,,,,,,,,,,,,,,,,,,,,,,,,,,,,,,,,,,,,,,,,,,,,,,,,,,022122,1,3,1,3,3,1,2,0,58,2022_Feb_21_1224,listening_fmri,3.2.4,59.891713266988965,
0,parcelated_audio/13/13_30.ogg,,,,,,,,,0,0,0,0,0,0,0,0,0,0,0,0,,,,,,,,,0,0,0,0,0,29,29,29,,,,,,,,,,,,,,,,,,,,,,,,,,,,,,,,,,,,,,,,,,,,,,,,215.62858662000053,219.08639062200018,,,,,,,,,,,,,,,,,,,,,,,,,,,,,,,,,,,,,,,,,,,,,,,,,,,,,,,,,,,,,,,,,,,,022122,1,3,1,3,3,1,2,0,58,2022_Feb_21_1224,listening_fmri,3.2.4,59.891713266988965,
0,parcelated_audio/13/13_31.ogg,,,,,,,,,0,0,0,0,0,0,0,0,0,0,0,0,,,,,,,,,0,0,0,0,0,30,30,30,,,,,,,,,,,,,,,,,,,,,,,,,,,,,,,,,,,,,,,,,,,,,,,,219.08675185600077,225.0387407140006,,,,,,,,,,,,,,,,,,,,,,,,,,,,,,,,,,,,,,,,,,,,,,,,,,,,,,,,,,,,,,,,,,,,022122,1,3,1,3,3,1,2,0,58,2022_Feb_21_1224,listening_fmri,3.2.4,59.891713266988965,
0,,,,,,,,,,0,0,0,0,0,0,0,0,0,0,0,0,,,,,,,,,0,0,0,0,,,,,,,,,,,,,,,,,,,,,,,,,,,,,,,,,,,,,,,,,,,,,,,,,,,,,,,,,,,,,,,,,,,,,,,,,,,,,,,,,,,,,,,,,,,,,,,,,,,,,,,,,,,,,,,,,,,,,,,,,022122,1,3,1,3,3,1,2,0,58,2022_Feb_21_1224,listening_fmri,3.2.4,59.891713266988965,
0,,,,,,,,,,0,0,0,0,0,0,0,0,0,0,0,0,,,,,,,,,,,,,,,,,,,,,,,,,,,,,,,,,,,,,,,,,,225.03925078000066,231.03995767600009,275.74846189100026,None,,,,,,,,,,,,,,,,,,,,,281.7598279550002,None,281.7598279550002,None,,,,,,,,,,,,,,,,,,,,,,,,,,,,,,,,,,,,,,,,,,,,,,,,,,,,,,,,,,,,,,,,022122,1,3,1,3,3,1,2,0,58,2022_Feb_21_1224,listening_fmri,3.2.4,59.891713266988965,
0,,,,,,,,,,0,0,0,0,0,0,0,0,,,,,,,,,,,,,,,,,,,,,,,,,,,,,,,,,,,,,,,,,,,,,,,,,,,,,,,,,,,,,,,,,,,,,,,,,,,,,,,,,,,,,,,,,,,,,,,,,,,,,,,,,,,,,,,,,,,,,,,,,,,,,,,,,,,,,,,,,022122,1,3,1,3,3,1,2,0,58,2022_Feb_21_1224,listening_fmri,3.2.4,59.891713266988965,
1,,,,,,,,,,0,0,0,0,0,1,1,1,0,0,0,0,0,0,0,0,,,,,,,,,,,,,,,,,0,0,0,0,,,,,,,,,,,,,,,,,,,,,,282.7589317129996,None,282.7589317129996,None,2,23.017362284999763,282.7589317129996,None,282.7589317129996,None,,,,,,,,,,,,,,,305.7990186249999,None,2,1.3484002850000252,305.7990186249999,None,305.7990186249999,None,307.1810683570002,None,307.1810683570002,None,307.1810683570002,None,2,0.7563277350000135,307.1810683570002,None,307.95958138100013,None,2,0.7006769800000257,307.95958138100013,None,307.95958138100013,None,308.7760315109999,None,308.7760315109999,None,308.7760315109999,None,308.7760315109999,None,308.7760315109999,None,308.7760315109999,None,308.7760315109999,None,None,308.7760315109999,None,,,,,,,,,,,,,,,,,,,,,022122,1,3,1,3,3,1,2,0,58,2022_Feb_21_1224,listening_fmri,3.2.4,59.891713266988965,
1,,,,,,,,,,0,0,0,0,0,1,1,1,0,0,0,0,0,0,0,0,,,,,,,,,,,,,,,,,1,0,1,0,,,,,,,,,,,,,,,,,,,,,,,,,,,,,,,,,,,,,,,,,,,,,,,,,,,,,,324.7105392860003,None,324.7105392860003,None,324.7105392860003,None,2,0.6366914870004621,324.7105392860003,None,325.3766079719999,None,2,0.42178184000022156,325.3766079719999,None,325.3766079719999,None,325.8972658490002,None,325.8972658490002,None,325.8972658490002,None,325.8972658490002,None,325.8972658490002,None,325.8972658490002,None,325.8972658490002,None,None,325.8972658490002,None,,,,,,,,,,,,,,,,,,,,,022122,1,3,1,3,3,1,2,0,58,2022_Feb_21_1224,listening_fmri,3.2.4,59.891713266988965,
1,,,,,,,,,,0,0,0,0,0,1,1,1,0,0,0,0,0,0,0,0,,,,,,,,,,,,,,,,,2,0,2,0,,,,,,,,,,,,,,,,,,,,,,,,,,,,,,,,,,,,,,,,,,,,,,,,,,,,,,332.9760489119999,None,332.9760489119999,None,332.9760489119999,None,1,1.3191984549994231,332.9760489119999,None,334.32698162500037,None,1,0.3764183570001478,334.32698162500037,None,334.32698162500037,None,334.8098769019998,None,334.8098769019998,None,334.8098769019998,None,334.8098769019998,None,334.8098769019998,None,334.8098769019998,None,334.8098769019998,None,None,334.8098769019998,None,,,,,,,,,,,,,,,,,,,,,022122,1,3,1,3,3,1,2,0,58,2022_Feb_21_1224,listening_fmri,3.2.4,59.891713266988965,
1,,,,,,,,,,0,0,0,0,0,1,1,1,0,0,0,0,0,0,0,0,,,,,,,,,,,,,,,,,3,0,3,0,,,,,,,,,,,,,,,,,,,,,,,,,,,,,,,,,,,,,,,,,,,,,,,,,,,,,,344.3095700570002,None,344.3095700570002,None,344.3095700570002,None,1,0.8377106739999363,344.3095700570002,None,345.17652845999964,None,1,0.3557896649999748,345.17652845999964,None,345.17652845999964,None,345.6256902160003,None,345.6256902160003,None,345.6256902160003,None,345.6256902160003,None,345.6256902160003,None,345.6256902160003,None,345.6256902160003,None,None,345.6256902160003,None,,,,,,,,,,,,,,,,,,,,,022122,1,3,1,3,3,1,2,0,58,2022_Feb_21_1224,listening_fmri,3.2.4,59.891713266988965,
1,,,,,,,,,,0,0,0,0,0,1,1,1,0,0,0,0,0,0,0,0,,,,,,,,,,,,,,,,,,,,,,,,,,,,,,,,,,,,,,,,,,,,,,,,,,,,,,,,,,,,,,,,,,,,,,,,,,,,,,,,,,,,,,,,,,,,,,,,,,,,,,,,,,,,,367.92686713500007,None,1,0.7035297030006404,367.92686713500007,None,367.92686713500007,None,368.6770151620003,None,368.6770151620003,None,368.6770151620003,None,1,0.6373767089999092,368.6770151620003,None,,,022122,1,3,1,3,3,1,2,0,58,2022_Feb_21_1224,listening_fmri,3.2.4,59.891713266988965,
1,parcelated_audio/23/23_1.ogg,,,,,,,,,0,0,0,0,0,1,1,1,0,0,0,0,,,,,,,,,0,0,0,0,0,0,0,0,,,,,,,,,,,,,,,,,,,,,,,,,,,,,,,,,,,,,,,,369.34303043599994,None,1,0.8012848170001234,369.34303043599994,None,319.4662165030004,322.4783341020002,322.49187228700066,332.88390423000055,,,,,,,,,,,,,,,,,,,,,,,,,,,,,,,,,,,,,,,,,,,,,,,,,,,,,,,,,,,,,,,,,,,,022122,1,3,1,3,3,1,2,0,58,2022_Feb_21_1224,listening_fmri,3.2.4,59.891713266988965,
1,parcelated_audio/23/23_2.ogg,,,,,,,,,0,0,0,0,0,1,1,1,0,0,0,0,,,,,,,,,0,0,0,0,0,1,1,1,,,,,,,,,,,,,,,,,,,,,,,,,,,,,,,,,,,,,,,,,,,,,,,,332.8842609600006,339.7611173670002,,,,,,,,,,,,,,,,,,,,,,,,,,,,,,,,,,,,,,,,,,,,,,,,,,,,,,,,,,,,,,,,,,,,022122,1,3,1,3,3,1,2,0,58,2022_Feb_21_1224,listening_fmri,3.2.4,59.891713266988965,
1,parcelated_audio/23/23_3.ogg,,,,,,,,,0,0,0,0,0,1,1,1,0,0,0,0,,,,,,,,,0,0,0,0,0,2,2,2,,,,,,,,,,,,,,,,,,,,,,,,,,,,,,,,,,,,,,,,,,,,,,,,339.76146857500044,345.5347336700006,,,,,,,,,,,,,,,,,,,,,,,,,,,,,,,,,,,,,,,,,,,,,,,,,,,,,,,,,,,,,,,,,,,,022122,1,3,1,3,3,1,2,0,58,2022_Feb_21_1224,listening_fmri,3.2.4,59.891713266988965,
1,parcelated_audio/23/23_4.ogg,,,,,,,,,0,0,0,0,0,1,1,1,0,0,0,0,,,,,,,,,0,0,0,0,0,3,3,3,,,,,,,,,,,,,,,,,,,,,,,,,,,,,,,,,,,,,,,,,,,,,,,,345.5350840460005,356.7929569120006,,,,,,,,,,,,,,,,,,,,,,,,,,,,,,,,,,,,,,,,,,,,,,,,,,,,,,,,,,,,,,,,,,,,022122,1,3,1,3,3,1,2,0,58,2022_Feb_21_1224,listening_fmri,3.2.4,59.891713266988965,
1,parcelated_audio/23/23_5.ogg,,,,,,,,,0,0,0,0,0,1,1,1,0,0,0,0,,,,,,,,,0,0,0,0,0,4,4,4,,,,,,,,,,,,,,,,,,,,,,,,,,,,,,,,,,,,,,,,,,,,,,,,356.79424477200064,363.01041018200067,,,,,,,,,,,,,,,,,,,,,,,,,,,,,,,,,,,,,,,,,,,,,,,,,,,,,,,,,,,,,,,,,,,,022122,1,3,1,3,3,1,2,0,58,2022_Feb_21_1224,listening_fmri,3.2.4,59.891713266988965,
1,parcelated_audio/23/23_6.ogg,,,,,,,,,0,0,0,0,0,1,1,1,0,0,0,0,,,,,,,,,0,0,0,0,0,5,5,5,,,,,,,,,,,,,,,,,,,,,,,,,,,,,,,,,,,,,,,,,,,,,,,,363.0109660190001,370.4128387990004,,,,,,,,,,,,,,,,,,,,,,,,,,,,,,,,,,,,,,,,,,,,,,,,,,,,,,,,,,,,,,,,,,,,022122,1,3,1,3,3,1,2,0,58,2022_Feb_21_1224,listening_fmri,3.2.4,59.891713266988965,
1,parcelated_audio/23/23_7.ogg,,,,,,,,,0,0,0,0,0,1,1,1,0,0,0,0,,,,,,,,,0,0,0,0,0,6,6,6,,,,,,,,,,,,,,,,,,,,,,,,,,,,,,,,,,,,,,,,,,,,,,,,370.4131953870001,377.1759114770002,,,,,,,,,,,,,,,,,,,,,,,,,,,,,,,,,,,,,,,,,,,,,,,,,,,,,,,,,,,,,,,,,,,,022122,1,3,1,3,3,1,2,0,58,2022_Feb_21_1224,listening_fmri,3.2.4,59.891713266988965,
1,parcelated_audio/23/23_8.ogg,,,,,,,,,0,0,0,0,0,1,1,1,0,0,0,0,,,,,,,,,0,0,0,0,0,7,7,7,,,,,,,,,,,,,,,,,,,,,,,,,,,,,,,,,,,,,,,,,,,,,,,,377.1762673510002,382.58084734600016,,,,,,,,,,,,,,,,,,,,,,,,,,,,,,,,,,,,,,,,,,,,,,,,,,,,,,,,,,,,,,,,,,,,022122,1,3,1,3,3,1,2,0,58,2022_Feb_21_1224,listening_fmri,3.2.4,59.891713266988965,
1,parcelated_audio/23/23_9.ogg,,,,,,,,,0,0,0,0,0,1,1,1,0,0,0,0,,,,,,,,,0,0,0,0,0,8,8,8,,,,,,,,,,,,,,,,,,,,,,,,,,,,,,,,,,,,,,,,,,,,,,,,382.5812019920004,386.9629414990004,,,,,,,,,,,,,,,,,,,,,,,,,,,,,,,,,,,,,,,,,,,,,,,,,,,,,,,,,,,,,,,,,,,,022122,1,3,1,3,3,1,2,0,58,2022_Feb_21_1224,listening_fmri,3.2.4,59.891713266988965,
1,parcelated_audio/23/23_10.ogg,,,,,,,,,0,0,0,0,0,1,1,1,0,0,0,0,,,,,,,,,0,0,0,0,0,9,9,9,,,,,,,,,,,,,,,,,,,,,,,,,,,,,,,,,,,,,,,,,,,,,,,,386.96352121200016,390.9212622160003,,,,,,,,,,,,,,,,,,,,,,,,,,,,,,,,,,,,,,,,,,,,,,,,,,,,,,,,,,,,,,,,,,,,022122,1,3,1,3,3,1,2,0,58,2022_Feb_21_1224,listening_fmri,3.2.4,59.891713266988965,
1,parcelated_audio/23/23_11.ogg,,,,,,,,,0,0,0,0,0,1,1,1,0,0,0,0,,,,,,,,,0,0,0,0,0,10,10,10,,,,,,,,,,,,,,,,,,,,,,,,,,,,,,,,,,,,,,,,,,,,,,,,390.92175047900037,399.0442764040008,,,,,,,,,,,,,,,,,,,,,,,,,,,,,,,,,,,,,,,,,,,,,,,,,,,,,,,,,,,,,,,,,,,,022122,1,3,1,3,3,1,2,0,58,2022_Feb_21_1224,listening_fmri,3.2.4,59.891713266988965,
1,parcelated_audio/23/23_12.ogg,,,,,,,,,0,0,0,0,0,1,1,1,0,0,0,0,,,,,,,,,0,0,0,0,0,11,11,11,,,,,,,,,,,,,,,,,,,,,,,,,,,,,,,,,,,,,,,,,,,,,,,,399.04462527600026,406.1880820340002,,,,,,,,,,,,,,,,,,,,,,,,,,,,,,,,,,,,,,,,,,,,,,,,,,,,,,,,,,,,,,,,,,,,022122,1,3,1,3,3,1,2,0,58,2022_Feb_21_1224,listening_fmri,3.2.4,59.891713266988965,
1,parcelated_audio/23/23_13.ogg,,,,,,,,,0,0,0,0,0,1,1,1,0,0,0,0,,,,,,,,,0,0,0,0,0,12,12,12,,,,,,,,,,,,,,,,,,,,,,,,,,,,,,,,,,,,,,,,,,,,,,,,406.188598963,412.9587648200004,,,,,,,,,,,,,,,,,,,,,,,,,,,,,,,,,,,,,,,,,,,,,,,,,,,,,,,,,,,,,,,,,,,,022122,1,3,1,3,3,1,2,0,58,2022_Feb_21_1224,listening_fmri,3.2.4,59.891713266988965,
1,parcelated_audio/23/23_14.ogg,,,,,,,,,0,0,0,0,0,1,1,1,0,0,0,0,,,,,,,,,0,0,0,0,0,13,13,13,,,,,,,,,,,,,,,,,,,,,,,,,,,,,,,,,,,,,,,,,,,,,,,,412.9592343970007,417.3277882830007,,,,,,,,,,,,,,,,,,,,,,,,,,,,,,,,,,,,,,,,,,,,,,,,,,,,,,,,,,,,,,,,,,,,022122,1,3,1,3,3,1,2,0,58,2022_Feb_21_1224,listening_fmri,3.2.4,59.891713266988965,
1,parcelated_audio/23/23_15.ogg,,,,,,,,,0,0,0,0,0,1,1,1,0,0,0,0,,,,,,,,,0,0,0,0,0,14,14,14,,,,,,,,,,,,,,,,,,,,,,,,,,,,,,,,,,,,,,,,,,,,,,,,417.3281239330008,421.7588496010003,,,,,,,,,,,,,,,,,,,,,,,,,,,,,,,,,,,,,,,,,,,,,,,,,,,,,,,,,,,,,,,,,,,,022122,1,3,1,3,3,1,2,0,58,2022_Feb_21_1224,listening_fmri,3.2.4,59.891713266988965,
1,parcelated_audio/23/23_16.ogg,,,,,,,,,0,0,0,0,0,1,1,1,0,0,0,0,,,,,,,,,0,0,0,0,0,15,15,15,,,,,,,,,,,,,,,,,,,,,,,,,,,,,,,,,,,,,,,,,,,,,,,,421.75938777600004,428.33231918100046,,,,,,,,,,,,,,,,,,,,,,,,,,,,,,,,,,,,,,,,,,,,,,,,,,,,,,,,,,,,,,,,,,,,022122,1,3,1,3,3,1,2,0,58,2022_Feb_21_1224,listening_fmri,3.2.4,59.891713266988965,
1,parcelated_audio/23/23_17.ogg,,,,,,,,,0,0,0,0,0,1,1,1,0,0,0,0,,,,,,,,,0,0,0,0,0,16,16,16,,,,,,,,,,,,,,,,,,,,,,,,,,,,,,,,,,,,,,,,,,,,,,,,428.33285784800046,435.0788437300007,,,,,,,,,,,,,,,,,,,,,,,,,,,,,,,,,,,,,,,,,,,,,,,,,,,,,,,,,,,,,,,,,,,,022122,1,3,1,3,3,1,2,0,58,2022_Feb_21_1224,listening_fmri,3.2.4,59.891713266988965,
1,parcelated_audio/23/23_18.ogg,,,,,,,,,0,0,0,0,0,1,1,1,0,0,0,0,,,,,,,,,0,0,0,0,0,17,17,17,,,,,,,,,,,,,,,,,,,,,,,,,,,,,,,,,,,,,,,,,,,,,,,,435.0792826930001,447.0548599930007,,,,,,,,,,,,,,,,,,,,,,,,,,,,,,,,,,,,,,,,,,,,,,,,,,,,,,,,,,,,,,,,,,,,022122,1,3,1,3,3,1,2,0,58,2022_Feb_21_1224,listening_fmri,3.2.4,59.891713266988965,
1,parcelated_audio/23/23_19.ogg,,,,,,,,,0,0,0,0,0,1,1,1,0,0,0,0,,,,,,,,,0,0,0,0,0,18,18,18,,,,,,,,,,,,,,,,,,,,,,,,,,,,,,,,,,,,,,,,,,,,,,,,447.05537403000017,452.8095045630007,,,,,,,,,,,,,,,,,,,,,,,,,,,,,,,,,,,,,,,,,,,,,,,,,,,,,,,,,,,,,,,,,,,,022122,1,3,1,3,3,1,2,0,58,2022_Feb_21_1224,listening_fmri,3.2.4,59.891713266988965,
1,parcelated_audio/23/23_20.ogg,,,,,,,,,0,0,0,0,0,1,1,1,0,0,0,0,,,,,,,,,0,0,0,0,0,19,19,19,,,,,,,,,,,,,,,,,,,,,,,,,,,,,,,,,,,,,,,,,,,,,,,,452.80985359200076,455.7774381830004,,,,,,,,,,,,,,,,,,,,,,,,,,,,,,,,,,,,,,,,,,,,,,,,,,,,,,,,,,,,,,,,,,,,022122,1,3,1,3,3,1,2,0,58,2022_Feb_21_1224,listening_fmri,3.2.4,59.891713266988965,
1,parcelated_audio/23/23_21.ogg,,,,,,,,,0,0,0,0,0,1,1,1,0,0,0,0,,,,,,,,,0,0,0,0,0,20,20,20,,,,,,,,,,,,,,,,,,,,,,,,,,,,,,,,,,,,,,,,,,,,,,,,455.7777919630007,463.4570169870003,,,,,,,,,,,,,,,,,,,,,,,,,,,,,,,,,,,,,,,,,,,,,,,,,,,,,,,,,,,,,,,,,,,,022122,1,3,1,3,3,1,2,0,58,2022_Feb_21_1224,listening_fmri,3.2.4,59.891713266988965,
1,parcelated_audio/23/23_22.ogg,,,,,,,,,0,0,0,0,0,1,1,1,0,0,0,0,,,,,,,,,0,0,0,0,0,21,21,21,,,,,,,,,,,,,,,,,,,,,,,,,,,,,,,,,,,,,,,,,,,,,,,,463.45748025800003,466.11297704200024,,,,,,,,,,,,,,,,,,,,,,,,,,,,,,,,,,,,,,,,,,,,,,,,,,,,,,,,,,,,,,,,,,,,022122,1,3,1,3,3,1,2,0,58,2022_Feb_21_1224,listening_fmri,3.2.4,59.891713266988965,
1,parcelated_audio/23/23_23.ogg,,,,,,,,,0,0,0,0,0,1,1,1,0,0,0,0,,,,,,,,,0,0,0,0,0,22,22,22,,,,,,,,,,,,,,,,,,,,,,,,,,,,,,,,,,,,,,,,,,,,,,,,466.11333152600037,470.2706583670006,,,,,,,,,,,,,,,,,,,,,,,,,,,,,,,,,,,,,,,,,,,,,,,,,,,,,,,,,,,,,,,,,,,,022122,1,3,1,3,3,1,2,0,58,2022_Feb_21_1224,listening_fmri,3.2.4,59.891713266988965,
1,parcelated_audio/23/23_24.ogg,,,,,,,,,0,0,0,0,0,1,1,1,0,0,0,0,,,,,,,,,0,0,0,0,0,23,23,23,,,,,,,,,,,,,,,,,,,,,,,,,,,,,,,,,,,,,,,,,,,,,,,,470.271113494,473.80793689800066,,,,,,,,,,,,,,,,,,,,,,,,,,,,,,,,,,,,,,,,,,,,,,,,,,,,,,,,,,,,,,,,,,,,022122,1,3,1,3,3,1,2,0,58,2022_Feb_21_1224,listening_fmri,3.2.4,59.891713266988965,
1,parcelated_audio/23/23_25.ogg,,,,,,,,,0,0,0,0,0,1,1,1,0,0,0,0,,,,,,,,,0,0,0,0,0,24,24,24,,,,,,,,,,,,,,,,,,,,,,,,,,,,,,,,,,,,,,,,,,,,,,,,473.8083978910008,477.95282663300077,,,,,,,,,,,,,,,,,,,,,,,,,,,,,,,,,,,,,,,,,,,,,,,,,,,,,,,,,,,,,,,,,,,,022122,1,3,1,3,3,1,2,0,58,2022_Feb_21_1224,listening_fmri,3.2.4,59.891713266988965,
1,parcelated_audio/23/23_26.ogg,,,,,,,,,0,0,0,0,0,1,1,1,0,0,0,0,,,,,,,,,0,0,0,0,0,25,25,25,,,,,,,,,,,,,,,,,,,,,,,,,,,,,,,,,,,,,,,,,,,,,,,,477.9532806240004,484.18226672000037,,,,,,,,,,,,,,,,,,,,,,,,,,,,,,,,,,,,,,,,,,,,,,,,,,,,,,,,,,,,,,,,,,,,022122,1,3,1,3,3,1,2,0,58,2022_Feb_21_1224,listening_fmri,3.2.4,59.891713266988965,
1,parcelated_audio/23/23_27.ogg,,,,,,,,,0,0,0,0,0,1,1,1,0,0,0,0,,,,,,,,,0,0,0,0,0,26,26,26,,,,,,,,,,,,,,,,,,,,,,,,,,,,,,,,,,,,,,,,,,,,,,,,484.1826197980008,489.45752796500074,,,,,,,,,,,,,,,,,,,,,,,,,,,,,,,,,,,,,,,,,,,,,,,,,,,,,,,,,,,,,,,,,,,,022122,1,3,1,3,3,1,2,0,58,2022_Feb_21_1224,listening_fmri,3.2.4,59.891713266988965,
1,parcelated_audio/23/23_28.ogg,,,,,,,,,0,0,0,0,0,1,1,1,0,0,0,0,,,,,,,,,0,0,0,0,0,27,27,27,,,,,,,,,,,,,,,,,,,,,,,,,,,,,,,,,,,,,,,,,,,,,,,,489.4578810910007,497.41289658500045,,,,,,,,,,,,,,,,,,,,,,,,,,,,,,,,,,,,,,,,,,,,,,,,,,,,,,,,,,,,,,,,,,,,022122,1,3,1,3,3,1,2,0,58,2022_Feb_21_1224,listening_fmri,3.2.4,59.891713266988965,
1,parcelated_audio/23/23_29.ogg,,,,,,,,,0,0,0,0,0,1,1,1,0,0,0,0,,,,,,,,,0,0,0,0,0,28,28,28,,,,,,,,,,,,,,,,,,,,,,,,,,,,,,,,,,,,,,,,,,,,,,,,497.41384960400046,501.16927411600045,,,,,,,,,,,,,,,,,,,,,,,,,,,,,,,,,,,,,,,,,,,,,,,,,,,,,,,,,,,,,,,,,,,,022122,1,3,1,3,3,1,2,0,58,2022_Feb_21_1224,listening_fmri,3.2.4,59.891713266988965,
1,parcelated_audio/23/23_30.ogg,,,,,,,,,0,0,0,0,0,1,1,1,0,0,0,0,,,,,,,,,0,0,0,0,0,29,29,29,,,,,,,,,,,,,,,,,,,,,,,,,,,,,,,,,,,,,,,,,,,,,,,,501.16962561700075,507.07994492300077,,,,,,,,,,,,,,,,,,,,,,,,,,,,,,,,,,,,,,,,,,,,,,,,,,,,,,,,,,,,,,,,,,,,022122,1,3,1,3,3,1,2,0,58,2022_Feb_21_1224,listening_fmri,3.2.4,59.891713266988965,
1,parcelated_audio/23/23_31.ogg,,,,,,,,,0,0,0,0,0,1,1,1,0,0,0,0,,,,,,,,,0,0,0,0,0,30,30,30,,,,,,,,,,,,,,,,,,,,,,,,,,,,,,,,,,,,,,,,,,,,,,,,507.08042605100036,509.09188074400026,,,,,,,,,,,,,,,,,,,,,,,,,,,,,,,,,,,,,,,,,,,,,,,,,,,,,,,,,,,,,,,,,,,,022122,1,3,1,3,3,1,2,0,58,2022_Feb_21_1224,listening_fmri,3.2.4,59.891713266988965,
1,parcelated_audio/23/23_32.ogg,,,,,,,,,0,0,0,0,0,1,1,1,0,0,0,0,,,,,,,,,0,0,0,0,0,31,31,31,,,,,,,,,,,,,,,,,,,,,,,,,,,,,,,,,,,,,,,,,,,,,,,,509.09230367800046,512.7904083770009,,,,,,,,,,,,,,,,,,,,,,,,,,,,,,,,,,,,,,,,,,,,,,,,,,,,,,,,,,,,,,,,,,,,022122,1,3,1,3,3,1,2,0,58,2022_Feb_21_1224,listening_fmri,3.2.4,59.891713266988965,
1,parcelated_audio/23/23_33.ogg,,,,,,,,,0,0,0,0,0,1,1,1,0,0,0,0,,,,,,,,,0,0,0,0,0,32,32,32,,,,,,,,,,,,,,,,,,,,,,,,,,,,,,,,,,,,,,,,,,,,,,,,512.7908393670004,518.836925777,,,,,,,,,,,,,,,,,,,,,,,,,,,,,,,,,,,,,,,,,,,,,,,,,,,,,,,,,,,,,,,,,,,,022122,1,3,1,3,3,1,2,0,58,2022_Feb_21_1224,listening_fmri,3.2.4,59.891713266988965,
1,parcelated_audio/23/23_34.ogg,,,,,,,,,0,0,0,0,0,1,1,1,0,0,0,0,,,,,,,,,0,0,0,0,0,33,33,33,,,,,,,,,,,,,,,,,,,,,,,,,,,,,,,,,,,,,,,,,,,,,,,,518.8372741340008,522.3854283140008,,,,,,,,,,,,,,,,,,,,,,,,,,,,,,,,,,,,,,,,,,,,,,,,,,,,,,,,,,,,,,,,,,,,022122,1,3,1,3,3,1,2,0,58,2022_Feb_21_1224,listening_fmri,3.2.4,59.891713266988965,
1,parcelated_audio/23/23_35.ogg,,,,,,,,,0,0,0,0,0,1,1,1,0,0,0,0,,,,,,,,,0,0,0,0,0,34,34,34,,,,,,,,,,,,,,,,,,,,,,,,,,,,,,,,,,,,,,,,,,,,,,,,522.3858013730005,526.6599851950004,,,,,,,,,,,,,,,,,,,,,,,,,,,,,,,,,,,,,,,,,,,,,,,,,,,,,,,,,,,,,,,,,,,,022122,1,3,1,3,3,1,2,0,58,2022_Feb_21_1224,listening_fmri,3.2.4,59.891713266988965,
1,parcelated_audio/23/23_36.ogg,,,,,,,,,0,0,0,0,0,1,1,1,0,0,0,0,,,,,,,,,0,0,0,0,0,35,35,35,,,,,,,,,,,,,,,,,,,,,,,,,,,,,,,,,,,,,,,,,,,,,,,,526.6603667170002,531.2767887640002,,,,,,,,,,,,,,,,,,,,,,,,,,,,,,,,,,,,,,,,,,,,,,,,,,,,,,,,,,,,,,,,,,,,022122,1,3,1,3,3,1,2,0,58,2022_Feb_21_1224,listening_fmri,3.2.4,59.891713266988965,
1,parcelated_audio/23/23_37.ogg,,,,,,,,,0,0,0,0,0,1,1,1,0,0,0,0,,,,,,,,,0,0,0,0,0,36,36,36,,,,,,,,,,,,,,,,,,,,,,,,,,,,,,,,,,,,,,,,,,,,,,,,531.2770662340008,536.062762728,,,,,,,,,,,,,,,,,,,,,,,,,,,,,,,,,,,,,,,,,,,,,,,,,,,,,,,,,,,,,,,,,,,,022122,1,3,1,3,3,1,2,0,58,2022_Feb_21_1224,listening_fmri,3.2.4,59.891713266988965,
1,parcelated_audio/23/23_38.ogg,,,,,,,,,0,0,0,0,0,1,1,1,0,0,0,0,,,,,,,,,0,0,0,0,0,37,37,37,,,,,,,,,,,,,,,,,,,,,,,,,,,,,,,,,,,,,,,,,,,,,,,,536.0632886200001,543.5455699950007,,,,,,,,,,,,,,,,,,,,,,,,,,,,,,,,,,,,,,,,,,,,,,,,,,,,,,,,,,,,,,,,,,,,022122,1,3,1,3,3,1,2,0,58,2022_Feb_21_1224,listening_fmri,3.2.4,59.891713266988965,
1,parcelated_audio/23/23_39.ogg,,,,,,,,,0,0,0,0,0,1,1,1,0,0,0,0,,,,,,,,,0,0,0,0,0,38,38,38,,,,,,,,,,,,,,,,,,,,,,,,,,,,,,,,,,,,,,,,,,,,,,,,543.5459232530002,549.8066326160006,,,,,,,,,,,,,,,,,,,,,,,,,,,,,,,,,,,,,,,,,,,,,,,,,,,,,,,,,,,,,,,,,,,,022122,1,3,1,3,3,1,2,0,58,2022_Feb_21_1224,listening_fmri,3.2.4,59.891713266988965,
1,,,,,,,,,,0,0,0,0,0,1,1,1,0,0,0,0,,,,,,,,,0,0,0,0,,,,,,,,,,,,,,,,,,,,,,,,,,,,,,,,,,,,,,,,,,,,,,,,,,,,,,,,,,,,,,,,,,,,,,,,,,,,,,,,,,,,,,,,,,,,,,,,,,,,,,,,,,,,,,,,,,,,,,,,,022122,1,3,1,3,3,1,2,0,58,2022_Feb_21_1224,listening_fmri,3.2.4,59.891713266988965,
1,,,,,,,,,,0,0,0,0,0,1,1,1,0,0,0,0,,,,,,,,,,,,,,,,,,,,,,,,,,,,,,,,,,,,,,,,,,549.8071035760004,555.8075995010004,600.5265174630003,None,,,,,,,,,,,,,,,,,,,,,606.5269917659998,None,606.5269917659998,None,,,,,,,,,,,,,,,,,,,,,,,,,,,,,,,,,,,,,,,,,,,,,,,,,,,,,,,,,,,,,,,,022122,1,3,1,3,3,1,2,0,58,2022_Feb_21_1224,listening_fmri,3.2.4,59.891713266988965,
1,,,,,,,,,,0,0,0,0,0,1,1,1,,,,,,,,,,,,,,,,,,,,,,,,,,,,,,,,,,,,,,,,,,,,,,,,,,,,,,,,,,,,,,,,,,,,,,,,,,,,,,,,,,,,,,,,,,,,,,,,,,,,,,,,,,,,,,,,,,,,,,,,,,,,,,,,,,,,,,,,,022122,1,3,1,3,3,1,2,0,58,2022_Feb_21_1224,listening_fmri,3.2.4,59.891713266988965,
2,,,,,,,,,,0,0,0,0,0,2,2,2,,,,,,,,,,,,,,,,,,,,,,,,,,,,,,,,,,,,,,,,,,,,,,,,,,,,,,,,,,,,,,,,,,,,,,,,,,,,,,,,,,,,,,,,,,,,,,,,,,,,,,,,,,,,,,,,,,,,,,,,,,,,,,,,,,,,,,,,,022122,1,3,1,3,3,1,2,0,58,2022_Feb_21_1224,listening_fmri,3.2.4,59.891713266988965,
3,,,,,,,,,,0,0,0,0,0,3,3,3,0,0,0,0,0,0,0,0,,,,,,,,,,,,,,,,,0,0,0,0,,,,,,,,,,,,,,,,,,,,,,607.5431439220001,None,607.5431439220001,None,2,75.38610995100044,607.5431439220001,None,607.5431439220001,None,,,,,,,,,,,,,,,682.9598137160001,None,2,0.7465714280006068,682.9598137160001,None,682.9598137160001,None,683.7435199040001,None,683.7435199040001,None,683.7435199040001,None,2,0.5878962050001064,683.7435199040001,None,684.3598352999998,None,2,0.5275691650003864,684.3598352999998,None,684.3598352999998,None,684.9935462329995,None,684.9935462329995,None,684.9935462329995,None,684.9935462329995,None,684.9935462329995,None,684.9935462329995,None,684.9935462329995,None,None,684.9935462329995,None,,,,,,,,,,,,,,,,,,,,,022122,1,3,1,3,3,1,2,0,58,2022_Feb_21_1224,listening_fmri,3.2.4,59.891713266988965,
3,,,,,,,,,,0,0,0,0,0,3,3,3,0,0,0,0,0,0,0,0,,,,,,,,,,,,,,,,,1,0,1,0,,,,,,,,,,,,,,,,,,,,,,,,,,,,,,,,,,,,,,,,,,,,,,,,,,,,,,700.8940962079996,None,700.8940962079996,None,700.8940962079996,None,1,1.0933106809998208,700.8940962079996,None,702.0101341290001,None,1,0.35330105000048206,702.0101341290001,None,702.0101341290001,None,702.477489074,None,702.477489074,None,702.477489074,None,702.477489074,None,702.477489074,None,702.477489074,None,702.477489074,None,None,702.477489074,None,,,,,,,,,,,,,,,,,,,,,022122,1,3,1,3,3,1,2,0,58,2022_Feb_21_1224,listening_fmri,3.2.4,59.891713266988965,
3,,,,,,,,,,0,0,0,0,0,3,3,3,0,0,0,0,0,0,0,0,,,,,,,,,,,,,,,,,2,0,2,0,,,,,,,,,,,,,,,,,,,,,,,,,,,,,,,,,,,,,,,,,,,,,,,,,,,,,,705.1442536499999,None,705.1442536499999,None,705.1442536499999,None,1,1.0320945359999314,705.1442536499999,None,706.1934684609996,None,1,0.27291741400040337,706.1934684609996,None,706.1934684609996,None,706.5934386669996,None,706.5934386669996,None,706.5934386669996,None,706.5934386669996,None,706.5934386669996,None,706.5934386669996,None,706.5934386669996,None,None,706.5934386669996,None,,,,,,,,,,,,,,,,,,,,,022122,1,3,1,3,3,1,2,0,58,2022_Feb_21_1224,listening_fmri,3.2.4,59.891713266988965,
3,,,,,,,,,,0,0,0,0,0,3,3,3,0,0,0,0,0,0,0,0,,,,,,,,,,,,,,,,,3,0,3,0,,,,,,,,,,,,,,,,,,,,,,,,,,,,,,,,,,,,,,,,,,,,,,,,,,,,,,712.3601826860004,None,712.3601826860004,None,712.3601826860004,None,1,0.9112123209997662,712.3601826860004,None,713.2927782690003,None,1,0.27462574200035306,713.2927782690003,None,713.2927782690003,None,713.6768463589997,None,713.6768463589997,None,713.6768463589997,None,713.6768463589997,None,713.6768463589997,None,713.6768463589997,None,713.6768463589997,None,None,713.6768463589997,None,,,,,,,,,,,,,,,,,,,,,022122,1,3,1,3,3,1,2,0,58,2022_Feb_21_1224,listening_fmri,3.2.4,59.891713266988965,
3,,,,,,,,,,0,0,0,0,0,3,3,3,0,0,0,0,0,0,0,0,,,,,,,,,,,,,,,,,,,,,,,,,,,,,,,,,,,,,,,,,,,,,,,,,,,,,,,,,,,,,,,,,,,,,,,,,,,,,,,,,,,,,,,,,,,,,,,,,,,,,,,,,,,,,736.9928500240003,None,1,0.4065601029997197,736.9928500240003,None,736.9928500240003,None,737.4429993889999,None,737.4429993889999,None,737.4429993889999,None,1,0.7423958859999402,737.4429993889999,None,,,022122,1,3,1,3,3,1,2,0,58,2022_Feb_21_1224,listening_fmri,3.2.4,59.891713266988965,
3,parcelated_audio/43/43_1.ogg,,,,,,,,,0,0,0,0,0,3,3,3,0,0,0,0,,,,,,,,,0,0,0,0,0,0,0,0,,,,,,,,,,,,,,,,,,,,,,,,,,,,,,,,,,,,,,,,738.2100372570003,None,1,1.1342299369998727,738.2100372570003,None,688.6911208440006,691.7075354810004,691.7159647240005,699.2948648790007,,,,,,,,,,,,,,,,,,,,,,,,,,,,,,,,,,,,,,,,,,,,,,,,,,,,,,,,,,,,,,,,,,,,022122,1,3,1,3,3,1,2,0,58,2022_Feb_21_1224,listening_fmri,3.2.4,59.891713266988965,
3,parcelated_audio/43/43_2.ogg,,,,,,,,,0,0,0,0,0,3,3,3,0,0,0,0,,,,,,,,,0,0,0,0,0,1,1,1,,,,,,,,,,,,,,,,,,,,,,,,,,,,,,,,,,,,,,,,,,,,,,,,699.2958758960003,703.086781125,,,,,,,,,,,,,,,,,,,,,,,,,,,,,,,,,,,,,,,,,,,,,,,,,,,,,,,,,,,,,,,,,,,,022122,1,3,1,3,3,1,2,0,58,2022_Feb_21_1224,listening_fmri,3.2.4,59.891713266988965,
3,parcelated_audio/43/43_3.ogg,,,,,,,,,0,0,0,0,0,3,3,3,0,0,0,0,,,,,,,,,0,0,0,0,0,2,2,2,,,,,,,,,,,,,,,,,,,,,,,,,,,,,,,,,,,,,,,,,,,,,,,,703.0871212830007,711.96404239,,,,,,,,,,,,,,,,,,,,,,,,,,,,,,,,,,,,,,,,,,,,,,,,,,,,,,,,,,,,,,,,,,,,022122,1,3,1,3,3,1,2,0,58,2022_Feb_21_1224,listening_fmri,3.2.4,59.891713266988965,
3,parcelated_audio/43/43_4.ogg,,,,,,,,,0,0,0,0,0,3,3,3,0,0,0,0,,,,,,,,,0,0,0,0,0,3,3,3,,,,,,,,,,,,,,,,,,,,,,,,,,,,,,,,,,,,,,,,,,,,,,,,711.9645291470006,720.4657427930006,,,,,,,,,,,,,,,,,,,,,,,,,,,,,,,,,,,,,,,,,,,,,,,,,,,,,,,,,,,,,,,,,,,,022122,1,3,1,3,3,1,2,0,58,2022_Feb_21_1224,listening_fmri,3.2.4,59.891713266988965,
3,parcelated_audio/43/43_5.ogg,,,,,,,,,0,0,0,0,0,3,3,3,0,0,0,0,,,,,,,,,0,0,0,0,0,4,4,4,,,,,,,,,,,,,,,,,,,,,,,,,,,,,,,,,,,,,,,,,,,,,,,,720.4660976200003,729.7187325000004,,,,,,,,,,,,,,,,,,,,,,,,,,,,,,,,,,,,,,,,,,,,,,,,,,,,,,,,,,,,,,,,,,,,022122,1,3,1,3,3,1,2,0,58,2022_Feb_21_1224,listening_fmri,3.2.4,59.891713266988965,
3,parcelated_audio/43/43_6.ogg,,,,,,,,,0,0,0,0,0,3,3,3,0,0,0,0,,,,,,,,,0,0,0,0,0,5,5,5,,,,,,,,,,,,,,,,,,,,,,,,,,,,,,,,,,,,,,,,,,,,,,,,729.7192178680007,738.8410616210003,,,,,,,,,,,,,,,,,,,,,,,,,,,,,,,,,,,,,,,,,,,,,,,,,,,,,,,,,,,,,,,,,,,,022122,1,3,1,3,3,1,2,0,58,2022_Feb_21_1224,listening_fmri,3.2.4,59.891713266988965,
3,parcelated_audio/43/43_7.ogg,,,,,,,,,0,0,0,0,0,3,3,3,0,0,0,0,,,,,,,,,0,0,0,0,0,6,6,6,,,,,,,,,,,,,,,,,,,,,,,,,,,,,,,,,,,,,,,,,,,,,,,,738.8414154560005,743.5988064540006,,,,,,,,,,,,,,,,,,,,,,,,,,,,,,,,,,,,,,,,,,,,,,,,,,,,,,,,,,,,,,,,,,,,022122,1,3,1,3,3,1,2,0,58,2022_Feb_21_1224,listening_fmri,3.2.4,59.891713266988965,
3,parcelated_audio/43/43_8.ogg,,,,,,,,,0,0,0,0,0,3,3,3,0,0,0,0,,,,,,,,,0,0,0,0,0,7,7,7,,,,,,,,,,,,,,,,,,,,,,,,,,,,,,,,,,,,,,,,,,,,,,,,743.5993272170008,750.1506237930007,,,,,,,,,,,,,,,,,,,,,,,,,,,,,,,,,,,,,,,,,,,,,,,,,,,,,,,,,,,,,,,,,,,,022122,1,3,1,3,3,1,2,0,58,2022_Feb_21_1224,listening_fmri,3.2.4,59.891713266988965,
3,parcelated_audio/43/43_9.ogg,,,,,,,,,0,0,0,0,0,3,3,3,0,0,0,0,,,,,,,,,0,0,0,0,0,8,8,8,,,,,,,,,,,,,,,,,,,,,,,,,,,,,,,,,,,,,,,,,,,,,,,,750.1509889950003,754.6547576870007,,,,,,,,,,,,,,,,,,,,,,,,,,,,,,,,,,,,,,,,,,,,,,,,,,,,,,,,,,,,,,,,,,,,022122,1,3,1,3,3,1,2,0,58,2022_Feb_21_1224,listening_fmri,3.2.4,59.891713266988965,
3,parcelated_audio/43/43_10.ogg,,,,,,,,,0,0,0,0,0,3,3,3,0,0,0,0,,,,,,,,,0,0,0,0,0,9,9,9,,,,,,,,,,,,,,,,,,,,,,,,,,,,,,,,,,,,,,,,,,,,,,,,754.6551838330006,759.5378027820007,,,,,,,,,,,,,,,,,,,,,,,,,,,,,,,,,,,,,,,,,,,,,,,,,,,,,,,,,,,,,,,,,,,,022122,1,3,1,3,3,1,2,0,58,2022_Feb_21_1224,listening_fmri,3.2.4,59.891713266988965,
3,parcelated_audio/43/43_11.ogg,,,,,,,,,0,0,0,0,0,3,3,3,0,0,0,0,,,,,,,,,0,0,0,0,0,10,10,10,,,,,,,,,,,,,,,,,,,,,,,,,,,,,,,,,,,,,,,,,,,,,,,,759.5381464230004,770.5720180870003,,,,,,,,,,,,,,,,,,,,,,,,,,,,,,,,,,,,,,,,,,,,,,,,,,,,,,,,,,,,,,,,,,,,022122,1,3,1,3,3,1,2,0,58,2022_Feb_21_1224,listening_fmri,3.2.4,59.891713266988965,
3,parcelated_audio/43/43_12.ogg,,,,,,,,,0,0,0,0,0,3,3,3,0,0,0,0,,,,,,,,,0,0,0,0,0,11,11,11,,,,,,,,,,,,,,,,,,,,,,,,,,,,,,,,,,,,,,,,,,,,,,,,770.5723712360004,776.6609206300009,,,,,,,,,,,,,,,,,,,,,,,,,,,,,,,,,,,,,,,,,,,,,,,,,,,,,,,,,,,,,,,,,,,,022122,1,3,1,3,3,1,2,0,58,2022_Feb_21_1224,listening_fmri,3.2.4,59.891713266988965,
3,parcelated_audio/43/43_13.ogg,,,,,,,,,0,0,0,0,0,3,3,3,0,0,0,0,,,,,,,,,0,0,0,0,0,12,12,12,,,,,,,,,,,,,,,,,,,,,,,,,,,,,,,,,,,,,,,,,,,,,,,,776.6613728480006,784.902592718,,,,,,,,,,,,,,,,,,,,,,,,,,,,,,,,,,,,,,,,,,,,,,,,,,,,,,,,,,,,,,,,,,,,022122,1,3,1,3,3,1,2,0,58,2022_Feb_21_1224,listening_fmri,3.2.4,59.891713266988965,
3,parcelated_audio/43/43_14.ogg,,,,,,,,,0,0,0,0,0,3,3,3,0,0,0,0,,,,,,,,,0,0,0,0,0,13,13,13,,,,,,,,,,,,,,,,,,,,,,,,,,,,,,,,,,,,,,,,,,,,,,,,784.9030291440004,793.4357101490004,,,,,,,,,,,,,,,,,,,,,,,,,,,,,,,,,,,,,,,,,,,,,,,,,,,,,,,,,,,,,,,,,,,,022122,1,3,1,3,3,1,2,0,58,2022_Feb_21_1224,listening_fmri,3.2.4,59.891713266988965,
3,parcelated_audio/43/43_15.ogg,,,,,,,,,0,0,0,0,0,3,3,3,0,0,0,0,,,,,,,,,0,0,0,0,0,14,14,14,,,,,,,,,,,,,,,,,,,,,,,,,,,,,,,,,,,,,,,,,,,,,,,,793.4361341690001,797.7769187910008,,,,,,,,,,,,,,,,,,,,,,,,,,,,,,,,,,,,,,,,,,,,,,,,,,,,,,,,,,,,,,,,,,,,022122,1,3,1,3,3,1,2,0,58,2022_Feb_21_1224,listening_fmri,3.2.4,59.891713266988965,
3,parcelated_audio/43/43_16.ogg,,,,,,,,,0,0,0,0,0,3,3,3,0,0,0,0,,,,,,,,,0,0,0,0,0,15,15,15,,,,,,,,,,,,,,,,,,,,,,,,,,,,,,,,,,,,,,,,,,,,,,,,797.7772657830001,802.2910298980005,,,,,,,,,,,,,,,,,,,,,,,,,,,,,,,,,,,,,,,,,,,,,,,,,,,,,,,,,,,,,,,,,,,,022122,1,3,1,3,3,1,2,0,58,2022_Feb_21_1224,listening_fmri,3.2.4,59.891713266988965,
3,parcelated_audio/43/43_17.ogg,,,,,,,,,0,0,0,0,0,3,3,3,0,0,0,0,,,,,,,,,0,0,0,0,0,16,16,16,,,,,,,,,,,,,,,,,,,,,,,,,,,,,,,,,,,,,,,,,,,,,,,,802.2913967240002,806.0412774680008,,,,,,,,,,,,,,,,,,,,,,,,,,,,,,,,,,,,,,,,,,,,,,,,,,,,,,,,,,,,,,,,,,,,022122,1,3,1,3,3,1,2,0,58,2022_Feb_21_1224,listening_fmri,3.2.4,59.891713266988965,
3,parcelated_audio/43/43_18.ogg,,,,,,,,,0,0,0,0,0,3,3,3,0,0,0,0,,,,,,,,,0,0,0,0,0,17,17,17,,,,,,,,,,,,,,,,,,,,,,,,,,,,,,,,,,,,,,,,,,,,,,,,806.0416321120001,808.2428636680006,,,,,,,,,,,,,,,,,,,,,,,,,,,,,,,,,,,,,,,,,,,,,,,,,,,,,,,,,,,,,,,,,,,,022122,1,3,1,3,3,1,2,0,58,2022_Feb_21_1224,listening_fmri,3.2.4,59.891713266988965,
3,parcelated_audio/43/43_19.ogg,,,,,,,,,0,0,0,0,0,3,3,3,0,0,0,0,,,,,,,,,0,0,0,0,0,18,18,18,,,,,,,,,,,,,,,,,,,,,,,,,,,,,,,,,,,,,,,,,,,,,,,,808.2432743720001,811.8879475720005,,,,,,,,,,,,,,,,,,,,,,,,,,,,,,,,,,,,,,,,,,,,,,,,,,,,,,,,,,,,,,,,,,,,022122,1,3,1,3,3,1,2,0,58,2022_Feb_21_1224,listening_fmri,3.2.4,59.891713266988965,
3,parcelated_audio/43/43_20.ogg,,,,,,,,,0,0,0,0,0,3,3,3,0,0,0,0,,,,,,,,,0,0,0,0,0,19,19,19,,,,,,,,,,,,,,,,,,,,,,,,,,,,,,,,,,,,,,,,,,,,,,,,811.8883077290002,819.073786074,,,,,,,,,,,,,,,,,,,,,,,,,,,,,,,,,,,,,,,,,,,,,,,,,,,,,,,,,,,,,,,,,,,,022122,1,3,1,3,3,1,2,0,58,2022_Feb_21_1224,listening_fmri,3.2.4,59.891713266988965,
3,parcelated_audio/43/43_21.ogg,,,,,,,,,0,0,0,0,0,3,3,3,0,0,0,0,,,,,,,,,0,0,0,0,0,20,20,20,,,,,,,,,,,,,,,,,,,,,,,,,,,,,,,,,,,,,,,,,,,,,,,,819.0742271570007,821.5456681570004,,,,,,,,,,,,,,,,,,,,,,,,,,,,,,,,,,,,,,,,,,,,,,,,,,,,,,,,,,,,,,,,,,,,022122,1,3,1,3,3,1,2,0,58,2022_Feb_21_1224,listening_fmri,3.2.4,59.891713266988965,
3,parcelated_audio/43/43_22.ogg,,,,,,,,,0,0,0,0,0,3,3,3,0,0,0,0,,,,,,,,,0,0,0,0,0,21,21,21,,,,,,,,,,,,,,,,,,,,,,,,,,,,,,,,,,,,,,,,,,,,,,,,821.5461194680001,824.936231226,,,,,,,,,,,,,,,,,,,,,,,,,,,,,,,,,,,,,,,,,,,,,,,,,,,,,,,,,,,,,,,,,,,,022122,1,3,1,3,3,1,2,0,58,2022_Feb_21_1224,listening_fmri,3.2.4,59.891713266988965,
3,parcelated_audio/43/43_23.ogg,,,,,,,,,0,0,0,0,0,3,3,3,0,0,0,0,,,,,,,,,0,0,0,0,0,22,22,22,,,,,,,,,,,,,,,,,,,,,,,,,,,,,,,,,,,,,,,,,,,,,,,,824.9367094020008,830.9698045370005,,,,,,,,,,,,,,,,,,,,,,,,,,,,,,,,,,,,,,,,,,,,,,,,,,,,,,,,,,,,,,,,,,,,022122,1,3,1,3,3,1,2,0,58,2022_Feb_21_1224,listening_fmri,3.2.4,59.891713266988965,
3,parcelated_audio/43/43_24.ogg,,,,,,,,,0,0,0,0,0,3,3,3,0,0,0,0,,,,,,,,,0,0,0,0,0,23,23,23,,,,,,,,,,,,,,,,,,,,,,,,,,,,,,,,,,,,,,,,,,,,,,,,830.9701422510007,837.3094872840002,,,,,,,,,,,,,,,,,,,,,,,,,,,,,,,,,,,,,,,,,,,,,,,,,,,,,,,,,,,,,,,,,,,,022122,1,3,1,3,3,1,2,0,58,2022_Feb_21_1224,listening_fmri,3.2.4,59.891713266988965,
3,parcelated_audio/43/43_25.ogg,,,,,,,,,0,0,0,0,0,3,3,3,0,0,0,0,,,,,,,,,0,0,0,0,0,24,24,24,,,,,,,,,,,,,,,,,,,,,,,,,,,,,,,,,,,,,,,,,,,,,,,,837.3100154370004,842.3535533440008,,,,,,,,,,,,,,,,,,,,,,,,,,,,,,,,,,,,,,,,,,,,,,,,,,,,,,,,,,,,,,,,,,,,022122,1,3,1,3,3,1,2,0,58,2022_Feb_21_1224,listening_fmri,3.2.4,59.891713266988965,
3,parcelated_audio/43/43_26.ogg,,,,,,,,,0,0,0,0,0,3,3,3,0,0,0,0,,,,,,,,,0,0,0,0,0,25,25,25,,,,,,,,,,,,,,,,,,,,,,,,,,,,,,,,,,,,,,,,,,,,,,,,842.3539057300004,850.9348494350006,,,,,,,,,,,,,,,,,,,,,,,,,,,,,,,,,,,,,,,,,,,,,,,,,,,,,,,,,,,,,,,,,,,,022122,1,3,1,3,3,1,2,0,58,2022_Feb_21_1224,listening_fmri,3.2.4,59.891713266988965,
3,parcelated_audio/43/43_27.ogg,,,,,,,,,0,0,0,0,0,3,3,3,0,0,0,0,,,,,,,,,0,0,0,0,0,26,26,26,,,,,,,,,,,,,,,,,,,,,,,,,,,,,,,,,,,,,,,,,,,,,,,,850.9352057730002,855.3373572330001,,,,,,,,,,,,,,,,,,,,,,,,,,,,,,,,,,,,,,,,,,,,,,,,,,,,,,,,,,,,,,,,,,,,022122,1,3,1,3,3,1,2,0,58,2022_Feb_21_1224,listening_fmri,3.2.4,59.891713266988965,
3,parcelated_audio/43/43_28.ogg,,,,,,,,,0,0,0,0,0,3,3,3,0,0,0,0,,,,,,,,,0,0,0,0,0,27,27,27,,,,,,,,,,,,,,,,,,,,,,,,,,,,,,,,,,,,,,,,,,,,,,,,855.3378219640008,860.3160277870002,,,,,,,,,,,,,,,,,,,,,,,,,,,,,,,,,,,,,,,,,,,,,,,,,,,,,,,,,,,,,,,,,,,,022122,1,3,1,3,3,1,2,0,58,2022_Feb_21_1224,listening_fmri,3.2.4,59.891713266988965,
3,parcelated_audio/43/43_29.ogg,,,,,,,,,0,0,0,0,0,3,3,3,0,0,0,0,,,,,,,,,0,0,0,0,0,28,28,28,,,,,,,,,,,,,,,,,,,,,,,,,,,,,,,,,,,,,,,,,,,,,,,,860.3163771290001,866.4663047470003,,,,,,,,,,,,,,,,,,,,,,,,,,,,,,,,,,,,,,,,,,,,,,,,,,,,,,,,,,,,,,,,,,,,022122,1,3,1,3,3,1,2,0,58,2022_Feb_21_1224,listening_fmri,3.2.4,59.891713266988965,
3,,,,,,,,,,0,0,0,0,0,3,3,3,0,0,0,0,,,,,,,,,0,0,0,0,,,,,,,,,,,,,,,,,,,,,,,,,,,,,,,,,,,,,,,,,,,,,,,,,,,,,,,,,,,,,,,,,,,,,,,,,,,,,,,,,,,,,,,,,,,,,,,,,,,,,,,,,,,,,,,,,,,,,,,,,022122,1,3,1,3,3,1,2,0,58,2022_Feb_21_1224,listening_fmri,3.2.4,59.891713266988965,
3,,,,,,,,,,0,0,0,0,0,3,3,3,0,0,0,0,,,,,,,,,,,,,,,,,,,,,,,,,,,,,,,,,,,,,,,,,,866.4666475640006,872.4580321740004,917.1731946480004,None,,,,,,,,,,,,,,,,,,,,,923.1773552060004,None,923.1773552060004,None,,,,,,,,,,,,,,,,,,,,,,,,,,,,,,,,,,,,,,,,,,,,,,,,,,,,,,,,,,,,,,,,022122,1,3,1,3,3,1,2,0,58,2022_Feb_21_1224,listening_fmri,3.2.4,59.891713266988965,
3,,,,,,,,,,0,0,0,0,0,3,3,3,,,,,,,,,,,,,,,,,,,,,,,,,,,,,,,,,,,,,,,,,,,,,,,,,,,,,,,,,,,,,,,,,,,,,,,,,,,,,,,,,,,,,,,,,,,,,,,,,,,,,,,,,,,,,,,,,,,,,,,,,,,,,,,,,,,,,,,,,022122,1,3,1,3,3,1,2,0,58,2022_Feb_21_1224,listening_fmri,3.2.4,59.891713266988965,
4,,,,,,,,,,0,0,0,0,0,4,4,4,,,,,,,,,,,,,,,,,,,,,,,,,,,,,,,,,,,,,,,,,,,,,,,,,,,,,,,,,,,,,,,,,,,,,,,,,,,,,,,,,,,,,,,,,,,,,,,,,,,,,,,,,,,,,,,,,,,,,,,,,,,,,,,,,,,,,,,,,022122,1,3,1,3,3,1,2,0,58,2022_Feb_21_1224,listening_fmri,3.2.4,59.891713266988965,
5,,,,,,,,,,0,0,0,0,0,5,5,5,0,0,0,0,0,0,0,0,,,,,,,,,,,,,,,,,0,0,0,0,,,,,,,,,,,,,,,,,,,,,,924.1933002389997,None,924.1933002389997,None,1,25.543050276999566,924.1933002389997,None,924.1933002389997,None,,,,,,,,,,,,,,,949.7604406789997,None,1,0.4348255009999775,949.7604406789997,None,949.7604406789997,None,950.2436187909998,None,950.2436187909998,None,950.2436187909998,None,1,0.6316487109997979,950.2436187909998,None,950.8939547990003,None,1,0.37346436600000743,950.8939547990003,None,950.8939547990003,None,951.3736295030003,None,951.3736295030003,None,951.3736295030003,None,951.3736295030003,None,951.3736295030003,None,951.3736295030003,None,951.3736295030003,None,None,951.3736295030003,None,,,,,,,,,,,,,,,,,,,,,022122,1,3,1,3,3,1,2,0,58,2022_Feb_21_1224,listening_fmri,3.2.4,59.891713266988965,
5,,,,,,,,,,0,0,0,0,0,5,5,5,0,0,0,0,0,0,0,0,,,,,,,,,,,,,,,,,,,,,,,,,,,,,,,,,,,,,,,,,,,,,,,,,,,,,,,,,,,,,,,,,,,,,,,,,,,,,,,,,,,,,,,,,,,,,,,,,,,,,,,,,,,,,980.040286771,None,1,0.5841097740003534,980.040286771,None,980.040286771,None,980.6894366919996,None,980.6894366919996,None,980.6894366919996,None,1,0.3879044539999086,980.6894366919996,None,,,022122,1,3,1,3,3,1,2,0,58,2022_Feb_21_1224,listening_fmri,3.2.4,59.891713266988965,
5,parcelated_audio/34/34_1.ogg,,,,,,,,,0,0,0,0,0,5,5,5,0,0,0,0,,,,,,,,,0,0,0,0,0,0,0,0,,,,,,,,,,,,,,,,,,,,,,,,,,,,,,,,,,,,,,,,981.0944870000003,None,1,0.4029351540002608,981.0944870000003,None,930.8151801920003,933.8249495970003,933.8302693380001,942.5148957350002,,,,,,,,,,,,,,,,,,,,,,,,,,,,,,,,,,,,,,,,,,,,,,,,,,,,,,,,,,,,,,,,,,,,022122,1,3,1,3,3,1,2,0,58,2022_Feb_21_1224,listening_fmri,3.2.4,59.891713266988965,
5,parcelated_audio/34/34_2.ogg,,,,,,,,,0,0,0,0,0,5,5,5,0,0,0,0,,,,,,,,,0,0,0,0,0,1,1,1,,,,,,,,,,,,,,,,,,,,,,,,,,,,,,,,,,,,,,,,,,,,,,,,942.5161738120005,947.0768037780008,,,,,,,,,,,,,,,,,,,,,,,,,,,,,,,,,,,,,,,,,,,,,,,,,,,,,,,,,,,,,,,,,,,,022122,1,3,1,3,3,1,2,0,58,2022_Feb_21_1224,listening_fmri,3.2.4,59.891713266988965,
5,parcelated_audio/34/34_3.ogg,,,,,,,,,0,0,0,0,0,5,5,5,0,0,0,0,,,,,,,,,0,0,0,0,0,2,2,2,,,,,,,,,,,,,,,,,,,,,,,,,,,,,,,,,,,,,,,,,,,,,,,,947.0770787220008,951.7204352750005,,,,,,,,,,,,,,,,,,,,,,,,,,,,,,,,,,,,,,,,,,,,,,,,,,,,,,,,,,,,,,,,,,,,022122,1,3,1,3,3,1,2,0,58,2022_Feb_21_1224,listening_fmri,3.2.4,59.891713266988965,
5,parcelated_audio/34/34_4.ogg,,,,,,,,,0,0,0,0,0,5,5,5,0,0,0,0,,,,,,,,,0,0,0,0,0,3,3,3,,,,,,,,,,,,,,,,,,,,,,,,,,,,,,,,,,,,,,,,,,,,,,,,951.7208635610004,961.3381274480007,,,,,,,,,,,,,,,,,,,,,,,,,,,,,,,,,,,,,,,,,,,,,,,,,,,,,,,,,,,,,,,,,,,,022122,1,3,1,3,3,1,2,0,58,2022_Feb_21_1224,listening_fmri,3.2.4,59.891713266988965,
5,parcelated_audio/34/34_5.ogg,,,,,,,,,0,0,0,0,0,5,5,5,0,0,0,0,,,,,,,,,0,0,0,0,0,4,4,4,,,,,,,,,,,,,,,,,,,,,,,,,,,,,,,,,,,,,,,,,,,,,,,,961.3384017620001,971.7535624830007,,,,,,,,,,,,,,,,,,,,,,,,,,,,,,,,,,,,,,,,,,,,,,,,,,,,,,,,,,,,,,,,,,,,022122,1,3,1,3,3,1,2,0,58,2022_Feb_21_1224,listening_fmri,3.2.4,59.891713266988965,
5,parcelated_audio/34/34_6.ogg,,,,,,,,,0,0,0,0,0,5,5,5,0,0,0,0,,,,,,,,,0,0,0,0,0,5,5,5,,,,,,,,,,,,,,,,,,,,,,,,,,,,,,,,,,,,,,,,,,,,,,,,971.7567799350008,980.4685871340007,,,,,,,,,,,,,,,,,,,,,,,,,,,,,,,,,,,,,,,,,,,,,,,,,,,,,,,,,,,,,,,,,,,,022122,1,3,1,3,3,1,2,0,58,2022_Feb_21_1224,listening_fmri,3.2.4,59.891713266988965,
5,parcelated_audio/34/34_7.ogg,,,,,,,,,0,0,0,0,0,5,5,5,0,0,0,0,,,,,,,,,0,0,0,0,0,6,6,6,,,,,,,,,,,,,,,,,,,,,,,,,,,,,,,,,,,,,,,,,,,,,,,,980.4691431800002,986.4568450720008,,,,,,,,,,,,,,,,,,,,,,,,,,,,,,,,,,,,,,,,,,,,,,,,,,,,,,,,,,,,,,,,,,,,022122,1,3,1,3,3,1,2,0,58,2022_Feb_21_1224,listening_fmri,3.2.4,59.891713266988965,
5,parcelated_audio/34/34_8.ogg,,,,,,,,,0,0,0,0,0,5,5,5,0,0,0,0,,,,,,,,,0,0,0,0,0,7,7,7,,,,,,,,,,,,,,,,,,,,,,,,,,,,,,,,,,,,,,,,,,,,,,,,986.4571905470002,994.4269092710001,,,,,,,,,,,,,,,,,,,,,,,,,,,,,,,,,,,,,,,,,,,,,,,,,,,,,,,,,,,,,,,,,,,,022122,1,3,1,3,3,1,2,0,58,2022_Feb_21_1224,listening_fmri,3.2.4,59.891713266988965,
5,parcelated_audio/34/34_9.ogg,,,,,,,,,0,0,0,0,0,5,5,5,0,0,0,0,,,,,,,,,0,0,0,0,0,8,8,8,,,,,,,,,,,,,,,,,,,,,,,,,,,,,,,,,,,,,,,,,,,,,,,,994.4272511190002,999.2198761270001,,,,,,,,,,,,,,,,,,,,,,,,,,,,,,,,,,,,,,,,,,,,,,,,,,,,,,,,,,,,,,,,,,,,022122,1,3,1,3,3,1,2,0,58,2022_Feb_21_1224,listening_fmri,3.2.4,59.891713266988965,
5,parcelated_audio/34/34_10.ogg,,,,,,,,,0,0,0,0,0,5,5,5,0,0,0,0,,,,,,,,,0,0,0,0,0,9,9,9,,,,,,,,,,,,,,,,,,,,,,,,,,,,,,,,,,,,,,,,,,,,,,,,999.220365352,1006.3417337290002,,,,,,,,,,,,,,,,,,,,,,,,,,,,,,,,,,,,,,,,,,,,,,,,,,,,,,,,,,,,,,,,,,,,022122,1,3,1,3,3,1,2,0,58,2022_Feb_21_1224,listening_fmri,3.2.4,59.891713266988965,
5,parcelated_audio/34/34_11.ogg,,,,,,,,,0,0,0,0,0,5,5,5,0,0,0,0,,,,,,,,,0,0,0,0,0,10,10,10,,,,,,,,,,,,,,,,,,,,,,,,,,,,,,,,,,,,,,,,,,,,,,,,1006.3420886260001,1009.782235787,,,,,,,,,,,,,,,,,,,,,,,,,,,,,,,,,,,,,,,,,,,,,,,,,,,,,,,,,,,,,,,,,,,,022122,1,3,1,3,3,1,2,0,58,2022_Feb_21_1224,listening_fmri,3.2.4,59.891713266988965,
5,parcelated_audio/34/34_12.ogg,,,,,,,,,0,0,0,0,0,5,5,5,0,0,0,0,,,,,,,,,0,0,0,0,0,11,11,11,,,,,,,,,,,,,,,,,,,,,,,,,,,,,,,,,,,,,,,,,,,,,,,,1009.7827383650001,1017.9628175720009,,,,,,,,,,,,,,,,,,,,,,,,,,,,,,,,,,,,,,,,,,,,,,,,,,,,,,,,,,,,,,,,,,,,022122,1,3,1,3,3,1,2,0,58,2022_Feb_21_1224,listening_fmri,3.2.4,59.891713266988965,
5,parcelated_audio/34/34_13.ogg,,,,,,,,,0,0,0,0,0,5,5,5,0,0,0,0,,,,,,,,,0,0,0,0,0,12,12,12,,,,,,,,,,,,,,,,,,,,,,,,,,,,,,,,,,,,,,,,,,,,,,,,1017.9633060940005,1021.8567555080008,,,,,,,,,,,,,,,,,,,,,,,,,,,,,,,,,,,,,,,,,,,,,,,,,,,,,,,,,,,,,,,,,,,,022122,1,3,1,3,3,1,2,0,58,2022_Feb_21_1224,listening_fmri,3.2.4,59.891713266988965,
5,parcelated_audio/34/34_14.ogg,,,,,,,,,0,0,0,0,0,5,5,5,0,0,0,0,,,,,,,,,0,0,0,0,0,13,13,13,,,,,,,,,,,,,,,,,,,,,,,,,,,,,,,,,,,,,,,,,,,,,,,,1021.8572351210005,1026.5052415360005,,,,,,,,,,,,,,,,,,,,,,,,,,,,,,,,,,,,,,,,,,,,,,,,,,,,,,,,,,,,,,,,,,,,022122,1,3,1,3,3,1,2,0,58,2022_Feb_21_1224,listening_fmri,3.2.4,59.891713266988965,
5,parcelated_audio/34/34_15.ogg,,,,,,,,,0,0,0,0,0,5,5,5,0,0,0,0,,,,,,,,,0,0,0,0,0,14,14,14,,,,,,,,,,,,,,,,,,,,,,,,,,,,,,,,,,,,,,,,,,,,,,,,1026.5057780960005,1030.6945512390002,,,,,,,,,,,,,,,,,,,,,,,,,,,,,,,,,,,,,,,,,,,,,,,,,,,,,,,,,,,,,,,,,,,,022122,1,3,1,3,3,1,2,0,58,2022_Feb_21_1224,listening_fmri,3.2.4,59.891713266988965,
5,parcelated_audio/34/34_16.ogg,,,,,,,,,0,0,0,0,0,5,5,5,0,0,0,0,,,,,,,,,0,0,0,0,0,15,15,15,,,,,,,,,,,,,,,,,,,,,,,,,,,,,,,,,,,,,,,,,,,,,,,,1030.6949508690004,1043.6992694170003,,,,,,,,,,,,,,,,,,,,,,,,,,,,,,,,,,,,,,,,,,,,,,,,,,,,,,,,,,,,,,,,,,,,022122,1,3,1,3,3,1,2,0,58,2022_Feb_21_1224,listening_fmri,3.2.4,59.891713266988965,
5,parcelated_audio/34/34_17.ogg,,,,,,,,,0,0,0,0,0,5,5,5,0,0,0,0,,,,,,,,,0,0,0,0,0,16,16,16,,,,,,,,,,,,,,,,,,,,,,,,,,,,,,,,,,,,,,,,,,,,,,,,1043.6996340640007,1052.6317796450003,,,,,,,,,,,,,,,,,,,,,,,,,,,,,,,,,,,,,,,,,,,,,,,,,,,,,,,,,,,,,,,,,,,,022122,1,3,1,3,3,1,2,0,58,2022_Feb_21_1224,listening_fmri,3.2.4,59.891713266988965,
5,parcelated_audio/34/34_18.ogg,,,,,,,,,0,0,0,0,0,5,5,5,0,0,0,0,,,,,,,,,0,0,0,0,0,17,17,17,,,,,,,,,,,,,,,,,,,,,,,,,,,,,,,,,,,,,,,,,,,,,,,,1052.6321062590005,1058.5241843950007,,,,,,,,,,,,,,,,,,,,,,,,,,,,,,,,,,,,,,,,,,,,,,,,,,,,,,,,,,,,,,,,,,,,022122,1,3,1,3,3,1,2,0,58,2022_Feb_21_1224,listening_fmri,3.2.4,59.891713266988965,
5,parcelated_audio/34/34_19.ogg,,,,,,,,,0,0,0,0,0,5,5,5,0,0,0,0,,,,,,,,,0,0,0,0,0,18,18,18,,,,,,,,,,,,,,,,,,,,,,,,,,,,,,,,,,,,,,,,,,,,,,,,1058.5246324210002,1064.7443337120003,,,,,,,,,,,,,,,,,,,,,,,,,,,,,,,,,,,,,,,,,,,,,,,,,,,,,,,,,,,,,,,,,,,,022122,1,3,1,3,3,1,2,0,58,2022_Feb_21_1224,listening_fmri,3.2.4,59.891713266988965,
5,parcelated_audio/34/34_20.ogg,,,,,,,,,0,0,0,0,0,5,5,5,0,0,0,0,,,,,,,,,0,0,0,0,0,19,19,19,,,,,,,,,,,,,,,,,,,,,,,,,,,,,,,,,,,,,,,,,,,,,,,,1064.744682292,1073.2050687120009,,,,,,,,,,,,,,,,,,,,,,,,,,,,,,,,,,,,,,,,,,,,,,,,,,,,,,,,,,,,,,,,,,,,022122,1,3,1,3,3,1,2,0,58,2022_Feb_21_1224,listening_fmri,3.2.4,59.891713266988965,
5,parcelated_audio/34/34_21.ogg,,,,,,,,,0,0,0,0,0,5,5,5,0,0,0,0,,,,,,,,,0,0,0,0,0,20,20,20,,,,,,,,,,,,,,,,,,,,,,,,,,,,,,,,,,,,,,,,,,,,,,,,1073.2054194860002,1079.5616681270003,,,,,,,,,,,,,,,,,,,,,,,,,,,,,,,,,,,,,,,,,,,,,,,,,,,,,,,,,,,,,,,,,,,,022122,1,3,1,3,3,1,2,0,58,2022_Feb_21_1224,listening_fmri,3.2.4,59.891713266988965,
5,parcelated_audio/34/34_22.ogg,,,,,,,,,0,0,0,0,0,5,5,5,0,0,0,0,,,,,,,,,0,0,0,0,0,21,21,21,,,,,,,,,,,,,,,,,,,,,,,,,,,,,,,,,,,,,,,,,,,,,,,,1079.5621616750004,1084.702894469,,,,,,,,,,,,,,,,,,,,,,,,,,,,,,,,,,,,,,,,,,,,,,,,,,,,,,,,,,,,,,,,,,,,022122,1,3,1,3,3,1,2,0,58,2022_Feb_21_1224,listening_fmri,3.2.4,59.891713266988965,
5,parcelated_audio/34/34_23.ogg,,,,,,,,,0,0,0,0,0,5,5,5,0,0,0,0,,,,,,,,,0,0,0,0,0,22,22,22,,,,,,,,,,,,,,,,,,,,,,,,,,,,,,,,,,,,,,,,,,,,,,,,1084.7032242990008,1092.4889570050009,,,,,,,,,,,,,,,,,,,,,,,,,,,,,,,,,,,,,,,,,,,,,,,,,,,,,,,,,,,,,,,,,,,,022122,1,3,1,3,3,1,2,0,58,2022_Feb_21_1224,listening_fmri,3.2.4,59.891713266988965,
5,parcelated_audio/34/34_24.ogg,,,,,,,,,0,0,0,0,0,5,5,5,0,0,0,0,,,,,,,,,0,0,0,0,0,23,23,23,,,,,,,,,,,,,,,,,,,,,,,,,,,,,,,,,,,,,,,,,,,,,,,,1092.4893047770001,1098.291706082,,,,,,,,,,,,,,,,,,,,,,,,,,,,,,,,,,,,,,,,,,,,,,,,,,,,,,,,,,,,,,,,,,,,022122,1,3,1,3,3,1,2,0,58,2022_Feb_21_1224,listening_fmri,3.2.4,59.891713266988965,
5,parcelated_audio/34/34_25.ogg,,,,,,,,,0,0,0,0,0,5,5,5,0,0,0,0,,,,,,,,,0,0,0,0,0,24,24,24,,,,,,,,,,,,,,,,,,,,,,,,,,,,,,,,,,,,,,,,,,,,,,,,1098.2922277940006,1104.8548807180005,,,,,,,,,,,,,,,,,,,,,,,,,,,,,,,,,,,,,,,,,,,,,,,,,,,,,,,,,,,,,,,,,,,,022122,1,3,1,3,3,1,2,0,58,2022_Feb_21_1224,listening_fmri,3.2.4,59.891713266988965,
5,parcelated_audio/34/34_26.ogg,,,,,,,,,0,0,0,0,0,5,5,5,0,0,0,0,,,,,,,,,0,0,0,0,0,25,25,25,,,,,,,,,,,,,,,,,,,,,,,,,,,,,,,,,,,,,,,,,,,,,,,,1104.8559953970007,1114.5240487400006,,,,,,,,,,,,,,,,,,,,,,,,,,,,,,,,,,,,,,,,,,,,,,,,,,,,,,,,,,,,,,,,,,,,022122,1,3,1,3,3,1,2,0,58,2022_Feb_21_1224,listening_fmri,3.2.4,59.891713266988965,
5,parcelated_audio/34/34_27.ogg,,,,,,,,,0,0,0,0,0,5,5,5,0,0,0,0,,,,,,,,,0,0,0,0,0,26,26,26,,,,,,,,,,,,,,,,,,,,,,,,,,,,,,,,,,,,,,,,,,,,,,,,1114.5244007330002,1122.0389734750006,,,,,,,,,,,,,,,,,,,,,,,,,,,,,,,,,,,,,,,,,,,,,,,,,,,,,,,,,,,,,,,,,,,,022122,1,3,1,3,3,1,2,0,58,2022_Feb_21_1224,listening_fmri,3.2.4,59.891713266988965,
5,,,,,,,,,,0,0,0,0,0,5,5,5,0,0,0,0,,,,,,,,,0,0,0,0,,,,,,,,,,,,,,,,,,,,,,,,,,,,,,,,,,,,,,,,,,,,,,,,,,,,,,,,,,,,,,,,,,,,,,,,,,,,,,,,,,,,,,,,,,,,,,,,,,,,,,,,,,,,,,,,,,,,,,,,,022122,1,3,1,3,3,1,2,0,58,2022_Feb_21_1224,listening_fmri,3.2.4,59.891713266988965,
5,,,,,,,,,,0,0,0,0,0,5,5,5,0,0,0,0,,,,,,,,,,,,,,,,,,,,,,,,,,,,,,,,,,,,,,,,,,1122.039448472,1128.0421279300008,1172.754149206,None,,,,,,,,,,,,,,,,,,,,,1178.7614645309995,None,1178.7614645309995,None,,,,,,,,,,,,,,,,,,,,,,,,,,,,,,,,,,,,,,,,,,,,,,,,,,,,,,,,,,,,,,,,022122,1,3,1,3,3,1,2,0,58,2022_Feb_21_1224,listening_fmri,3.2.4,59.891713266988965,
5,,,,,,,,,,0,0,0,0,0,5,5,5,,,,,,,,,,,,,,,,,,,,,,,,,,,,,,,,,,,,,,,,,,,,,,,,,,,,,,,,,,,,,,,,,,,,,,,,,,,,,,,,,,,,,,,,,,,,,,,,,,,,,,,,,,,,,,,,,,,,,,,,,,,,,,,,,,,,,,,,,022122,1,3,1,3,3,1,2,0,58,2022_Feb_21_1224,listening_fmri,3.2.4,59.891713266988965,
6,parcelated_audio/33/33_1.ogg,,,,,,,,,0,0,0,0,0,6,6,6,0,0,0,0,,,,,,,,,0,0,0,0,0,0,0,0,,,,,,,,,,,,,,,,,,,,,,,,,,,,,,1179.7865836210003,None,1179.7865836210003,None,2,48.27882766699986,1179.7865836210003,None,1179.7865836210003,None,1228.0949434149998,None,2,0.9242910029997802,1228.0949434149998,None,1178.3242623150009,1181.3256584550008,1181.3342051090003,1191.290762003,,,,,,,,,,,,,,,,,,,,,,,,,,,,,,,,,,,,,,,,,,,,,,,,,,,,,,,,,,,,,,,,,,,,022122,1,3,1,3,3,1,2,0,58,2022_Feb_21_1224,listening_fmri,3.2.4,59.891713266988965,
6,parcelated_audio/33/33_2.ogg,,,,,,,,,0,0,0,0,0,6,6,6,0,0,0,0,,,,,,,,,0,0,0,0,0,1,1,1,,,,,,,,,,,,,,,,,,,,,,,,,,,,,,,,,,,,,,,,,,,,,,,,1191.2911169280005,1201.7252781880006,,,,,,,,,,,,,,,,,,,,,,,,,,,,,,,,,,,,,,,,,,,,,,,,,,,,,,,,,,,,,,,,,,,,022122,1,3,1,3,3,1,2,0,58,2022_Feb_21_1224,listening_fmri,3.2.4,59.891713266988965,
6,parcelated_audio/33/33_3.ogg,,,,,,,,,0,0,0,0,0,6,6,6,0,0,0,0,,,,,,,,,0,0,0,0,0,2,2,2,,,,,,,,,,,,,,,,,,,,,,,,,,,,,,,,,,,,,,,,,,,,,,,,1201.7256362280004,1208.282935061,,,,,,,,,,,,,,,,,,,,,,,,,,,,,,,,,,,,,,,,,,,,,,,,,,,,,,,,,,,,,,,,,,,,022122,1,3,1,3,3,1,2,0,58,2022_Feb_21_1224,listening_fmri,3.2.4,59.891713266988965,
6,parcelated_audio/33/33_4.ogg,,,,,,,,,0,0,0,0,0,6,6,6,0,0,0,0,,,,,,,,,0,0,0,0,0,3,3,3,,,,,,,,,,,,,,,,,,,,,,,,,,,,,,,,,,,,,,,,,,,,,,,,1208.2832972660008,1211.8787389660001,,,,,,,,,,,,,,,,,,,,,,,,,,,,,,,,,,,,,,,,,,,,,,,,,,,,,,,,,,,,,,,,,,,,022122,1,3,1,3,3,1,2,0,58,2022_Feb_21_1224,listening_fmri,3.2.4,59.891713266988965,
6,parcelated_audio/33/33_5.ogg,,,,,,,,,0,0,0,0,0,6,6,6,0,0,0,0,,,,,,,,,0,0,0,0,0,4,4,4,,,,,,,,,,,,,,,,,,,,,,,,,,,,,,,,,,,,,,,,,,,,,,,,1211.8790925060002,1223.1268173480003,,,,,,,,,,,,,,,,,,,,,,,,,,,,,,,,,,,,,,,,,,,,,,,,,,,,,,,,,,,,,,,,,,,,022122,1,3,1,3,3,1,2,0,58,2022_Feb_21_1224,listening_fmri,3.2.4,59.891713266988965,
6,parcelated_audio/33/33_6.ogg,,,,,,,,,0,0,0,0,0,6,6,6,0,0,0,0,,,,,,,,,0,0,0,0,0,5,5,5,,,,,,,,,,,,,,,,,,,,,,,,,,,,,,,,,,,,,,,,,,,,,,,,1223.1271740270004,1234.8308947920004,,,,,,,,,,,,,,,,,,,,,,,,,,,,,,,,,,,,,,,,,,,,,,,,,,,,,,,,,,,,,,,,,,,,022122,1,3,1,3,3,1,2,0,58,2022_Feb_21_1224,listening_fmri,3.2.4,59.891713266988965,
6,parcelated_audio/33/33_7.ogg,,,,,,,,,0,0,0,0,0,6,6,6,0,0,0,0,,,,,,,,,0,0,0,0,0,6,6,6,,,,,,,,,,,,,,,,,,,,,,,,,,,,,,,,,,,,,,,,,,,,,,,,1234.8313091790005,1249.3957540760002,,,,,,,,,,,,,,,,,,,,,,,,,,,,,,,,,,,,,,,,,,,,,,,,,,,,,,,,,,,,,,,,,,,,022122,1,3,1,3,3,1,2,0,58,2022_Feb_21_1224,listening_fmri,3.2.4,59.891713266988965,
6,parcelated_audio/33/33_8.ogg,,,,,,,,,0,0,0,0,0,6,6,6,0,0,0,0,,,,,,,,,0,0,0,0,0,7,7,7,,,,,,,,,,,,,,,,,,,,,,,,,,,,,,,,,,,,,,,,,,,,,,,,1249.3961101680006,1255.5289708670007,,,,,,,,,,,,,,,,,,,,,,,,,,,,,,,,,,,,,,,,,,,,,,,,,,,,,,,,,,,,,,,,,,,,022122,1,3,1,3,3,1,2,0,58,2022_Feb_21_1224,listening_fmri,3.2.4,59.891713266988965,
6,parcelated_audio/33/33_9.ogg,,,,,,,,,0,0,0,0,0,6,6,6,0,0,0,0,,,,,,,,,0,0,0,0,0,8,8,8,,,,,,,,,,,,,,,,,,,,,,,,,,,,,,,,,,,,,,,,,,,,,,,,1255.5293908590002,1259.2305721440007,,,,,,,,,,,,,,,,,,,,,,,,,,,,,,,,,,,,,,,,,,,,,,,,,,,,,,,,,,,,,,,,,,,,022122,1,3,1,3,3,1,2,0,58,2022_Feb_21_1224,listening_fmri,3.2.4,59.891713266988965,
6,parcelated_audio/33/33_10.ogg,,,,,,,,,0,0,0,0,0,6,6,6,0,0,0,0,,,,,,,,,0,0,0,0,0,9,9,9,,,,,,,,,,,,,,,,,,,,,,,,,,,,,,,,,,,,,,,,,,,,,,,,1259.2309209940004,1264.5962453800003,,,,,,,,,,,,,,,,,,,,,,,,,,,,,,,,,,,,,,,,,,,,,,,,,,,,,,,,,,,,,,,,,,,,022122,1,3,1,3,3,1,2,0,58,2022_Feb_21_1224,listening_fmri,3.2.4,59.891713266988965,
6,parcelated_audio/33/33_11.ogg,,,,,,,,,0,0,0,0,0,6,6,6,0,0,0,0,,,,,,,,,0,0,0,0,0,10,10,10,,,,,,,,,,,,,,,,,,,,,,,,,,,,,,,,,,,,,,,,,,,,,,,,1264.5968749830008,1279.0144955990008,,,,,,,,,,,,,,,,,,,,,,,,,,,,,,,,,,,,,,,,,,,,,,,,,,,,,,,,,,,,,,,,,,,,022122,1,3,1,3,3,1,2,0,58,2022_Feb_21_1224,listening_fmri,3.2.4,59.891713266988965,
6,parcelated_audio/33/33_12.ogg,,,,,,,,,0,0,0,0,0,6,6,6,0,0,0,0,,,,,,,,,0,0,0,0,0,11,11,11,,,,,,,,,,,,,,,,,,,,,,,,,,,,,,,,,,,,,,,,,,,,,,,,1279.0149761920002,1285.1237588460008,,,,,,,,,,,,,,,,,,,,,,,,,,,,,,,,,,,,,,,,,,,,,,,,,,,,,,,,,,,,,,,,,,,,022122,1,3,1,3,3,1,2,0,58,2022_Feb_21_1224,listening_fmri,3.2.4,59.891713266988965,
6,parcelated_audio/33/33_13.ogg,,,,,,,,,0,0,0,0,0,6,6,6,0,0,0,0,,,,,,,,,0,0,0,0,0,12,12,12,,,,,,,,,,,,,,,,,,,,,,,,,,,,,,,,,,,,,,,,,,,,,,,,1285.124110312,1292.520965482,,,,,,,,,,,,,,,,,,,,,,,,,,,,,,,,,,,,,,,,,,,,,,,,,,,,,,,,,,,,,,,,,,,,022122,1,3,1,3,3,1,2,0,58,2022_Feb_21_1224,listening_fmri,3.2.4,59.891713266988965,
6,parcelated_audio/33/33_14.ogg,,,,,,,,,0,0,0,0,0,6,6,6,0,0,0,0,,,,,,,,,0,0,0,0,0,13,13,13,,,,,,,,,,,,,,,,,,,,,,,,,,,,,,,,,,,,,,,,,,,,,,,,1292.5213177340001,1304.9477392390008,,,,,,,,,,,,,,,,,,,,,,,,,,,,,,,,,,,,,,,,,,,,,,,,,,,,,,,,,,,,,,,,,,,,022122,1,3,1,3,3,1,2,0,58,2022_Feb_21_1224,listening_fmri,3.2.4,59.891713266988965,
6,parcelated_audio/33/33_15.ogg,,,,,,,,,0,0,0,0,0,6,6,6,0,0,0,0,,,,,,,,,0,0,0,0,0,14,14,14,,,,,,,,,,,,,,,,,,,,,,,,,,,,,,,,,,,,,,,,,,,,,,,,1304.9481427070004,1323.4867728210002,,,,,,,,,,,,,,,,,,,,,,,,,,,,,,,,,,,,,,,,,,,,,,,,,,,,,,,,,,,,,,,,,,,,022122,1,3,1,3,3,1,2,0,58,2022_Feb_21_1224,listening_fmri,3.2.4,59.891713266988965,
6,parcelated_audio/33/33_16.ogg,,,,,,,,,0,0,0,0,0,6,6,6,0,0,0,0,,,,,,,,,0,0,0,0,0,15,15,15,,,,,,,,,,,,,,,,,,,,,,,,,,,,,,,,,,,,,,,,,,,,,,,,1323.4871188080006,1335.721692215,,,,,,,,,,,,,,,,,,,,,,,,,,,,,,,,,,,,,,,,,,,,,,,,,,,,,,,,,,,,,,,,,,,,022122,1,3,1,3,3,1,2,0,58,2022_Feb_21_1224,listening_fmri,3.2.4,59.891713266988965,
6,parcelated_audio/33/33_17.ogg,,,,,,,,,0,0,0,0,0,6,6,6,0,0,0,0,,,,,,,,,0,0,0,0,0,16,16,16,,,,,,,,,,,,,,,,,,,,,,,,,,,,,,,,,,,,,,,,,,,,,,,,1335.7220312200006,1346.9450576980007,,,,,,,,,,,,,,,,,,,,,,,,,,,,,,,,,,,,,,,,,,,,,,,,,,,,,,,,,,,,,,,,,,,,022122,1,3,1,3,3,1,2,0,58,2022_Feb_21_1224,listening_fmri,3.2.4,59.891713266988965,
6,parcelated_audio/33/33_18.ogg,,,,,,,,,0,0,0,0,0,6,6,6,0,0,0,0,,,,,,,,,0,0,0,0,0,17,17,17,,,,,,,,,,,,,,,,,,,,,,,,,,,,,,,,,,,,,,,,,,,,,,,,1346.94540675,1355.4013865060006,,,,,,,,,,,,,,,,,,,,,,,,,,,,,,,,,,,,,,,,,,,,,,,,,,,,,,,,,,,,,,,,,,,,022122,1,3,1,3,3,1,2,0,58,2022_Feb_21_1224,listening_fmri,3.2.4,59.891713266988965,
6,parcelated_audio/33/33_19.ogg,,,,,,,,,0,0,0,0,0,6,6,6,0,0,0,0,,,,,,,,,0,0,0,0,0,18,18,18,,,,,,,,,,,,,,,,,,,,,,,,,,,,,,,,,,,,,,,,,,,,,,,,1355.40173494,1358.8441859060003,,,,,,,,,,,,,,,,,,,,,,,,,,,,,,,,,,,,,,,,,,,,,,,,,,,,,,,,,,,,,,,,,,,,022122,1,3,1,3,3,1,2,0,58,2022_Feb_21_1224,listening_fmri,3.2.4,59.891713266988965,
6,parcelated_audio/33/33_20.ogg,,,,,,,,,0,0,0,0,0,6,6,6,0,0,0,0,,,,,,,,,0,0,0,0,0,19,19,19,,,,,,,,,,,,,,,,,,,,,,,,,,,,,,,,,,,,,,,,,,,,,,,,1358.8445502030008,1365.715678003,,,,,,,,,,,,,,,,,,,,,,,,,,,,,,,,,,,,,,,,,,,,,,,,,,,,,,,,,,,,,,,,,,,,022122,1,3,1,3,3,1,2,0,58,2022_Feb_21_1224,listening_fmri,3.2.4,59.891713266988965,
6,parcelated_audio/33/33_21.ogg,,,,,,,,,0,0,0,0,0,6,6,6,0,0,0,0,,,,,,,,,0,0,0,0,0,20,20,20,,,,,,,,,,,,,,,,,,,,,,,,,,,,,,,,,,,,,,,,,,,,,,,,1365.7161896830003,1369.8660231930007,,,,,,,,,,,,,,,,,,,,,,,,,,,,,,,,,,,,,,,,,,,,,,,,,,,,,,,,,,,,,,,,,,,,022122,1,3,1,3,3,1,2,0,58,2022_Feb_21_1224,listening_fmri,3.2.4,59.891713266988965,
6,parcelated_audio/33/33_22.ogg,,,,,,,,,0,0,0,0,0,6,6,6,0,0,0,0,,,,,,,,,0,0,0,0,0,21,21,21,,,,,,,,,,,,,,,,,,,,,,,,,,,,,,,,,,,,,,,,,,,,,,,,1369.8664277760008,1381.699817048,,,,,,,,,,,,,,,,,,,,,,,,,,,,,,,,,,,,,,,,,,,,,,,,,,,,,,,,,,,,,,,,,,,,022122,1,3,1,3,3,1,2,0,58,2022_Feb_21_1224,listening_fmri,3.2.4,59.891713266988965,
6,parcelated_audio/33/33_23.ogg,,,,,,,,,0,0,0,0,0,6,6,6,0,0,0,0,,,,,,,,,0,0,0,0,0,22,22,22,,,,,,,,,,,,,,,,,,,,,,,,,,,,,,,,,,,,,,,,,,,,,,,,1381.7001730540005,1392.1881832810004,,,,,,,,,,,,,,,,,,,,,,,,,,,,,,,,,,,,,,,,,,,,,,,,,,,,,,,,,,,,,,,,,,,,022122,1,3,1,3,3,1,2,0,58,2022_Feb_21_1224,listening_fmri,3.2.4,59.891713266988965,
6,parcelated_audio/33/33_24.ogg,,,,,,,,,0,0,0,0,0,6,6,6,0,0,0,0,,,,,,,,,0,0,0,0,0,23,23,23,,,,,,,,,,,,,,,,,,,,,,,,,,,,,,,,,,,,,,,,,,,,,,,,1392.1886407220009,1398.4441230260009,,,,,,,,,,,,,,,,,,,,,,,,,,,,,,,,,,,,,,,,,,,,,,,,,,,,,,,,,,,,,,,,,,,,022122,1,3,1,3,3,1,2,0,58,2022_Feb_21_1224,listening_fmri,3.2.4,59.891713266988965,
6,parcelated_audio/33/33_25.ogg,,,,,,,,,0,0,0,0,0,6,6,6,0,0,0,0,,,,,,,,,0,0,0,0,0,24,24,24,,,,,,,,,,,,,,,,,,,,,,,,,,,,,,,,,,,,,,,,,,,,,,,,1398.4444743920003,1406.646681397,,,,,,,,,,,,,,,,,,,,,,,,,,,,,,,,,,,,,,,,,,,,,,,,,,,,,,,,,,,,,,,,,,,,022122,1,3,1,3,3,1,2,0,58,2022_Feb_21_1224,listening_fmri,3.2.4,59.891713266988965,
6,parcelated_audio/33/33_26.ogg,,,,,,,,,0,0,0,0,0,6,6,6,0,0,0,0,,,,,,,,,0,0,0,0,0,25,25,25,,,,,,,,,,,,,,,,,,,,,,,,,,,,,,,,,,,,,,,,,,,,,,,,1406.6471447010008,1413.7120488560004,,,,,,,,,,,,,,,,,,,,,,,,,,,,,,,,,,,,,,,,,,,,,,,,,,,,,,,,,,,,,,,,,,,,022122,1,3,1,3,3,1,2,0,58,2022_Feb_21_1224,listening_fmri,3.2.4,59.891713266988965,
6,parcelated_audio/33/33_27.ogg,,,,,,,,,0,0,0,0,0,6,6,6,0,0,0,0,,,,,,,,,0,0,0,0,0,26,26,26,,,,,,,,,,,,,,,,,,,,,,,,,,,,,,,,,,,,,,,,,,,,,,,,1413.7125180710009,1421.259774133,,,,,,,,,,,,,,,,,,,,,,,,,,,,,,,,,,,,,,,,,,,,,,,,,,,,,,,,,,,,,,,,,,,,022122,1,3,1,3,3,1,2,0,58,2022_Feb_21_1224,listening_fmri,3.2.4,59.891713266988965,
6,parcelated_audio/33/33_28.ogg,,,,,,,,,0,0,0,0,0,6,6,6,0,0,0,0,,,,,,,,,0,0,0,0,0,27,27,27,,,,,,,,,,,,,,,,,,,,,,,,,,,,,,,,,,,,,,,,,,,,,,,,1421.2602377370004,1426.9610540020003,,,,,,,,,,,,,,,,,,,,,,,,,,,,,,,,,,,,,,,,,,,,,,,,,,,,,,,,,,,,,,,,,,,,022122,1,3,1,3,3,1,2,0,58,2022_Feb_21_1224,listening_fmri,3.2.4,59.891713266988965,
6,parcelated_audio/33/33_29.ogg,,,,,,,,,0,0,0,0,0,6,6,6,0,0,0,0,,,,,,,,,0,0,0,0,0,28,28,28,,,,,,,,,,,,,,,,,,,,,,,,,,,,,,,,,,,,,,,,,,,,,,,,1426.9622898930002,1434.872443276,,,,,,,,,,,,,,,,,,,,,,,,,,,,,,,,,,,,,,,,,,,,,,,,,,,,,,,,,,,,,,,,,,,,022122,1,3,1,3,3,1,2,0,58,2022_Feb_21_1224,listening_fmri,3.2.4,59.891713266988965,
6,parcelated_audio/33/33_30.ogg,,,,,,,,,0,0,0,0,0,6,6,6,0,0,0,0,,,,,,,,,0,0,0,0,0,29,29,29,,,,,,,,,,,,,,,,,,,,,,,,,,,,,,,,,,,,,,,,,,,,,,,,1434.8728130890004,1449.8387629020008,,,,,,,,,,,,,,,,,,,,,,,,,,,,,,,,,,,,,,,,,,,,,,,,,,,,,,,,,,,,,,,,,,,,022122,1,3,1,3,3,1,2,0,58,2022_Feb_21_1224,listening_fmri,3.2.4,59.891713266988965,
6,parcelated_audio/33/33_31.ogg,,,,,,,,,0,0,0,0,0,6,6,6,0,0,0,0,,,,,,,,,0,0,0,0,0,30,30,30,,,,,,,,,,,,,,,,,,,,,,,,,,,,,,,,,,,,,,,,,,,,,,,,1449.840014024,1459.577541953,,,,,,,,,,,,,,,,,,,,,,,,,,,,,,,,,,,,,,,,,,,,,,,,,,,,,,,,,,,,,,,,,,,,022122,1,3,1,3,3,1,2,0,58,2022_Feb_21_1224,listening_fmri,3.2.4,59.891713266988965,
6,parcelated_audio/33/33_32.ogg,,,,,,,,,0,0,0,0,0,6,6,6,0,0,0,0,,,,,,,,,0,0,0,0,0,31,31,31,,,,,,,,,,,,,,,,,,,,,,,,,,,,,,,,,,,,,,,,,,,,,,,,1459.578769742,1465.1979333000008,,,,,,,,,,,,,,,,,,,,,,,,,,,,,,,,,,,,,,,,,,,,,,,,,,,,,,,,,,,,,,,,,,,,022122,1,3,1,3,3,1,2,0,58,2022_Feb_21_1224,listening_fmri,3.2.4,59.891713266988965,
6,,,,,,,,,,0,0,0,0,0,6,6,6,0,0,0,0,,,,,,,,,0,0,0,0,,,,,,,,,,,,,,,,,,,,,,,,,,,,,,,,,,,,,,,,,,,,,,,,,,,,,,,,,,,,,,,,,,,,,,,,,,,,,,,,,,,,,,,,,,,,,,,,,,,,,,,,,,,,,,,,,,,,,,,,,022122,1,3,1,3,3,1,2,0,58,2022_Feb_21_1224,listening_fmri,3.2.4,59.891713266988965,
6,,,,,,,,,,0,0,0,0,0,6,6,6,0,0,0,0,,,,,,,,,,,,,,,,,,,,,,,,,,,,,,,,,,,,,,,,,,1465.1983411210003,1471.1930093740002,1515.9124574349999,None,,,,,,,,,,,,,,,,,,,,,1521.9124807950002,None,1521.9124807950002,None,,,,,,,,,,,,,,,,,,,,,,,,,,,,,,,,,,,,,,,,,,,,,,,,,,,,,,,,,,,,,,,,022122,1,3,1,3,3,1,2,0,58,2022_Feb_21_1224,listening_fmri,3.2.4,59.891713266988965,
6,,,,,,,,,,0,0,0,0,0,6,6,6,,,,,,,,,,,,,,,,,,,,,,,,,,,,,,,,,,,,,,,,,,,,,,,,,,,,,,,,,,,,,,,,,,,,,,,,,,,,,,,,,,,,,,,,,,,,,,,,,,,,,,,,,,,,,,,,,,,,,,,,,,,,,,,,,,,,,,,,,022122,1,3,1,3,3,1,2,0,58,2022_Feb_21_1224,listening_fmri,3.2.4,59.891713266988965,
7,,,,,,,,,,0,0,0,0,0,7,7,7,0,0,0,0,0,0,0,0,,,,,,,,,,,,,,,,,0,0,0,0,,,,,,,,,,,,,,,,,,,,,,1522.9458070609999,None,1522.9458070609999,None,2,15.408588900000723,1522.9458070609999,None,1522.9458070609999,None,,,,,,,,,,,,,,,1538.379030213,None,2,0.42824740200012457,1538.379030213,None,1538.379030213,None,1538.845196405,None,1538.845196405,None,1538.845196405,None,2,0.5491222929995274,1538.845196405,None,1539.412087523,None,2,1.1262902359994769,1539.412087523,None,1539.412087523,None,1540.629119577,None,1540.629119577,None,1540.629119577,None,1540.629119577,None,1540.629119577,None,1540.629119577,None,1540.629119577,None,None,1540.629119577,None,,,,,,,,,,,,,,,,,,,,,022122,1,3,1,3,3,1,2,0,58,2022_Feb_21_1224,listening_fmri,3.2.4,59.891713266988965,
7,,,,,,,,,,0,0,0,0,0,7,7,7,0,0,0,0,0,0,0,0,,,,,,,,,,,,,,,,,,,,,,,,,,,,,,,,,,,,,,,,,,,,,,,,,,,,,,,,,,,,,,,,,,,,,,,,,,,,,,,,,,,,,,,,,,,,,,,,,,,,,,,,,,,,,1574.9791969689995,None,1,0.7062046820001342,1574.9791969689995,None,1574.9791969689995,None,1575.7284297710003,None,1575.7284297710003,None,1575.7284297710003,None,1,8.271966217999761,1575.7284297710003,None,,,022122,1,3,1,3,3,1,2,0,58,2022_Feb_21_1224,listening_fmri,3.2.4,59.891713266988965,
7,parcelated_audio/14/14_1.ogg,,,,,,,,,0,0,0,0,0,7,7,7,0,0,0,0,,,,,,,,,0,0,0,0,0,0,0,0,,,,,,,,,,,,,,,,,,,,,,,,,,,,,,,,,,,,,,,,1584.0285706450004,None,1,1.7938453579999987,1584.0285706450004,None,1535.1614866130003,1538.1763503780003,1538.1816114130006,1545.0334359330009,,,,,,,,,,,,,,,,,,,,,,,,,,,,,,,,,,,,,,,,,,,,,,,,,,,,,,,,,,,,,,,,,,,,022122,1,3,1,3,3,1,2,0,58,2022_Feb_21_1224,listening_fmri,3.2.4,59.891713266988965,
7,parcelated_audio/14/14_2.ogg,,,,,,,,,0,0,0,0,0,7,7,7,0,0,0,0,,,,,,,,,0,0,0,0,0,1,1,1,,,,,,,,,,,,,,,,,,,,,,,,,,,,,,,,,,,,,,,,,,,,,,,,1545.0338791640006,1551.5798707550002,,,,,,,,,,,,,,,,,,,,,,,,,,,,,,,,,,,,,,,,,,,,,,,,,,,,,,,,,,,,,,,,,,,,022122,1,3,1,3,3,1,2,0,58,2022_Feb_21_1224,listening_fmri,3.2.4,59.891713266988965,
7,parcelated_audio/14/14_3.ogg,,,,,,,,,0,0,0,0,0,7,7,7,0,0,0,0,,,,,,,,,0,0,0,0,0,2,2,2,,,,,,,,,,,,,,,,,,,,,,,,,,,,,,,,,,,,,,,,,,,,,,,,1551.5802809190009,1555.2795380950001,,,,,,,,,,,,,,,,,,,,,,,,,,,,,,,,,,,,,,,,,,,,,,,,,,,,,,,,,,,,,,,,,,,,022122,1,3,1,3,3,1,2,0,58,2022_Feb_21_1224,listening_fmri,3.2.4,59.891713266988965,
7,parcelated_audio/14/14_4.ogg,,,,,,,,,0,0,0,0,0,7,7,7,0,0,0,0,,,,,,,,,0,0,0,0,0,3,3,3,,,,,,,,,,,,,,,,,,,,,,,,,,,,,,,,,,,,,,,,,,,,,,,,1555.2798930050003,1563.2255167090007,,,,,,,,,,,,,,,,,,,,,,,,,,,,,,,,,,,,,,,,,,,,,,,,,,,,,,,,,,,,,,,,,,,,022122,1,3,1,3,3,1,2,0,58,2022_Feb_21_1224,listening_fmri,3.2.4,59.891713266988965,
7,parcelated_audio/14/14_5.ogg,,,,,,,,,0,0,0,0,0,7,7,7,0,0,0,0,,,,,,,,,0,0,0,0,0,4,4,4,,,,,,,,,,,,,,,,,,,,,,,,,,,,,,,,,,,,,,,,,,,,,,,,1563.226872532,1568.0896278120008,,,,,,,,,,,,,,,,,,,,,,,,,,,,,,,,,,,,,,,,,,,,,,,,,,,,,,,,,,,,,,,,,,,,022122,1,3,1,3,3,1,2,0,58,2022_Feb_21_1224,listening_fmri,3.2.4,59.891713266988965,
7,parcelated_audio/14/14_6.ogg,,,,,,,,,0,0,0,0,0,7,7,7,0,0,0,0,,,,,,,,,0,0,0,0,0,5,5,5,,,,,,,,,,,,,,,,,,,,,,,,,,,,,,,,,,,,,,,,,,,,,,,,1568.0900342640007,1573.9374544920001,,,,,,,,,,,,,,,,,,,,,,,,,,,,,,,,,,,,,,,,,,,,,,,,,,,,,,,,,,,,,,,,,,,,022122,1,3,1,3,3,1,2,0,58,2022_Feb_21_1224,listening_fmri,3.2.4,59.891713266988965,
7,parcelated_audio/14/14_7.ogg,,,,,,,,,0,0,0,0,0,7,7,7,0,0,0,0,,,,,,,,,0,0,0,0,0,6,6,6,,,,,,,,,,,,,,,,,,,,,,,,,,,,,,,,,,,,,,,,,,,,,,,,1573.9379021180002,1583.575984256,,,,,,,,,,,,,,,,,,,,,,,,,,,,,,,,,,,,,,,,,,,,,,,,,,,,,,,,,,,,,,,,,,,,022122,1,3,1,3,3,1,2,0,58,2022_Feb_21_1224,listening_fmri,3.2.4,59.891713266988965,
7,parcelated_audio/14/14_8.ogg,,,,,,,,,0,0,0,0,0,7,7,7,0,0,0,0,,,,,,,,,0,0,0,0,0,7,7,7,,,,,,,,,,,,,,,,,,,,,,,,,,,,,,,,,,,,,,,,,,,,,,,,1583.5771823170007,1588.8094048470002,,,,,,,,,,,,,,,,,,,,,,,,,,,,,,,,,,,,,,,,,,,,,,,,,,,,,,,,,,,,,,,,,,,,022122,1,3,1,3,3,1,2,0,58,2022_Feb_21_1224,listening_fmri,3.2.4,59.891713266988965,
7,parcelated_audio/14/14_9.ogg,,,,,,,,,0,0,0,0,0,7,7,7,0,0,0,0,,,,,,,,,0,0,0,0,0,8,8,8,,,,,,,,,,,,,,,,,,,,,,,,,,,,,,,,,,,,,,,,,,,,,,,,1588.8097555250006,1592.5557354090006,,,,,,,,,,,,,,,,,,,,,,,,,,,,,,,,,,,,,,,,,,,,,,,,,,,,,,,,,,,,,,,,,,,,022122,1,3,1,3,3,1,2,0,58,2022_Feb_21_1224,listening_fmri,3.2.4,59.891713266988965,
7,parcelated_audio/14/14_10.ogg,,,,,,,,,0,0,0,0,0,7,7,7,0,0,0,0,,,,,,,,,0,0,0,0,0,9,9,9,,,,,,,,,,,,,,,,,,,,,,,,,,,,,,,,,,,,,,,,,,,,,,,,1592.556089959,1603.8108388370001,,,,,,,,,,,,,,,,,,,,,,,,,,,,,,,,,,,,,,,,,,,,,,,,,,,,,,,,,,,,,,,,,,,,022122,1,3,1,3,3,1,2,0,58,2022_Feb_21_1224,listening_fmri,3.2.4,59.891713266988965,
7,parcelated_audio/14/14_11.ogg,,,,,,,,,0,0,0,0,0,7,7,7,0,0,0,0,,,,,,,,,0,0,0,0,0,10,10,10,,,,,,,,,,,,,,,,,,,,,,,,,,,,,,,,,,,,,,,,,,,,,,,,1603.8111940930003,1611.0244824570009,,,,,,,,,,,,,,,,,,,,,,,,,,,,,,,,,,,,,,,,,,,,,,,,,,,,,,,,,,,,,,,,,,,,022122,1,3,1,3,3,1,2,0,58,2022_Feb_21_1224,listening_fmri,3.2.4,59.891713266988965,
7,parcelated_audio/14/14_12.ogg,,,,,,,,,0,0,0,0,0,7,7,7,0,0,0,0,,,,,,,,,0,0,0,0,0,11,11,11,,,,,,,,,,,,,,,,,,,,,,,,,,,,,,,,,,,,,,,,,,,,,,,,1611.0250014190005,1619.038916472,,,,,,,,,,,,,,,,,,,,,,,,,,,,,,,,,,,,,,,,,,,,,,,,,,,,,,,,,,,,,,,,,,,,022122,1,3,1,3,3,1,2,0,58,2022_Feb_21_1224,listening_fmri,3.2.4,59.891713266988965,
7,parcelated_audio/14/14_13.ogg,,,,,,,,,0,0,0,0,0,7,7,7,0,0,0,0,,,,,,,,,0,0,0,0,0,12,12,12,,,,,,,,,,,,,,,,,,,,,,,,,,,,,,,,,,,,,,,,,,,,,,,,1619.0394534650004,1625.1614655750009,,,,,,,,,,,,,,,,,,,,,,,,,,,,,,,,,,,,,,,,,,,,,,,,,,,,,,,,,,,,,,,,,,,,022122,1,3,1,3,3,1,2,0,58,2022_Feb_21_1224,listening_fmri,3.2.4,59.891713266988965,
7,parcelated_audio/14/14_14.ogg,,,,,,,,,0,0,0,0,0,7,7,7,0,0,0,0,,,,,,,,,0,0,0,0,0,13,13,13,,,,,,,,,,,,,,,,,,,,,,,,,,,,,,,,,,,,,,,,,,,,,,,,1625.1618319880008,1631.7135174690002,,,,,,,,,,,,,,,,,,,,,,,,,,,,,,,,,,,,,,,,,,,,,,,,,,,,,,,,,,,,,,,,,,,,022122,1,3,1,3,3,1,2,0,58,2022_Feb_21_1224,listening_fmri,3.2.4,59.891713266988965,
7,parcelated_audio/14/14_15.ogg,,,,,,,,,0,0,0,0,0,7,7,7,0,0,0,0,,,,,,,,,0,0,0,0,0,14,14,14,,,,,,,,,,,,,,,,,,,,,,,,,,,,,,,,,,,,,,,,,,,,,,,,1631.7138710430008,1638.8270052760008,,,,,,,,,,,,,,,,,,,,,,,,,,,,,,,,,,,,,,,,,,,,,,,,,,,,,,,,,,,,,,,,,,,,022122,1,3,1,3,3,1,2,0,58,2022_Feb_21_1224,listening_fmri,3.2.4,59.891713266988965,
7,parcelated_audio/14/14_16.ogg,,,,,,,,,0,0,0,0,0,7,7,7,0,0,0,0,,,,,,,,,0,0,0,0,0,15,15,15,,,,,,,,,,,,,,,,,,,,,,,,,,,,,,,,,,,,,,,,,,,,,,,,1638.827449497,1644.2546733010004,,,,,,,,,,,,,,,,,,,,,,,,,,,,,,,,,,,,,,,,,,,,,,,,,,,,,,,,,,,,,,,,,,,,022122,1,3,1,3,3,1,2,0,58,2022_Feb_21_1224,listening_fmri,3.2.4,59.891713266988965,
7,parcelated_audio/14/14_17.ogg,,,,,,,,,0,0,0,0,0,7,7,7,0,0,0,0,,,,,,,,,0,0,0,0,0,16,16,16,,,,,,,,,,,,,,,,,,,,,,,,,,,,,,,,,,,,,,,,,,,,,,,,1644.2550240940009,1653.9488494630004,,,,,,,,,,,,,,,,,,,,,,,,,,,,,,,,,,,,,,,,,,,,,,,,,,,,,,,,,,,,,,,,,,,,022122,1,3,1,3,3,1,2,0,58,2022_Feb_21_1224,listening_fmri,3.2.4,59.891713266988965,
7,parcelated_audio/14/14_18.ogg,,,,,,,,,0,0,0,0,0,7,7,7,0,0,0,0,,,,,,,,,0,0,0,0,0,17,17,17,,,,,,,,,,,,,,,,,,,,,,,,,,,,,,,,,,,,,,,,,,,,,,,,1653.9492728880005,1661.5468471950007,,,,,,,,,,,,,,,,,,,,,,,,,,,,,,,,,,,,,,,,,,,,,,,,,,,,,,,,,,,,,,,,,,,,022122,1,3,1,3,3,1,2,0,58,2022_Feb_21_1224,listening_fmri,3.2.4,59.891713266988965,
7,parcelated_audio/14/14_19.ogg,,,,,,,,,0,0,0,0,0,7,7,7,0,0,0,0,,,,,,,,,0,0,0,0,0,18,18,18,,,,,,,,,,,,,,,,,,,,,,,,,,,,,,,,,,,,,,,,,,,,,,,,1661.5471854340003,1664.4048412290003,,,,,,,,,,,,,,,,,,,,,,,,,,,,,,,,,,,,,,,,,,,,,,,,,,,,,,,,,,,,,,,,,,,,022122,1,3,1,3,3,1,2,0,58,2022_Feb_21_1224,listening_fmri,3.2.4,59.891713266988965,
7,parcelated_audio/14/14_20.ogg,,,,,,,,,0,0,0,0,0,7,7,7,0,0,0,0,,,,,,,,,0,0,0,0,0,19,19,19,,,,,,,,,,,,,,,,,,,,,,,,,,,,,,,,,,,,,,,,,,,,,,,,1664.4051845180002,1666.5488002420007,,,,,,,,,,,,,,,,,,,,,,,,,,,,,,,,,,,,,,,,,,,,,,,,,,,,,,,,,,,,,,,,,,,,022122,1,3,1,3,3,1,2,0,58,2022_Feb_21_1224,listening_fmri,3.2.4,59.891713266988965,
7,parcelated_audio/14/14_21.ogg,,,,,,,,,0,0,0,0,0,7,7,7,0,0,0,0,,,,,,,,,0,0,0,0,0,20,20,20,,,,,,,,,,,,,,,,,,,,,,,,,,,,,,,,,,,,,,,,,,,,,,,,1666.5493199110006,1676.1117397800008,,,,,,,,,,,,,,,,,,,,,,,,,,,,,,,,,,,,,,,,,,,,,,,,,,,,,,,,,,,,,,,,,,,,022122,1,3,1,3,3,1,2,0,58,2022_Feb_21_1224,listening_fmri,3.2.4,59.891713266988965,
7,parcelated_audio/14/14_22.ogg,,,,,,,,,0,0,0,0,0,7,7,7,0,0,0,0,,,,,,,,,0,0,0,0,0,21,21,21,,,,,,,,,,,,,,,,,,,,,,,,,,,,,,,,,,,,,,,,,,,,,,,,1676.1120776320004,1682.4476648720001,,,,,,,,,,,,,,,,,,,,,,,,,,,,,,,,,,,,,,,,,,,,,,,,,,,,,,,,,,,,,,,,,,,,022122,1,3,1,3,3,1,2,0,58,2022_Feb_21_1224,listening_fmri,3.2.4,59.891713266988965,
7,parcelated_audio/14/14_23.ogg,,,,,,,,,0,0,0,0,0,7,7,7,0,0,0,0,,,,,,,,,0,0,0,0,0,22,22,22,,,,,,,,,,,,,,,,,,,,,,,,,,,,,,,,,,,,,,,,,,,,,,,,1682.4480024000004,1687.5133640050008,,,,,,,,,,,,,,,,,,,,,,,,,,,,,,,,,,,,,,,,,,,,,,,,,,,,,,,,,,,,,,,,,,,,022122,1,3,1,3,3,1,2,0,58,2022_Feb_21_1224,listening_fmri,3.2.4,59.891713266988965,
7,parcelated_audio/14/14_24.ogg,,,,,,,,,0,0,0,0,0,7,7,7,0,0,0,0,,,,,,,,,0,0,0,0,0,23,23,23,,,,,,,,,,,,,,,,,,,,,,,,,,,,,,,,,,,,,,,,,,,,,,,,1687.5137179310004,1698.4257864220008,,,,,,,,,,,,,,,,,,,,,,,,,,,,,,,,,,,,,,,,,,,,,,,,,,,,,,,,,,,,,,,,,,,,022122,1,3,1,3,3,1,2,0,58,2022_Feb_21_1224,listening_fmri,3.2.4,59.891713266988965,
7,parcelated_audio/14/14_25.ogg,,,,,,,,,0,0,0,0,0,7,7,7,0,0,0,0,,,,,,,,,0,0,0,0,0,24,24,24,,,,,,,,,,,,,,,,,,,,,,,,,,,,,,,,,,,,,,,,,,,,,,,,1698.4261252450005,1705.0760748190005,,,,,,,,,,,,,,,,,,,,,,,,,,,,,,,,,,,,,,,,,,,,,,,,,,,,,,,,,,,,,,,,,,,,022122,1,3,1,3,3,1,2,0,58,2022_Feb_21_1224,listening_fmri,3.2.4,59.891713266988965,
7,parcelated_audio/14/14_26.ogg,,,,,,,,,0,0,0,0,0,7,7,7,0,0,0,0,,,,,,,,,0,0,0,0,0,25,25,25,,,,,,,,,,,,,,,,,,,,,,,,,,,,,,,,,,,,,,,,,,,,,,,,1705.0765896230005,1707.2498272770008,,,,,,,,,,,,,,,,,,,,,,,,,,,,,,,,,,,,,,,,,,,,,,,,,,,,,,,,,,,,,,,,,,,,022122,1,3,1,3,3,1,2,0,58,2022_Feb_21_1224,listening_fmri,3.2.4,59.891713266988965,
7,parcelated_audio/14/14_27.ogg,,,,,,,,,0,0,0,0,0,7,7,7,0,0,0,0,,,,,,,,,0,0,0,0,0,26,26,26,,,,,,,,,,,,,,,,,,,,,,,,,,,,,,,,,,,,,,,,,,,,,,,,1707.2501712080002,1713.2663474400006,,,,,,,,,,,,,,,,,,,,,,,,,,,,,,,,,,,,,,,,,,,,,,,,,,,,,,,,,,,,,,,,,,,,022122,1,3,1,3,3,1,2,0,58,2022_Feb_21_1224,listening_fmri,3.2.4,59.891713266988965,
7,parcelated_audio/14/14_28.ogg,,,,,,,,,0,0,0,0,0,7,7,7,0,0,0,0,,,,,,,,,0,0,0,0,0,27,27,27,,,,,,,,,,,,,,,,,,,,,,,,,,,,,,,,,,,,,,,,,,,,,,,,1713.2666258970003,1716.2406929260005,,,,,,,,,,,,,,,,,,,,,,,,,,,,,,,,,,,,,,,,,,,,,,,,,,,,,,,,,,,,,,,,,,,,022122,1,3,1,3,3,1,2,0,58,2022_Feb_21_1224,listening_fmri,3.2.4,59.891713266988965,
7,parcelated_audio/14/14_29.ogg,,,,,,,,,0,0,0,0,0,7,7,7,0,0,0,0,,,,,,,,,0,0,0,0,0,28,28,28,,,,,,,,,,,,,,,,,,,,,,,,,,,,,,,,,,,,,,,,,,,,,,,,1716.2410850180004,1718.6039208870006,,,,,,,,,,,,,,,,,,,,,,,,,,,,,,,,,,,,,,,,,,,,,,,,,,,,,,,,,,,,,,,,,,,,022122,1,3,1,3,3,1,2,0,58,2022_Feb_21_1224,listening_fmri,3.2.4,59.891713266988965,
7,parcelated_audio/14/14_30.ogg,,,,,,,,,0,0,0,0,0,7,7,7,0,0,0,0,,,,,,,,,0,0,0,0,0,29,29,29,,,,,,,,,,,,,,,,,,,,,,,,,,,,,,,,,,,,,,,,,,,,,,,,1718.604261552,1722.8595080730001,,,,,,,,,,,,,,,,,,,,,,,,,,,,,,,,,,,,,,,,,,,,,,,,,,,,,,,,,,,,,,,,,,,,022122,1,3,1,3,3,1,2,0,58,2022_Feb_21_1224,listening_fmri,3.2.4,59.891713266988965,
7,parcelated_audio/14/14_31.ogg,,,,,,,,,0,0,0,0,0,7,7,7,0,0,0,0,,,,,,,,,0,0,0,0,0,30,30,30,,,,,,,,,,,,,,,,,,,,,,,,,,,,,,,,,,,,,,,,,,,,,,,,1722.8598612430005,1730.1262175240008,,,,,,,,,,,,,,,,,,,,,,,,,,,,,,,,,,,,,,,,,,,,,,,,,,,,,,,,,,,,,,,,,,,,022122,1,3,1,3,3,1,2,0,58,2022_Feb_21_1224,listening_fmri,3.2.4,59.891713266988965,
7,parcelated_audio/14/14_32.ogg,,,,,,,,,0,0,0,0,0,7,7,7,0,0,0,0,,,,,,,,,0,0,0,0,0,31,31,31,,,,,,,,,,,,,,,,,,,,,,,,,,,,,,,,,,,,,,,,,,,,,,,,1730.1266974100008,1737.2849846970003,,,,,,,,,,,,,,,,,,,,,,,,,,,,,,,,,,,,,,,,,,,,,,,,,,,,,,,,,,,,,,,,,,,,022122,1,3,1,3,3,1,2,0,58,2022_Feb_21_1224,listening_fmri,3.2.4,59.891713266988965,
7,parcelated_audio/14/14_33.ogg,,,,,,,,,0,0,0,0,0,7,7,7,0,0,0,0,,,,,,,,,0,0,0,0,0,32,32,32,,,,,,,,,,,,,,,,,,,,,,,,,,,,,,,,,,,,,,,,,,,,,,,,1737.2853348650006,1743.8430281330002,,,,,,,,,,,,,,,,,,,,,,,,,,,,,,,,,,,,,,,,,,,,,,,,,,,,,,,,,,,,,,,,,,,,022122,1,3,1,3,3,1,2,0,58,2022_Feb_21_1224,listening_fmri,3.2.4,59.891713266988965,
7,,,,,,,,,,0,0,0,0,0,7,7,7,0,0,0,0,,,,,,,,,0,0,0,0,,,,,,,,,,,,,,,,,,,,,,,,,,,,,,,,,,,,,,,,,,,,,,,,,,,,,,,,,,,,,,,,,,,,,,,,,,,,,,,,,,,,,,,,,,,,,,,,,,,,,,,,,,,,,,,,,,,,,,,,,022122,1,3,1,3,3,1,2,0,58,2022_Feb_21_1224,listening_fmri,3.2.4,59.891713266988965,
7,,,,,,,,,,0,0,0,0,0,7,7,7,0,0,0,0,,,,,,,,,,,,,,,,,,,,,,,,,,,,,,,,,,,,,,,,,,1743.8435002310007,1749.8436943100005,1794.5627699699999,None,,,,,,,,,,,,,,,,,,,,,1800.5630340899997,None,1800.5630340899997,None,,,,,,,,,,,,,,,,,,,,,,,,,,,,,,,,,,,,,,,,,,,,,,,,,,,,,,,,,,,,,,,,022122,1,3,1,3,3,1,2,0,58,2022_Feb_21_1224,listening_fmri,3.2.4,59.891713266988965,
7,,,,,,,,,,0,0,0,0,0,7,7,7,,,,,,,,,,,,,,,,,,,,,,,,,,,,,,,,,,,,,,,,,,,,,,,,,,,,,,,,,,,,,,,,,,,,,,,,,,,,,,,,,,,,,,,,,,,,,,,,,,,,,,,,,,,,,,,,,,,,,,,,,,,,,,,,,,,,,,,,,022122,1,3,1,3,3,1,2,0,58,2022_Feb_21_1224,listening_fmri,3.2.4,59.891713266988965,
,,,,,,,,,,0,0,0,0,,,,,,,,,,,,,,,,,,,,,,,,,,,,,,,,,,,,,,,,,,,,,,,,,,,,,,,,,,,,,,,,,,,,,,,,,,,,,,,,,,,,,,,,,,,,,,,,,,,,,,,,,,,,,,,,,,,,,,,,,,,,,,,,,,,,,,,,,,,,,022122,1,3,1,3,3,1,2,0,58,2022_Feb_21_1224,listening_fmri,3.2.4,59.891713266988965,
,,,,,,,,,,,,,,,,,,,,,,,,,,,,,,,,,,,,,,,,,,,,,,0,0,0,0,,,,,,,,,,,,,,,,,,,,,,,,,,,,,,,,,,,,,,,,,,,,,,,,,,,,,,,,,,,,,,,,,,,,,,,,,,,,,,,,,,,,,,,,,,,,,,,,,,,,,,,1801.5959911179998,None,022122,1,3,1,3,3,1,2,0,58,2022_Feb_21_1224,listening_fmri,3.2.4,59.891713266988965,
,,,,,,,,,,,,,,,,,,,,,,,,,,,,,,,,,,,,,,,,,,,,,,1,0,1,0,,,,,,,,,,,,,,,,,,,,,,,,,,,,,,,,,,,,,,,,,,,,,,,,,,,,,,,,,,,,,,,,,,,,,,,,,,,,,,,,,,,,,,,,,,,,,,,,,,,,,,,1802.062990546,None,022122,1,3,1,3,3,1,2,0,58,2022_Feb_21_1224,listening_fmri,3.2.4,59.891713266988965,
,,,,,,,,,,,,,,,,,,,,,,,,,,,,,,,,,,,,,,,,,,,,,,2,0,2,0,,,,,,,,,,,,,,,,,,,,,,,,,,,,,,,,,,,,,,,,,,,,,,,,,,,,,,,,,,,,,,,,,,,,,,,,,,,,,,,,,,,,,,,,,,,,,,,,,,,,,,,1802.5621852550003,1802.5621852550003,022122,1,3,1,3,3,1,2,0,58,2022_Feb_21_1224,listening_fmri,3.2.4,59.891713266988965,
,,,,,,,,,,,,,,,,,,,,,,,,,,,,,,,,,,,,,,,,,,,,,,3,0,3,0,,,,,,,,,,,,,,,,,,,,,,,,,,,,,,,,,,,,,,,,,,,,,,,,,,,,,,,,,,,,,,,,,,,,,,,,,,,,,,,,,,,,,,,,,,,,,,,,,,,,,,,1803.0630821670002,None,022122,1,3,1,3,3,1,2,0,58,2022_Feb_21_1224,listening_fmri,3.2.4,59.891713266988965,
,,,,,,,,,,,,,,,,,,,,,,,,,,,,,,,,,,,,,,,,,,,,,,4,0,4,0,,,,,,,,,,,,,,,,,,,,,,,,,,,,,,,,,,,,,,,,,,,,,,,,,,,,,,,,,,,,,,,,,,,,,,,,,,,,,,,,,,,,,,,,,,,,,,,,,,,,,,,1803.5622628869996,None,022122,1,3,1,3,3,1,2,0,58,2022_Feb_21_1224,listening_fmri,3.2.4,59.891713266988965,
