count,audio,trials_14.thisRepN,trials_14.thisTrialN,trials_14.thisN,trials_14.thisIndex,trials_3.thisRepN,trials_3.thisTrialN,trials_3.thisN,trials_3.thisIndex,trials_4.thisRepN,trials_4.thisTrialN,trials_4.thisN,trials_4.thisIndex,trials_6.thisRepN,trials_6.thisTrialN,trials_6.thisN,trials_6.thisIndex,trials_9.thisRepN,trials_9.thisTrialN,trials_9.thisN,trials_9.thisIndex,trials_10.thisRepN,trials_10.thisTrialN,trials_10.thisN,trials_10.thisIndex,trials_11.thisRepN,trials_11.thisTrialN,trials_11.thisN,trials_11.thisIndex,trials_12.thisRepN,trials_12.thisTrialN,trials_12.thisN,trials_12.thisIndex,trials_25.thisRepN,trials_25.thisTrialN,trials_25.thisN,trials_25.thisIndex,trials_15.thisRepN,trials_15.thisTrialN,trials_15.thisN,trials_15.thisIndex,trials_26.thisRepN,trials_26.thisTrialN,trials_26.thisN,trials_26.thisIndex,story_list_block2,action_list_block2,textTrigger.started,textTrigger.stopped,getTrigger.keys,getTrigger.rt,getTrigger.started,getTrigger.stopped,triggerTime,text_76.started,text_76.stopped,text_77.started,text_77.stopped,startWait,endWait,image_23.started,image_23.stopped,text_55.started,text_55.stopped,text_56.started,text_56.stopped,key_resp_2.keys,key_resp_2.rt,key_resp_2.started,key_resp_2.stopped,text_82.started,text_82.stopped,text_57.started,text_57.stopped,key_resp_17.keys,key_resp_17.rt,key_resp_17.started,key_resp_17.stopped,text_83.started,text_83.stopped,text_60.started,text_60.stopped,image_2.started,image_2.stopped,text_58.started,text_58.stopped,key_resp_23.keys,key_resp_23.rt,key_resp_23.started,key_resp_23.stopped,text_62.started,text_62.stopped,key_resp_18.keys,key_resp_18.rt,key_resp_18.started,key_resp_18.stopped,text_84.started,text_84.stopped,question1_2.started,question1_2.stopped,question2_2.started,question2_2.stopped,question3_2.started,question3_2.stopped,question4_2.started,question4_2.stopped,question5_2.started,question5_2.stopped,question6_2.started,question6_2.stopped,image_15.started,image_15.stopped,key_resp.keys,key_resp.started,key_resp.stopped,text_59.started,text_59.stopped,key_resp_19.keys,key_resp_19.rt,key_resp_19.started,key_resp_19.stopped,text_85.started,text_85.stopped,text_61.started,text_61.stopped,image_17.started,image_17.stopped,text_63.started,text_63.stopped,key_resp_24.keys,key_resp_24.rt,key_resp_24.started,key_resp_24.stopped,text_64.started,text_64.stopped,key_resp_20.keys,key_resp_20.rt,key_resp_20.started,key_resp_20.stopped,storyImage_StartTime,storyImage_EndTime,clip_StartTime,clip_EndTime,text_67.started,text_67.stopped,text_68.started,text_68.stopped,participant,sA,sB,lA,lB,block_struct,play_stories,block,behavioral,random_seed,date,expName,psychopyVersion,frameRate,
0,,,,,,,,,,0,0,0,0,0,0,0,0,0,0,0,0,0,0,0,0,0,0,0,0,,,,,,,,,,,,,,,,,[41 43 23 14 34 21 12 32],[1 3 2 1 4 4 3 2],13.253152611000587,None,equal,26.014571138000065,13.253152611000587,None,26.04074764500001,13.253152611000587,None,13.253152611000587,None,0.000310223000269616,5.998569262000274,39.28615104400069,None,45.290264365999974,None,45.290264365999974,None,1,1.0545403839996652,45.290264365999974,None,45.290264365999974,None,46.37010725500022,None,2,1.1146568980002485,46.37010725500022,None,46.37010725500022,None,47.519449086999884,None,47.519449086999884,None,47.519449086999884,None,2,0.6443642479998744,47.519449086999884,None,48.18639318800069,None,2,0.9553031799996461,48.18639318800069,None,48.18639318800069,None,49.253232269000364,None,49.253232269000364,None,49.253232269000364,None,49.253232269000364,None,49.253232269000364,None,49.253232269000364,None,49.253232269000364,None,None,49.253232269000364,None,,,,,,,,,,,,,,,,,,,,,,,,,,,,,,,,,073021,0,3,1,2,1,1,2,0,32,2021_Jul_30_1237,listening_fmri,3.2.4,60.2070872135788,
0,,,,,,,,,,0,0,0,0,0,0,0,0,0,0,0,0,0,0,0,0,,,,,,,,,,,,,,,,,,,,,,,,,,,,,,,,,,,,,,,,,,,,,,,,,,,,,,,,,,,,,,,,,,,,,,,,,,,,,,,,,,,,,,,,,,,80.35244223800055,None,1,1.1011809740002718,80.35244223800055,None,80.35244223800055,None,81.48883990500053,None,81.48883990500053,None,81.48883990500053,None,1,0.7029771779998555,81.48883990500053,None,,,,,,,,,,,,,,,073021,0,3,1,2,1,1,2,0,32,2021_Jul_30_1237,listening_fmri,3.2.4,60.2070872135788,
0,parcelated_audio/41/41_1.ogg,,,,,,,,,0,0,0,0,0,0,0,0,0,0,0,0,,,,,,,,,,,,,0,0,0,0,0,0,0,0,,,,,,,,,,,,,,,,,,,,,,,,,,,,,,,,,,,,,,,,,,,,,,,,,,,,,,,,,,,,,,,,,,,,,,,,,,,,,,,,,,,,,,,,,,,,,82.21938750500067,None,1,1.1012692180001977,82.21938750500067,None,44.10337118700045,47.115552608000144,47.124175767999986,56.24493124000037,,,,,073021,0,3,1,2,1,1,2,0,32,2021_Jul_30_1237,listening_fmri,3.2.4,60.2070872135788,
0,parcelated_audio/41/41_2.ogg,,,,,,,,,0,0,0,0,0,0,0,0,0,0,0,0,,,,,,,,,,,,,0,0,0,0,0,1,1,1,,,,,,,,,,,,,,,,,,,,,,,,,,,,,,,,,,,,,,,,,,,,,,,,,,,,,,,,,,,,,,,,,,,,,,,,,,,,,,,,,,,,,,,,,,,,,,,,,,,,,56.2452140080004,63.48762292799984,,,,,073021,0,3,1,2,1,1,2,0,32,2021_Jul_30_1237,listening_fmri,3.2.4,60.2070872135788,
0,parcelated_audio/41/41_3.ogg,,,,,,,,,0,0,0,0,0,0,0,0,0,0,0,0,,,,,,,,,,,,,0,0,0,0,0,2,2,2,,,,,,,,,,,,,,,,,,,,,,,,,,,,,,,,,,,,,,,,,,,,,,,,,,,,,,,,,,,,,,,,,,,,,,,,,,,,,,,,,,,,,,,,,,,,,,,,,,,,,63.488371791000645,67.77813538700048,,,,,073021,0,3,1,2,1,1,2,0,32,2021_Jul_30_1237,listening_fmri,3.2.4,60.2070872135788,
0,parcelated_audio/41/41_4.ogg,,,,,,,,,0,0,0,0,0,0,0,0,0,0,0,0,,,,,,,,,,,,,0,0,0,0,0,3,3,3,,,,,,,,,,,,,,,,,,,,,,,,,,,,,,,,,,,,,,,,,,,,,,,,,,,,,,,,,,,,,,,,,,,,,,,,,,,,,,,,,,,,,,,,,,,,,,,,,,,,,67.77841357299985,71.73838997300027,,,,,073021,0,3,1,2,1,1,2,0,32,2021_Jul_30_1237,listening_fmri,3.2.4,60.2070872135788,
0,parcelated_audio/41/41_5.ogg,,,,,,,,,0,0,0,0,0,0,0,0,0,0,0,0,,,,,,,,,,,,,0,0,0,0,0,4,4,4,,,,,,,,,,,,,,,,,,,,,,,,,,,,,,,,,,,,,,,,,,,,,,,,,,,,,,,,,,,,,,,,,,,,,,,,,,,,,,,,,,,,,,,,,,,,,,,,,,,,,71.73866725700009,77.86390553300043,,,,,073021,0,3,1,2,1,1,2,0,32,2021_Jul_30_1237,listening_fmri,3.2.4,60.2070872135788,
0,parcelated_audio/41/41_6.ogg,,,,,,,,,0,0,0,0,0,0,0,0,0,0,0,0,,,,,,,,,,,,,0,0,0,0,0,5,5,5,,,,,,,,,,,,,,,,,,,,,,,,,,,,,,,,,,,,,,,,,,,,,,,,,,,,,,,,,,,,,,,,,,,,,,,,,,,,,,,,,,,,,,,,,,,,,,,,,,,,,77.86431475000063,87.7860986149999,,,,,073021,0,3,1,2,1,1,2,0,32,2021_Jul_30_1237,listening_fmri,3.2.4,60.2070872135788,
0,parcelated_audio/41/41_7.ogg,,,,,,,,,0,0,0,0,0,0,0,0,0,0,0,0,,,,,,,,,,,,,0,0,0,0,0,6,6,6,,,,,,,,,,,,,,,,,,,,,,,,,,,,,,,,,,,,,,,,,,,,,,,,,,,,,,,,,,,,,,,,,,,,,,,,,,,,,,,,,,,,,,,,,,,,,,,,,,,,,87.78640662199996,95.50399607100007,,,,,073021,0,3,1,2,1,1,2,0,32,2021_Jul_30_1237,listening_fmri,3.2.4,60.2070872135788,
0,parcelated_audio/41/41_8.ogg,,,,,,,,,0,0,0,0,0,0,0,0,0,0,0,0,,,,,,,,,,,,,0,0,0,0,0,7,7,7,,,,,,,,,,,,,,,,,,,,,,,,,,,,,,,,,,,,,,,,,,,,,,,,,,,,,,,,,,,,,,,,,,,,,,,,,,,,,,,,,,,,,,,,,,,,,,,,,,,,,95.50435141100024,99.73851699500028,,,,,073021,0,3,1,2,1,1,2,0,32,2021_Jul_30_1237,listening_fmri,3.2.4,60.2070872135788,
0,parcelated_audio/41/41_9.ogg,,,,,,,,,0,0,0,0,0,0,0,0,0,0,0,0,,,,,,,,,,,,,0,0,0,0,0,8,8,8,,,,,,,,,,,,,,,,,,,,,,,,,,,,,,,,,,,,,,,,,,,,,,,,,,,,,,,,,,,,,,,,,,,,,,,,,,,,,,,,,,,,,,,,,,,,,,,,,,,,,99.73937952400047,109.3891342070001,,,,,073021,0,3,1,2,1,1,2,0,32,2021_Jul_30_1237,listening_fmri,3.2.4,60.2070872135788,
0,parcelated_audio/41/41_10.ogg,,,,,,,,,0,0,0,0,0,0,0,0,0,0,0,0,,,,,,,,,,,,,0,0,0,0,0,9,9,9,,,,,,,,,,,,,,,,,,,,,,,,,,,,,,,,,,,,,,,,,,,,,,,,,,,,,,,,,,,,,,,,,,,,,,,,,,,,,,,,,,,,,,,,,,,,,,,,,,,,,109.38949221400071,115.90119518900065,,,,,073021,0,3,1,2,1,1,2,0,32,2021_Jul_30_1237,listening_fmri,3.2.4,60.2070872135788,
0,parcelated_audio/41/41_11.ogg,,,,,,,,,0,0,0,0,0,0,0,0,0,0,0,0,,,,,,,,,,,,,0,0,0,0,0,10,10,10,,,,,,,,,,,,,,,,,,,,,,,,,,,,,,,,,,,,,,,,,,,,,,,,,,,,,,,,,,,,,,,,,,,,,,,,,,,,,,,,,,,,,,,,,,,,,,,,,,,,,115.90155314700041,119.66612648400042,,,,,073021,0,3,1,2,1,1,2,0,32,2021_Jul_30_1237,listening_fmri,3.2.4,60.2070872135788,
0,parcelated_audio/41/41_12.ogg,,,,,,,,,0,0,0,0,0,0,0,0,0,0,0,0,,,,,,,,,,,,,0,0,0,0,0,11,11,11,,,,,,,,,,,,,,,,,,,,,,,,,,,,,,,,,,,,,,,,,,,,,,,,,,,,,,,,,,,,,,,,,,,,,,,,,,,,,,,,,,,,,,,,,,,,,,,,,,,,,119.66656069800047,129.40916705400014,,,,,073021,0,3,1,2,1,1,2,0,32,2021_Jul_30_1237,listening_fmri,3.2.4,60.2070872135788,
0,parcelated_audio/41/41_13.ogg,,,,,,,,,0,0,0,0,0,0,0,0,0,0,0,0,,,,,,,,,,,,,0,0,0,0,0,12,12,12,,,,,,,,,,,,,,,,,,,,,,,,,,,,,,,,,,,,,,,,,,,,,,,,,,,,,,,,,,,,,,,,,,,,,,,,,,,,,,,,,,,,,,,,,,,,,,,,,,,,,129.4102813340005,135.22511122800006,,,,,073021,0,3,1,2,1,1,2,0,32,2021_Jul_30_1237,listening_fmri,3.2.4,60.2070872135788,
0,parcelated_audio/41/41_14.ogg,,,,,,,,,0,0,0,0,0,0,0,0,0,0,0,0,,,,,,,,,,,,,0,0,0,0,0,13,13,13,,,,,,,,,,,,,,,,,,,,,,,,,,,,,,,,,,,,,,,,,,,,,,,,,,,,,,,,,,,,,,,,,,,,,,,,,,,,,,,,,,,,,,,,,,,,,,,,,,,,,135.2254704269999,142.45415532800052,,,,,073021,0,3,1,2,1,1,2,0,32,2021_Jul_30_1237,listening_fmri,3.2.4,60.2070872135788,
0,parcelated_audio/41/41_15.ogg,,,,,,,,,0,0,0,0,0,0,0,0,0,0,0,0,,,,,,,,,,,,,0,0,0,0,0,14,14,14,,,,,,,,,,,,,,,,,,,,,,,,,,,,,,,,,,,,,,,,,,,,,,,,,,,,,,,,,,,,,,,,,,,,,,,,,,,,,,,,,,,,,,,,,,,,,,,,,,,,,142.45454661500025,145.87011185000028,,,,,073021,0,3,1,2,1,1,2,0,32,2021_Jul_30_1237,listening_fmri,3.2.4,60.2070872135788,
0,parcelated_audio/41/41_16.ogg,,,,,,,,,0,0,0,0,0,0,0,0,0,0,0,0,,,,,,,,,,,,,0,0,0,0,0,15,15,15,,,,,,,,,,,,,,,,,,,,,,,,,,,,,,,,,,,,,,,,,,,,,,,,,,,,,,,,,,,,,,,,,,,,,,,,,,,,,,,,,,,,,,,,,,,,,,,,,,,,,145.87044481300018,150.73808625200036,,,,,073021,0,3,1,2,1,1,2,0,32,2021_Jul_30_1237,listening_fmri,3.2.4,60.2070872135788,
0,parcelated_audio/41/41_17.ogg,,,,,,,,,0,0,0,0,0,0,0,0,0,0,0,0,,,,,,,,,,,,,0,0,0,0,0,16,16,16,,,,,,,,,,,,,,,,,,,,,,,,,,,,,,,,,,,,,,,,,,,,,,,,,,,,,,,,,,,,,,,,,,,,,,,,,,,,,,,,,,,,,,,,,,,,,,,,,,,,,150.73842714200055,154.91172695800014,,,,,073021,0,3,1,2,1,1,2,0,32,2021_Jul_30_1237,listening_fmri,3.2.4,60.2070872135788,
0,parcelated_audio/41/41_18.ogg,,,,,,,,,0,0,0,0,0,0,0,0,0,0,0,0,,,,,,,,,,,,,0,0,0,0,0,17,17,17,,,,,,,,,,,,,,,,,,,,,,,,,,,,,,,,,,,,,,,,,,,,,,,,,,,,,,,,,,,,,,,,,,,,,,,,,,,,,,,,,,,,,,,,,,,,,,,,,,,,,154.91201930900024,157.54793750499994,,,,,073021,0,3,1,2,1,1,2,0,32,2021_Jul_30_1237,listening_fmri,3.2.4,60.2070872135788,
0,parcelated_audio/41/41_19.ogg,,,,,,,,,0,0,0,0,0,0,0,0,0,0,0,0,,,,,,,,,,,,,0,0,0,0,0,18,18,18,,,,,,,,,,,,,,,,,,,,,,,,,,,,,,,,,,,,,,,,,,,,,,,,,,,,,,,,,,,,,,,,,,,,,,,,,,,,,,,,,,,,,,,,,,,,,,,,,,,,,157.54821952200018,164.4378286380006,,,,,073021,0,3,1,2,1,1,2,0,32,2021_Jul_30_1237,listening_fmri,3.2.4,60.2070872135788,
0,parcelated_audio/41/41_20.ogg,,,,,,,,,0,0,0,0,0,0,0,0,0,0,0,0,,,,,,,,,,,,,0,0,0,0,0,19,19,19,,,,,,,,,,,,,,,,,,,,,,,,,,,,,,,,,,,,,,,,,,,,,,,,,,,,,,,,,,,,,,,,,,,,,,,,,,,,,,,,,,,,,,,,,,,,,,,,,,,,,164.43820140700063,169.36475535200043,,,,,073021,0,3,1,2,1,1,2,0,32,2021_Jul_30_1237,listening_fmri,3.2.4,60.2070872135788,
0,parcelated_audio/41/41_21.ogg,,,,,,,,,0,0,0,0,0,0,0,0,0,0,0,0,,,,,,,,,,,,,0,0,0,0,0,20,20,20,,,,,,,,,,,,,,,,,,,,,,,,,,,,,,,,,,,,,,,,,,,,,,,,,,,,,,,,,,,,,,,,,,,,,,,,,,,,,,,,,,,,,,,,,,,,,,,,,,,,,169.36515070299993,177.17563689800045,,,,,073021,0,3,1,2,1,1,2,0,32,2021_Jul_30_1237,listening_fmri,3.2.4,60.2070872135788,
0,parcelated_audio/41/41_22.ogg,,,,,,,,,0,0,0,0,0,0,0,0,0,0,0,0,,,,,,,,,,,,,0,0,0,0,0,21,21,21,,,,,,,,,,,,,,,,,,,,,,,,,,,,,,,,,,,,,,,,,,,,,,,,,,,,,,,,,,,,,,,,,,,,,,,,,,,,,,,,,,,,,,,,,,,,,,,,,,,,,177.17592530000002,192.9709502960004,,,,,073021,0,3,1,2,1,1,2,0,32,2021_Jul_30_1237,listening_fmri,3.2.4,60.2070872135788,
0,parcelated_audio/41/41_23.ogg,,,,,,,,,0,0,0,0,0,0,0,0,0,0,0,0,,,,,,,,,,,,,0,0,0,0,0,22,22,22,,,,,,,,,,,,,,,,,,,,,,,,,,,,,,,,,,,,,,,,,,,,,,,,,,,,,,,,,,,,,,,,,,,,,,,,,,,,,,,,,,,,,,,,,,,,,,,,,,,,,192.97122959800072,198.95950399200046,,,,,073021,0,3,1,2,1,1,2,0,32,2021_Jul_30_1237,listening_fmri,3.2.4,60.2070872135788,
0,parcelated_audio/41/41_24.ogg,,,,,,,,,0,0,0,0,0,0,0,0,0,0,0,0,,,,,,,,,,,,,0,0,0,0,0,23,23,23,,,,,,,,,,,,,,,,,,,,,,,,,,,,,,,,,,,,,,,,,,,,,,,,,,,,,,,,,,,,,,,,,,,,,,,,,,,,,,,,,,,,,,,,,,,,,,,,,,,,,198.9598670430005,205.60246077800002,,,,,073021,0,3,1,2,1,1,2,0,32,2021_Jul_30_1237,listening_fmri,3.2.4,60.2070872135788,
0,parcelated_audio/41/41_25.ogg,,,,,,,,,0,0,0,0,0,0,0,0,0,0,0,0,,,,,,,,,,,,,0,0,0,0,0,24,24,24,,,,,,,,,,,,,,,,,,,,,,,,,,,,,,,,,,,,,,,,,,,,,,,,,,,,,,,,,,,,,,,,,,,,,,,,,,,,,,,,,,,,,,,,,,,,,,,,,,,,,205.60273820200018,208.95904064300066,,,,,073021,0,3,1,2,1,1,2,0,32,2021_Jul_30_1237,listening_fmri,3.2.4,60.2070872135788,
0,parcelated_audio/41/41_26.ogg,,,,,,,,,0,0,0,0,0,0,0,0,0,0,0,0,,,,,,,,,,,,,0,0,0,0,0,25,25,25,,,,,,,,,,,,,,,,,,,,,,,,,,,,,,,,,,,,,,,,,,,,,,,,,,,,,,,,,,,,,,,,,,,,,,,,,,,,,,,,,,,,,,,,,,,,,,,,,,,,,208.95936331400026,214.47073904700028,,,,,073021,0,3,1,2,1,1,2,0,32,2021_Jul_30_1237,listening_fmri,3.2.4,60.2070872135788,
0,parcelated_audio/41/41_27.ogg,,,,,,,,,0,0,0,0,0,0,0,0,0,0,0,0,,,,,,,,,,,,,0,0,0,0,0,26,26,26,,,,,,,,,,,,,,,,,,,,,,,,,,,,,,,,,,,,,,,,,,,,,,,,,,,,,,,,,,,,,,,,,,,,,,,,,,,,,,,,,,,,,,,,,,,,,,,,,,,,,214.47143001899985,218.3318643550001,,,,,073021,0,3,1,2,1,1,2,0,32,2021_Jul_30_1237,listening_fmri,3.2.4,60.2070872135788,
0,parcelated_audio/41/41_28.ogg,,,,,,,,,0,0,0,0,0,0,0,0,0,0,0,0,,,,,,,,,,,,,0,0,0,0,0,27,27,27,,,,,,,,,,,,,,,,,,,,,,,,,,,,,,,,,,,,,,,,,,,,,,,,,,,,,,,,,,,,,,,,,,,,,,,,,,,,,,,,,,,,,,,,,,,,,,,,,,,,,218.33221156900072,226.6777296780001,,,,,073021,0,3,1,2,1,1,2,0,32,2021_Jul_30_1237,listening_fmri,3.2.4,60.2070872135788,
0,parcelated_audio/41/41_29.ogg,,,,,,,,,0,0,0,0,0,0,0,0,0,0,0,0,,,,,,,,,,,,,0,0,0,0,0,28,28,28,,,,,,,,,,,,,,,,,,,,,,,,,,,,,,,,,,,,,,,,,,,,,,,,,,,,,,,,,,,,,,,,,,,,,,,,,,,,,,,,,,,,,,,,,,,,,,,,,,,,,226.6782966260007,233.29879268700006,,,,,073021,0,3,1,2,1,1,2,0,32,2021_Jul_30_1237,listening_fmri,3.2.4,60.2070872135788,
0,parcelated_audio/41/41_30.ogg,,,,,,,,,0,0,0,0,0,0,0,0,0,0,0,0,,,,,,,,,,,,,0,0,0,0,0,29,29,29,,,,,,,,,,,,,,,,,,,,,,,,,,,,,,,,,,,,,,,,,,,,,,,,,,,,,,,,,,,,,,,,,,,,,,,,,,,,,,,,,,,,,,,,,,,,,,,,,,,,,233.2992898450002,242.01567634999992,,,,,073021,0,3,1,2,1,1,2,0,32,2021_Jul_30_1237,listening_fmri,3.2.4,60.2070872135788,
0,parcelated_audio/41/41_31.ogg,,,,,,,,,0,0,0,0,0,0,0,0,0,0,0,0,,,,,,,,,,,,,0,0,0,0,0,30,30,30,,,,,,,,,,,,,,,,,,,,,,,,,,,,,,,,,,,,,,,,,,,,,,,,,,,,,,,,,,,,,,,,,,,,,,,,,,,,,,,,,,,,,,,,,,,,,,,,,,,,,242.0160403990003,252.7508426130007,,,,,073021,0,3,1,2,1,1,2,0,32,2021_Jul_30_1237,listening_fmri,3.2.4,60.2070872135788,
0,parcelated_audio/41/41_32.ogg,,,,,,,,,0,0,0,0,0,0,0,0,0,0,0,0,,,,,,,,,,,,,0,0,0,0,0,31,31,31,,,,,,,,,,,,,,,,,,,,,,,,,,,,,,,,,,,,,,,,,,,,,,,,,,,,,,,,,,,,,,,,,,,,,,,,,,,,,,,,,,,,,,,,,,,,,,,,,,,,,252.75131949800016,261.0932016300003,,,,,073021,0,3,1,2,1,1,2,0,32,2021_Jul_30_1237,listening_fmri,3.2.4,60.2070872135788,
0,parcelated_audio/41/41_33.ogg,,,,,,,,,0,0,0,0,0,0,0,0,0,0,0,0,,,,,,,,,,,,,0,0,0,0,0,32,32,32,,,,,,,,,,,,,,,,,,,,,,,,,,,,,,,,,,,,,,,,,,,,,,,,,,,,,,,,,,,,,,,,,,,,,,,,,,,,,,,,,,,,,,,,,,,,,,,,,,,,,261.0935578050003,265.16478704400015,,,,,073021,0,3,1,2,1,1,2,0,32,2021_Jul_30_1237,listening_fmri,3.2.4,60.2070872135788,
0,parcelated_audio/41/41_34.ogg,,,,,,,,,0,0,0,0,0,0,0,0,0,0,0,0,,,,,,,,,,,,,0,0,0,0,0,33,33,33,,,,,,,,,,,,,,,,,,,,,,,,,,,,,,,,,,,,,,,,,,,,,,,,,,,,,,,,,,,,,,,,,,,,,,,,,,,,,,,,,,,,,,,,,,,,,,,,,,,,,265.16514597700007,270.68258005999996,,,,,073021,0,3,1,2,1,1,2,0,32,2021_Jul_30_1237,listening_fmri,3.2.4,60.2070872135788,
0,parcelated_audio/41/41_35.ogg,,,,,,,,,0,0,0,0,0,0,0,0,0,0,0,0,,,,,,,,,,,,,0,0,0,0,0,34,34,34,,,,,,,,,,,,,,,,,,,,,,,,,,,,,,,,,,,,,,,,,,,,,,,,,,,,,,,,,,,,,,,,,,,,,,,,,,,,,,,,,,,,,,,,,,,,,,,,,,,,,270.6828758070005,276.24818982800025,,,,,073021,0,3,1,2,1,1,2,0,32,2021_Jul_30_1237,listening_fmri,3.2.4,60.2070872135788,
0,parcelated_audio/41/41_36.ogg,,,,,,,,,0,0,0,0,0,0,0,0,0,0,0,0,,,,,,,,,,,,,0,0,0,0,0,35,35,35,,,,,,,,,,,,,,,,,,,,,,,,,,,,,,,,,,,,,,,,,,,,,,,,,,,,,,,,,,,,,,,,,,,,,,,,,,,,,,,,,,,,,,,,,,,,,,,,,,,,,276.2485625590007,283.26696984200044,,,,,073021,0,3,1,2,1,1,2,0,32,2021_Jul_30_1237,listening_fmri,3.2.4,60.2070872135788,
0,parcelated_audio/41/41_37.ogg,,,,,,,,,0,0,0,0,0,0,0,0,0,0,0,0,,,,,,,,,,,,,0,0,0,0,0,36,36,36,,,,,,,,,,,,,,,,,,,,,,,,,,,,,,,,,,,,,,,,,,,,,,,,,,,,,,,,,,,,,,,,,,,,,,,,,,,,,,,,,,,,,,,,,,,,,,,,,,,,,283.267385829,288.76606351100054,,,,,073021,0,3,1,2,1,1,2,0,32,2021_Jul_30_1237,listening_fmri,3.2.4,60.2070872135788,
0,,,,,,,,,,0,0,0,0,0,0,0,0,0,0,0,0,,,,,,,,,,,,,0,0,0,0,,,,,,,,,,,,,,,,,,,,,,,,,,,,,,,,,,,,,,,,,,,,,,,,,,,,,,,,,,,,,,,,,,,,,,,,,,,,,,,,,,,,,,,,,,,,,,,,,,,,,,,,,,,,,,,073021,0,3,1,2,1,1,2,0,32,2021_Jul_30_1237,listening_fmri,3.2.4,60.2070872135788,
,,,,,,,,,,,,,,,,,,,,,,,,,,,,,,,,,,,,,,,,,,,,,,,,,,,,,,,,,,,288.76648747299987,294.7661188230004,328.0534906440007,None,,,,,,,,,,,,,,,,,,,,,,,,,,,,,,,,,,,,,,,,,,,,,,,,,,,,,,,,,,,,,,,,,,,,,,,,,,,,,,,,,,334.0535285190998,None,334.0535285190998,None,,,,,,,,,,,,,,,
﻿count,audio,trials_14.thisRepN,trials_14.thisTrialN,trials_14.thisN,trials_14.thisIndex,trials_3.thisRepN,trials_3.thisTrialN,trials_3.thisN,trials_3.thisIndex,trials_4.thisRepN,trials_4.thisTrialN,trials_4.thisN,trials_4.thisIndex,trials_6.thisRepN,trials_6.thisTrialN,trials_6.thisN,trials_6.thisIndex,trials_9.thisRepN,trials_9.thisTrialN,trials_9.thisN,trials_9.thisIndex,trials_10.thisRepN,trials_10.thisTrialN,trials_10.thisN,trials_10.thisIndex,trials_11.thisRepN,trials_11.thisTrialN,trials_11.thisN,trials_11.thisIndex,trials_12.thisRepN,trials_12.thisTrialN,trials_12.thisN,trials_12.thisIndex,trials_25.thisRepN,trials_25.thisTrialN,trials_25.thisN,trials_25.thisIndex,trials_15.thisRepN,trials_15.thisTrialN,trials_15.thisN,trials_15.thisIndex,trials_26.thisRepN,trials_26.thisTrialN,trials_26.thisN,trials_26.thisIndex,story_list_block2,action_list_block2,textTrigger.started,textTrigger.stopped,getTrigger.keys,getTrigger.rt,getTrigger.started,getTrigger.stopped,triggerTime,text_76.started,text_76.stopped,text_77.started,text_77.stopped,startWait,endWait,image_23.started,image_23.stopped,text_55.started,text_55.stopped,text_56.started,text_56.stopped,key_resp_2.keys,key_resp_2.rt,key_resp_2.started,key_resp_2.stopped,text_82.started,text_82.stopped,text_57.started,text_57.stopped,key_resp_17.keys,key_resp_17.rt,key_resp_17.started,key_resp_17.stopped,text_83.started,text_83.stopped,text_60.started,text_60.stopped,image_2.started,image_2.stopped,text_58.started,text_58.stopped,key_resp_23.keys,key_resp_23.rt,key_resp_23.started,key_resp_23.stopped,text_62.started,text_62.stopped,key_resp_18.keys,key_resp_18.rt,key_resp_18.started,key_resp_18.stopped,text_84.started,text_84.stopped,question1_2.started,question1_2.stopped,question2_2.started,question2_2.stopped,question3_2.started,question3_2.stopped,question4_2.started,question4_2.stopped,question5_2.started,question5_2.stopped,question6_2.started,question6_2.stopped,image_15.started,image_15.stopped,key_resp.keys,key_resp.started,key_resp.stopped,text_59.started,text_59.stopped,key_resp_19.keys,key_resp_19.rt,key_resp_19.started,key_resp_19.stopped,text_85.started,text_85.stopped,text_61.started,text_61.stopped,image_17.started,image_17.stopped,text_63.started,text_63.stopped,key_resp_24.keys,key_resp_24.rt,key_resp_24.started,key_resp_24.stopped,text_64.started,text_64.stopped,key_resp_20.keys,key_resp_20.rt,key_resp_20.started,key_resp_20.stopped,storyImage_StartTime,storyImage_EndTime,clip_StartTime,clip_EndTime,text_67.started,text_67.stopped,text_68.started,text_68.stopped,participant,sA,sB,lA,lB,block_struct,play_stories,block,behavioral,random_seed,date,expName,psychopyVersion,frameRate,
0,,,,,,,,,,0,0,0,0,0,0,0,0,0,0,0,0,0,0,0,0,0,0,0,0,,,,,,,,,,,,,,,,,[41 43 23 14 34 21 12 32],[1 3 2 1 4 4 3 2],13.253152611000587,None,equal,26.014571138000065,13.253152611000587,None,26.04074764500001,13.253152611000587,None,13.253152611000587,None,0.000310223000269616,5.998569262000274,39.28615104400069,None,45.290264365999974,None,45.290264365999974,None,1,1.0545403839996652,45.290264365999974,None,45.290264365999974,None,46.37010725500022,None,2,1.1146568980002485,46.37010725500022,None,46.37010725500022,None,47.519449086999884,None,47.519449086999884,None,47.519449086999884,None,2,0.6443642479998744,47.519449086999884,None,48.18639318800069,None,2,0.9553031799996461,48.18639318800069,None,48.18639318800069,None,49.253232269000364,None,49.253232269000364,None,49.253232269000364,None,49.253232269000364,None,49.253232269000364,None,49.253232269000364,None,49.253232269000364,None,None,49.253232269000364,None,,,,,,,,,,,,,,,,,,,,,,,,,,,,,,,,,073021,0,3,1,2,1,1,2,0,32,2021_Jul_30_1237,listening_fmri,3.2.4,60.2070872135788,
0,,,,,,,,,,0,0,0,0,0,0,0,0,0,0,0,0,0,0,0,0,,,,,,,,,,,,,,,,,,,,,,,,,,,,,,,,,,,,,,,,,,,,,,,,,,,,,,,,,,,,,,,,,,,,,,,,,,,,,,,,,,,,,,,,,,,80.35244223800055,None,1,1.1011809740002718,80.35244223800055,None,80.35244223800055,None,81.48883990500053,None,81.48883990500053,None,81.48883990500053,None,1,0.7029771779998555,81.48883990500053,None,,,,,,,,,,,,,,,073021,0,3,1,2,1,1,2,0,32,2021_Jul_30_1237,listening_fmri,3.2.4,60.2070872135788,
0,parcelated_audio/41/41_1.ogg,,,,,,,,,0,0,0,0,0,0,0,0,0,0,0,0,,,,,,,,,,,,,0,0,0,0,0,0,0,0,,,,,,,,,,,,,,,,,,,,,,,,,,,,,,,,,,,,,,,,,,,,,,,,,,,,,,,,,,,,,,,,,,,,,,,,,,,,,,,,,,,,,,,,,,,,,82.21938750500067,None,1,1.1012692180001977,82.21938750500067,None,44.10337118700045,47.115552608000144,47.124175767999986,56.24493124000037,,,,,073021,0,3,1,2,1,1,2,0,32,2021_Jul_30_1237,listening_fmri,3.2.4,60.2070872135788,
0,parcelated_audio/41/41_2.ogg,,,,,,,,,0,0,0,0,0,0,0,0,0,0,0,0,,,,,,,,,,,,,0,0,0,0,0,1,1,1,,,,,,,,,,,,,,,,,,,,,,,,,,,,,,,,,,,,,,,,,,,,,,,,,,,,,,,,,,,,,,,,,,,,,,,,,,,,,,,,,,,,,,,,,,,,,,,,,,,,,56.2452140080004,63.48762292799984,,,,,073021,0,3,1,2,1,1,2,0,32,2021_Jul_30_1237,listening_fmri,3.2.4,60.2070872135788,
0,parcelated_audio/41/41_3.ogg,,,,,,,,,0,0,0,0,0,0,0,0,0,0,0,0,,,,,,,,,,,,,0,0,0,0,0,2,2,2,,,,,,,,,,,,,,,,,,,,,,,,,,,,,,,,,,,,,,,,,,,,,,,,,,,,,,,,,,,,,,,,,,,,,,,,,,,,,,,,,,,,,,,,,,,,,,,,,,,,,63.488371791000645,67.77813538700048,,,,,073021,0,3,1,2,1,1,2,0,32,2021_Jul_30_1237,listening_fmri,3.2.4,60.2070872135788,
0,parcelated_audio/41/41_4.ogg,,,,,,,,,0,0,0,0,0,0,0,0,0,0,0,0,,,,,,,,,,,,,0,0,0,0,0,3,3,3,,,,,,,,,,,,,,,,,,,,,,,,,,,,,,,,,,,,,,,,,,,,,,,,,,,,,,,,,,,,,,,,,,,,,,,,,,,,,,,,,,,,,,,,,,,,,,,,,,,,,67.77841357299985,71.73838997300027,,,,,073021,0,3,1,2,1,1,2,0,32,2021_Jul_30_1237,listening_fmri,3.2.4,60.2070872135788,
0,parcelated_audio/41/41_5.ogg,,,,,,,,,0,0,0,0,0,0,0,0,0,0,0,0,,,,,,,,,,,,,0,0,0,0,0,4,4,4,,,,,,,,,,,,,,,,,,,,,,,,,,,,,,,,,,,,,,,,,,,,,,,,,,,,,,,,,,,,,,,,,,,,,,,,,,,,,,,,,,,,,,,,,,,,,,,,,,,,,71.73866725700009,77.86390553300043,,,,,073021,0,3,1,2,1,1,2,0,32,2021_Jul_30_1237,listening_fmri,3.2.4,60.2070872135788,
0,parcelated_audio/41/41_6.ogg,,,,,,,,,0,0,0,0,0,0,0,0,0,0,0,0,,,,,,,,,,,,,0,0,0,0,0,5,5,5,,,,,,,,,,,,,,,,,,,,,,,,,,,,,,,,,,,,,,,,,,,,,,,,,,,,,,,,,,,,,,,,,,,,,,,,,,,,,,,,,,,,,,,,,,,,,,,,,,,,,77.86431475000063,87.7860986149999,,,,,073021,0,3,1,2,1,1,2,0,32,2021_Jul_30_1237,listening_fmri,3.2.4,60.2070872135788,
0,parcelated_audio/41/41_7.ogg,,,,,,,,,0,0,0,0,0,0,0,0,0,0,0,0,,,,,,,,,,,,,0,0,0,0,0,6,6,6,,,,,,,,,,,,,,,,,,,,,,,,,,,,,,,,,,,,,,,,,,,,,,,,,,,,,,,,,,,,,,,,,,,,,,,,,,,,,,,,,,,,,,,,,,,,,,,,,,,,,87.78640662199996,95.50399607100007,,,,,073021,0,3,1,2,1,1,2,0,32,2021_Jul_30_1237,listening_fmri,3.2.4,60.2070872135788,
0,parcelated_audio/41/41_8.ogg,,,,,,,,,0,0,0,0,0,0,0,0,0,0,0,0,,,,,,,,,,,,,0,0,0,0,0,7,7,7,,,,,,,,,,,,,,,,,,,,,,,,,,,,,,,,,,,,,,,,,,,,,,,,,,,,,,,,,,,,,,,,,,,,,,,,,,,,,,,,,,,,,,,,,,,,,,,,,,,,,95.50435141100024,99.73851699500028,,,,,073021,0,3,1,2,1,1,2,0,32,2021_Jul_30_1237,listening_fmri,3.2.4,60.2070872135788,
0,parcelated_audio/41/41_9.ogg,,,,,,,,,0,0,0,0,0,0,0,0,0,0,0,0,,,,,,,,,,,,,0,0,0,0,0,8,8,8,,,,,,,,,,,,,,,,,,,,,,,,,,,,,,,,,,,,,,,,,,,,,,,,,,,,,,,,,,,,,,,,,,,,,,,,,,,,,,,,,,,,,,,,,,,,,,,,,,,,,99.73937952400047,109.3891342070001,,,,,073021,0,3,1,2,1,1,2,0,32,2021_Jul_30_1237,listening_fmri,3.2.4,60.2070872135788,
0,parcelated_audio/41/41_10.ogg,,,,,,,,,0,0,0,0,0,0,0,0,0,0,0,0,,,,,,,,,,,,,0,0,0,0,0,9,9,9,,,,,,,,,,,,,,,,,,,,,,,,,,,,,,,,,,,,,,,,,,,,,,,,,,,,,,,,,,,,,,,,,,,,,,,,,,,,,,,,,,,,,,,,,,,,,,,,,,,,,109.38949221400071,115.90119518900065,,,,,073021,0,3,1,2,1,1,2,0,32,2021_Jul_30_1237,listening_fmri,3.2.4,60.2070872135788,
0,parcelated_audio/41/41_11.ogg,,,,,,,,,0,0,0,0,0,0,0,0,0,0,0,0,,,,,,,,,,,,,0,0,0,0,0,10,10,10,,,,,,,,,,,,,,,,,,,,,,,,,,,,,,,,,,,,,,,,,,,,,,,,,,,,,,,,,,,,,,,,,,,,,,,,,,,,,,,,,,,,,,,,,,,,,,,,,,,,,115.90155314700041,119.66612648400042,,,,,073021,0,3,1,2,1,1,2,0,32,2021_Jul_30_1237,listening_fmri,3.2.4,60.2070872135788,
0,parcelated_audio/41/41_12.ogg,,,,,,,,,0,0,0,0,0,0,0,0,0,0,0,0,,,,,,,,,,,,,0,0,0,0,0,11,11,11,,,,,,,,,,,,,,,,,,,,,,,,,,,,,,,,,,,,,,,,,,,,,,,,,,,,,,,,,,,,,,,,,,,,,,,,,,,,,,,,,,,,,,,,,,,,,,,,,,,,,119.66656069800047,129.40916705400014,,,,,073021,0,3,1,2,1,1,2,0,32,2021_Jul_30_1237,listening_fmri,3.2.4,60.2070872135788,
0,parcelated_audio/41/41_13.ogg,,,,,,,,,0,0,0,0,0,0,0,0,0,0,0,0,,,,,,,,,,,,,0,0,0,0,0,12,12,12,,,,,,,,,,,,,,,,,,,,,,,,,,,,,,,,,,,,,,,,,,,,,,,,,,,,,,,,,,,,,,,,,,,,,,,,,,,,,,,,,,,,,,,,,,,,,,,,,,,,,129.4102813340005,135.22511122800006,,,,,073021,0,3,1,2,1,1,2,0,32,2021_Jul_30_1237,listening_fmri,3.2.4,60.2070872135788,
0,parcelated_audio/41/41_14.ogg,,,,,,,,,0,0,0,0,0,0,0,0,0,0,0,0,,,,,,,,,,,,,0,0,0,0,0,13,13,13,,,,,,,,,,,,,,,,,,,,,,,,,,,,,,,,,,,,,,,,,,,,,,,,,,,,,,,,,,,,,,,,,,,,,,,,,,,,,,,,,,,,,,,,,,,,,,,,,,,,,135.2254704269999,142.45415532800052,,,,,073021,0,3,1,2,1,1,2,0,32,2021_Jul_30_1237,listening_fmri,3.2.4,60.2070872135788,
0,parcelated_audio/41/41_15.ogg,,,,,,,,,0,0,0,0,0,0,0,0,0,0,0,0,,,,,,,,,,,,,0,0,0,0,0,14,14,14,,,,,,,,,,,,,,,,,,,,,,,,,,,,,,,,,,,,,,,,,,,,,,,,,,,,,,,,,,,,,,,,,,,,,,,,,,,,,,,,,,,,,,,,,,,,,,,,,,,,,142.45454661500025,145.87011185000028,,,,,073021,0,3,1,2,1,1,2,0,32,2021_Jul_30_1237,listening_fmri,3.2.4,60.2070872135788,
0,parcelated_audio/41/41_16.ogg,,,,,,,,,0,0,0,0,0,0,0,0,0,0,0,0,,,,,,,,,,,,,0,0,0,0,0,15,15,15,,,,,,,,,,,,,,,,,,,,,,,,,,,,,,,,,,,,,,,,,,,,,,,,,,,,,,,,,,,,,,,,,,,,,,,,,,,,,,,,,,,,,,,,,,,,,,,,,,,,,145.87044481300018,150.73808625200036,,,,,073021,0,3,1,2,1,1,2,0,32,2021_Jul_30_1237,listening_fmri,3.2.4,60.2070872135788,
0,parcelated_audio/41/41_17.ogg,,,,,,,,,0,0,0,0,0,0,0,0,0,0,0,0,,,,,,,,,,,,,0,0,0,0,0,16,16,16,,,,,,,,,,,,,,,,,,,,,,,,,,,,,,,,,,,,,,,,,,,,,,,,,,,,,,,,,,,,,,,,,,,,,,,,,,,,,,,,,,,,,,,,,,,,,,,,,,,,,150.73842714200055,154.91172695800014,,,,,073021,0,3,1,2,1,1,2,0,32,2021_Jul_30_1237,listening_fmri,3.2.4,60.2070872135788,
0,parcelated_audio/41/41_18.ogg,,,,,,,,,0,0,0,0,0,0,0,0,0,0,0,0,,,,,,,,,,,,,0,0,0,0,0,17,17,17,,,,,,,,,,,,,,,,,,,,,,,,,,,,,,,,,,,,,,,,,,,,,,,,,,,,,,,,,,,,,,,,,,,,,,,,,,,,,,,,,,,,,,,,,,,,,,,,,,,,,154.91201930900024,157.54793750499994,,,,,073021,0,3,1,2,1,1,2,0,32,2021_Jul_30_1237,listening_fmri,3.2.4,60.2070872135788,
0,parcelated_audio/41/41_19.ogg,,,,,,,,,0,0,0,0,0,0,0,0,0,0,0,0,,,,,,,,,,,,,0,0,0,0,0,18,18,18,,,,,,,,,,,,,,,,,,,,,,,,,,,,,,,,,,,,,,,,,,,,,,,,,,,,,,,,,,,,,,,,,,,,,,,,,,,,,,,,,,,,,,,,,,,,,,,,,,,,,157.54821952200018,164.4378286380006,,,,,073021,0,3,1,2,1,1,2,0,32,2021_Jul_30_1237,listening_fmri,3.2.4,60.2070872135788,
0,parcelated_audio/41/41_20.ogg,,,,,,,,,0,0,0,0,0,0,0,0,0,0,0,0,,,,,,,,,,,,,0,0,0,0,0,19,19,19,,,,,,,,,,,,,,,,,,,,,,,,,,,,,,,,,,,,,,,,,,,,,,,,,,,,,,,,,,,,,,,,,,,,,,,,,,,,,,,,,,,,,,,,,,,,,,,,,,,,,164.43820140700063,169.36475535200043,,,,,073021,0,3,1,2,1,1,2,0,32,2021_Jul_30_1237,listening_fmri,3.2.4,60.2070872135788,
0,parcelated_audio/41/41_21.ogg,,,,,,,,,0,0,0,0,0,0,0,0,0,0,0,0,,,,,,,,,,,,,0,0,0,0,0,20,20,20,,,,,,,,,,,,,,,,,,,,,,,,,,,,,,,,,,,,,,,,,,,,,,,,,,,,,,,,,,,,,,,,,,,,,,,,,,,,,,,,,,,,,,,,,,,,,,,,,,,,,169.36515070299993,177.17563689800045,,,,,073021,0,3,1,2,1,1,2,0,32,2021_Jul_30_1237,listening_fmri,3.2.4,60.2070872135788,
0,parcelated_audio/41/41_22.ogg,,,,,,,,,0,0,0,0,0,0,0,0,0,0,0,0,,,,,,,,,,,,,0,0,0,0,0,21,21,21,,,,,,,,,,,,,,,,,,,,,,,,,,,,,,,,,,,,,,,,,,,,,,,,,,,,,,,,,,,,,,,,,,,,,,,,,,,,,,,,,,,,,,,,,,,,,,,,,,,,,177.17592530000002,192.9709502960004,,,,,073021,0,3,1,2,1,1,2,0,32,2021_Jul_30_1237,listening_fmri,3.2.4,60.2070872135788,
0,parcelated_audio/41/41_23.ogg,,,,,,,,,0,0,0,0,0,0,0,0,0,0,0,0,,,,,,,,,,,,,0,0,0,0,0,22,22,22,,,,,,,,,,,,,,,,,,,,,,,,,,,,,,,,,,,,,,,,,,,,,,,,,,,,,,,,,,,,,,,,,,,,,,,,,,,,,,,,,,,,,,,,,,,,,,,,,,,,,192.97122959800072,198.95950399200046,,,,,073021,0,3,1,2,1,1,2,0,32,2021_Jul_30_1237,listening_fmri,3.2.4,60.2070872135788,
0,parcelated_audio/41/41_24.ogg,,,,,,,,,0,0,0,0,0,0,0,0,0,0,0,0,,,,,,,,,,,,,0,0,0,0,0,23,23,23,,,,,,,,,,,,,,,,,,,,,,,,,,,,,,,,,,,,,,,,,,,,,,,,,,,,,,,,,,,,,,,,,,,,,,,,,,,,,,,,,,,,,,,,,,,,,,,,,,,,,198.9598670430005,205.60246077800002,,,,,073021,0,3,1,2,1,1,2,0,32,2021_Jul_30_1237,listening_fmri,3.2.4,60.2070872135788,
0,parcelated_audio/41/41_25.ogg,,,,,,,,,0,0,0,0,0,0,0,0,0,0,0,0,,,,,,,,,,,,,0,0,0,0,0,24,24,24,,,,,,,,,,,,,,,,,,,,,,,,,,,,,,,,,,,,,,,,,,,,,,,,,,,,,,,,,,,,,,,,,,,,,,,,,,,,,,,,,,,,,,,,,,,,,,,,,,,,,205.60273820200018,208.95904064300066,,,,,073021,0,3,1,2,1,1,2,0,32,2021_Jul_30_1237,listening_fmri,3.2.4,60.2070872135788,
0,parcelated_audio/41/41_26.ogg,,,,,,,,,0,0,0,0,0,0,0,0,0,0,0,0,,,,,,,,,,,,,0,0,0,0,0,25,25,25,,,,,,,,,,,,,,,,,,,,,,,,,,,,,,,,,,,,,,,,,,,,,,,,,,,,,,,,,,,,,,,,,,,,,,,,,,,,,,,,,,,,,,,,,,,,,,,,,,,,,208.95936331400026,214.47073904700028,,,,,073021,0,3,1,2,1,1,2,0,32,2021_Jul_30_1237,listening_fmri,3.2.4,60.2070872135788,
0,parcelated_audio/41/41_27.ogg,,,,,,,,,0,0,0,0,0,0,0,0,0,0,0,0,,,,,,,,,,,,,0,0,0,0,0,26,26,26,,,,,,,,,,,,,,,,,,,,,,,,,,,,,,,,,,,,,,,,,,,,,,,,,,,,,,,,,,,,,,,,,,,,,,,,,,,,,,,,,,,,,,,,,,,,,,,,,,,,,214.47143001899985,218.3318643550001,,,,,073021,0,3,1,2,1,1,2,0,32,2021_Jul_30_1237,listening_fmri,3.2.4,60.2070872135788,
0,parcelated_audio/41/41_28.ogg,,,,,,,,,0,0,0,0,0,0,0,0,0,0,0,0,,,,,,,,,,,,,0,0,0,0,0,27,27,27,,,,,,,,,,,,,,,,,,,,,,,,,,,,,,,,,,,,,,,,,,,,,,,,,,,,,,,,,,,,,,,,,,,,,,,,,,,,,,,,,,,,,,,,,,,,,,,,,,,,,218.33221156900072,226.6777296780001,,,,,073021,0,3,1,2,1,1,2,0,32,2021_Jul_30_1237,listening_fmri,3.2.4,60.2070872135788,
0,parcelated_audio/41/41_29.ogg,,,,,,,,,0,0,0,0,0,0,0,0,0,0,0,0,,,,,,,,,,,,,0,0,0,0,0,28,28,28,,,,,,,,,,,,,,,,,,,,,,,,,,,,,,,,,,,,,,,,,,,,,,,,,,,,,,,,,,,,,,,,,,,,,,,,,,,,,,,,,,,,,,,,,,,,,,,,,,,,,226.6782966260007,233.29879268700006,,,,,073021,0,3,1,2,1,1,2,0,32,2021_Jul_30_1237,listening_fmri,3.2.4,60.2070872135788,
0,parcelated_audio/41/41_30.ogg,,,,,,,,,0,0,0,0,0,0,0,0,0,0,0,0,,,,,,,,,,,,,0,0,0,0,0,29,29,29,,,,,,,,,,,,,,,,,,,,,,,,,,,,,,,,,,,,,,,,,,,,,,,,,,,,,,,,,,,,,,,,,,,,,,,,,,,,,,,,,,,,,,,,,,,,,,,,,,,,,233.2992898450002,242.01567634999992,,,,,073021,0,3,1,2,1,1,2,0,32,2021_Jul_30_1237,listening_fmri,3.2.4,60.2070872135788,
0,parcelated_audio/41/41_31.ogg,,,,,,,,,0,0,0,0,0,0,0,0,0,0,0,0,,,,,,,,,,,,,0,0,0,0,0,30,30,30,,,,,,,,,,,,,,,,,,,,,,,,,,,,,,,,,,,,,,,,,,,,,,,,,,,,,,,,,,,,,,,,,,,,,,,,,,,,,,,,,,,,,,,,,,,,,,,,,,,,,242.0160403990003,252.7508426130007,,,,,073021,0,3,1,2,1,1,2,0,32,2021_Jul_30_1237,listening_fmri,3.2.4,60.2070872135788,
0,parcelated_audio/41/41_32.ogg,,,,,,,,,0,0,0,0,0,0,0,0,0,0,0,0,,,,,,,,,,,,,0,0,0,0,0,31,31,31,,,,,,,,,,,,,,,,,,,,,,,,,,,,,,,,,,,,,,,,,,,,,,,,,,,,,,,,,,,,,,,,,,,,,,,,,,,,,,,,,,,,,,,,,,,,,,,,,,,,,252.75131949800016,261.0932016300003,,,,,073021,0,3,1,2,1,1,2,0,32,2021_Jul_30_1237,listening_fmri,3.2.4,60.2070872135788,
0,parcelated_audio/41/41_33.ogg,,,,,,,,,0,0,0,0,0,0,0,0,0,0,0,0,,,,,,,,,,,,,0,0,0,0,0,32,32,32,,,,,,,,,,,,,,,,,,,,,,,,,,,,,,,,,,,,,,,,,,,,,,,,,,,,,,,,,,,,,,,,,,,,,,,,,,,,,,,,,,,,,,,,,,,,,,,,,,,,,261.0935578050003,265.16478704400015,,,,,073021,0,3,1,2,1,1,2,0,32,2021_Jul_30_1237,listening_fmri,3.2.4,60.2070872135788,
0,parcelated_audio/41/41_34.ogg,,,,,,,,,0,0,0,0,0,0,0,0,0,0,0,0,,,,,,,,,,,,,0,0,0,0,0,33,33,33,,,,,,,,,,,,,,,,,,,,,,,,,,,,,,,,,,,,,,,,,,,,,,,,,,,,,,,,,,,,,,,,,,,,,,,,,,,,,,,,,,,,,,,,,,,,,,,,,,,,,265.16514597700007,270.68258005999996,,,,,073021,0,3,1,2,1,1,2,0,32,2021_Jul_30_1237,listening_fmri,3.2.4,60.2070872135788,
0,parcelated_audio/41/41_35.ogg,,,,,,,,,0,0,0,0,0,0,0,0,0,0,0,0,,,,,,,,,,,,,0,0,0,0,0,34,34,34,,,,,,,,,,,,,,,,,,,,,,,,,,,,,,,,,,,,,,,,,,,,,,,,,,,,,,,,,,,,,,,,,,,,,,,,,,,,,,,,,,,,,,,,,,,,,,,,,,,,,270.6828758070005,276.24818982800025,,,,,073021,0,3,1,2,1,1,2,0,32,2021_Jul_30_1237,listening_fmri,3.2.4,60.2070872135788,
0,parcelated_audio/41/41_36.ogg,,,,,,,,,0,0,0,0,0,0,0,0,0,0,0,0,,,,,,,,,,,,,0,0,0,0,0,35,35,35,,,,,,,,,,,,,,,,,,,,,,,,,,,,,,,,,,,,,,,,,,,,,,,,,,,,,,,,,,,,,,,,,,,,,,,,,,,,,,,,,,,,,,,,,,,,,,,,,,,,,276.2485625590007,283.26696984200044,,,,,073021,0,3,1,2,1,1,2,0,32,2021_Jul_30_1237,listening_fmri,3.2.4,60.2070872135788,
0,parcelated_audio/41/41_37.ogg,,,,,,,,,0,0,0,0,0,0,0,0,0,0,0,0,,,,,,,,,,,,,0,0,0,0,0,36,36,36,,,,,,,,,,,,,,,,,,,,,,,,,,,,,,,,,,,,,,,,,,,,,,,,,,,,,,,,,,,,,,,,,,,,,,,,,,,,,,,,,,,,,,,,,,,,,,,,,,,,,283.267385829,288.76606351100054,,,,,073021,0,3,1,2,1,1,2,0,32,2021_Jul_30_1237,listening_fmri,3.2.4,60.2070872135788,
0,,,,,,,,,,0,0,0,0,0,0,0,0,0,0,0,0,,,,,,,,,,,,,0,0,0,0,,,,,,,,,,,,,,,,,,,,,,,,,,,,,,,,,,,,,,,,,,,,,,,,,,,,,,,,,,,,,,,,,,,,,,,,,,,,,,,,,,,,,,,,,,,,,,,,,,,,,,,,,,,,,,,073021,0,3,1,2,1,1,2,0,32,2021_Jul_30_1237,listening_fmri,3.2.4,60.2070872135788,
0,,,,,,,,,,0,0,0,0,0,0,0,0,0,0,0,0,,,,,,,,,,,,,,,,,,,,,,,,,,,,,,,,,,,,,,288.76648747299987,294.7661188230004,328.0534906440007,None,,,,,,,,,,,,,,,,,,,,,,,,,,,,,,,,,,,,,,,,,,,,,,,,,,,,,,,,,,,,,,,,,,,,,,,,,,,,,,,,,,334.0535285190998,None,334.0535285190998,None,073021,0,3,1,2,1,1,2,0,32,2021_Jul_30_1237,listening_fmri,3.2.4,60.2070872135788,
0,,,,,,,,,,0,0,0,0,0,0,0,0,,,,,,,,,,,,,,,,,,,,,,,,,,,,,,,,,,,,,,,,,,,,,,,,,,,,,,,,,,,,,,,,,,,,,,,,,,,,,,,,,,,,,,,,,,,,,,,,,,,,,,,,,,,,,,,,,,,,,,,,,,,,,,,,,,,073021,0,3,1,2,1,1,2,0,32,2021_Jul_30_1237,listening_fmri,3.2.4,60.2070872135788,
1,,,,,,,,,,0,0,0,0,0,1,1,1,,,,,,,,,,,,,,,,,,,,,,,,,,,,,,,,,,,,,,,,,,,,,,,,,,,,,,,,,,,,,,,,,,,,,,,,,,,,,,,,,,,,,,,,,,,,,,,,,,,,,,,,,,,,,,,,,,,,,,,,,,,,,,,,,,,073021,0,3,1,2,1,1,2,0,32,2021_Jul_30_1237,listening_fmri,3.2.4,60.2070872135788,
2,,,,,,,,,,0,0,0,0,0,2,2,2,0,0,0,0,0,0,0,0,0,0,0,0,,,,,,,,,,,,,,,,,,,,,,,,,,,,,,,,,,334.07026792299985,None,334.07026792299985,None,1,0.8435317560006297,334.07026792299985,None,334.07026792299985,None,334.93690093400073,None,1,0.6028957509997781,334.93690093400073,None,334.93690093400073,None,335.58619391200045,None,335.58619391200045,None,335.58619391200045,None,1,0.7674736600001779,335.58619391200045,None,336.38681202600037,None,1,0.980951104000269,336.38681202600037,None,336.38681202600037,None,337.46984879699994,None,337.46984879699994,None,337.46984879699994,None,337.46984879699994,None,337.46984879699994,None,337.46984879699994,None,337.46984879699994,None,None,337.46984879699994,None,,,,,,,,,,,,,,,,,,,,,,,,,,,,,,,,,073021,0,3,1,2,1,1,2,0,32,2021_Jul_30_1237,listening_fmri,3.2.4,60.2070872135788,
2,,,,,,,,,,0,0,0,0,0,2,2,2,0,0,0,0,0,0,0,0,,,,,,,,,,,,,,,,,,,,,,,,,,,,,,,,,,,,,,,,,,,,,,,,,,,,,,,,,,,,,,,,,,,,,,,,,,,,,,,,,,,,,,,,,,,362.1691295569999,None,1,1.9505577370000537,362.1691295569999,None,362.1691295569999,None,364.1695177669999,None,364.1695177669999,None,364.1695177669999,None,1,0.844228930999634,364.1695177669999,None,,,,,,,,,,,,,,,073021,0,3,1,2,1,1,2,0,32,2021_Jul_30_1237,listening_fmri,3.2.4,60.2070872135788,
2,parcelated_audio/23/23_1.ogg,,,,,,,,,0,0,0,0,0,2,2,2,0,0,0,0,,,,,,,,,,,,,0,0,0,0,0,0,0,0,,,,,,,,,,,,,,,,,,,,,,,,,,,,,,,,,,,,,,,,,,,,,,,,,,,,,,,,,,,,,,,,,,,,,,,,,,,,,,,,,,,,,,,,,,,,,365.0364906620007,None,1,0.6262959929999852,365.0364906620007,None,326.40555089100053,329.41497879300005,329.4212327360001,339.8181630250001,,,,,073021,0,3,1,2,1,1,2,0,32,2021_Jul_30_1237,listening_fmri,3.2.4,60.2070872135788,
2,parcelated_audio/23/23_2.ogg,,,,,,,,,0,0,0,0,0,2,2,2,0,0,0,0,,,,,,,,,,,,,0,0,0,0,0,1,1,1,,,,,,,,,,,,,,,,,,,,,,,,,,,,,,,,,,,,,,,,,,,,,,,,,,,,,,,,,,,,,,,,,,,,,,,,,,,,,,,,,,,,,,,,,,,,,,,,,,,,,339.81900975900044,346.70165136000014,,,,,073021,0,3,1,2,1,1,2,0,32,2021_Jul_30_1237,listening_fmri,3.2.4,60.2070872135788,
2,parcelated_audio/23/23_3.ogg,,,,,,,,,0,0,0,0,0,2,2,2,0,0,0,0,,,,,,,,,,,,,0,0,0,0,0,2,2,2,,,,,,,,,,,,,,,,,,,,,,,,,,,,,,,,,,,,,,,,,,,,,,,,,,,,,,,,,,,,,,,,,,,,,,,,,,,,,,,,,,,,,,,,,,,,,,,,,,,,,346.70193959100015,352.46583550000014,,,,,073021,0,3,1,2,1,1,2,0,32,2021_Jul_30_1237,listening_fmri,3.2.4,60.2070872135788,
2,parcelated_audio/23/23_4.ogg,,,,,,,,,0,0,0,0,0,2,2,2,0,0,0,0,,,,,,,,,,,,,0,0,0,0,0,3,3,3,,,,,,,,,,,,,,,,,,,,,,,,,,,,,,,,,,,,,,,,,,,,,,,,,,,,,,,,,,,,,,,,,,,,,,,,,,,,,,,,,,,,,,,,,,,,,,,,,,,,,352.466191298,363.7305014780004,,,,,073021,0,3,1,2,1,1,2,0,32,2021_Jul_30_1237,listening_fmri,3.2.4,60.2070872135788,
2,parcelated_audio/23/23_5.ogg,,,,,,,,,0,0,0,0,0,2,2,2,0,0,0,0,,,,,,,,,,,,,0,0,0,0,0,4,4,4,,,,,,,,,,,,,,,,,,,,,,,,,,,,,,,,,,,,,,,,,,,,,,,,,,,,,,,,,,,,,,,,,,,,,,,,,,,,,,,,,,,,,,,,,,,,,,,,,,,,,363.7308549120007,369.94664538300003,,,,,073021,0,3,1,2,1,1,2,0,32,2021_Jul_30_1237,listening_fmri,3.2.4,60.2070872135788,
2,parcelated_audio/23/23_6.ogg,,,,,,,,,0,0,0,0,0,2,2,2,0,0,0,0,,,,,,,,,,,,,0,0,0,0,0,5,5,5,,,,,,,,,,,,,,,,,,,,,,,,,,,,,,,,,,,,,,,,,,,,,,,,,,,,,,,,,,,,,,,,,,,,,,,,,,,,,,,,,,,,,,,,,,,,,,,,,,,,,369.94716472300024,377.3546392020007,,,,,073021,0,3,1,2,1,1,2,0,32,2021_Jul_30_1237,listening_fmri,3.2.4,60.2070872135788,
2,parcelated_audio/23/23_7.ogg,,,,,,,,,0,0,0,0,0,2,2,2,0,0,0,0,,,,,,,,,,,,,0,0,0,0,0,6,6,6,,,,,,,,,,,,,,,,,,,,,,,,,,,,,,,,,,,,,,,,,,,,,,,,,,,,,,,,,,,,,,,,,,,,,,,,,,,,,,,,,,,,,,,,,,,,,,,,,,,,,377.35499343599986,384.1063075230004,,,,,073021,0,3,1,2,1,1,2,0,32,2021_Jul_30_1237,listening_fmri,3.2.4,60.2070872135788,
2,parcelated_audio/23/23_8.ogg,,,,,,,,,0,0,0,0,0,2,2,2,0,0,0,0,,,,,,,,,,,,,0,0,0,0,0,7,7,7,,,,,,,,,,,,,,,,,,,,,,,,,,,,,,,,,,,,,,,,,,,,,,,,,,,,,,,,,,,,,,,,,,,,,,,,,,,,,,,,,,,,,,,,,,,,,,,,,,,,,384.10729041600007,389.5072424560003,,,,,073021,0,3,1,2,1,1,2,0,32,2021_Jul_30_1237,listening_fmri,3.2.4,60.2070872135788,
2,parcelated_audio/23/23_9.ogg,,,,,,,,,0,0,0,0,0,2,2,2,0,0,0,0,,,,,,,,,,,,,0,0,0,0,0,8,8,8,,,,,,,,,,,,,,,,,,,,,,,,,,,,,,,,,,,,,,,,,,,,,,,,,,,,,,,,,,,,,,,,,,,,,,,,,,,,,,,,,,,,,,,,,,,,,,,,,,,,,389.5075610040003,393.8948818480003,,,,,073021,0,3,1,2,1,1,2,0,32,2021_Jul_30_1237,listening_fmri,3.2.4,60.2070872135788,
2,parcelated_audio/23/23_10.ogg,,,,,,,,,0,0,0,0,0,2,2,2,0,0,0,0,,,,,,,,,,,,,0,0,0,0,0,9,9,9,,,,,,,,,,,,,,,,,,,,,,,,,,,,,,,,,,,,,,,,,,,,,,,,,,,,,,,,,,,,,,,,,,,,,,,,,,,,,,,,,,,,,,,,,,,,,,,,,,,,,393.8952415650001,397.8431376690005,,,,,073021,0,3,1,2,1,1,2,0,32,2021_Jul_30_1237,listening_fmri,3.2.4,60.2070872135788,
2,parcelated_audio/23/23_11.ogg,,,,,,,,,0,0,0,0,0,2,2,2,0,0,0,0,,,,,,,,,,,,,0,0,0,0,0,10,10,10,,,,,,,,,,,,,,,,,,,,,,,,,,,,,,,,,,,,,,,,,,,,,,,,,,,,,,,,,,,,,,,,,,,,,,,,,,,,,,,,,,,,,,,,,,,,,,,,,,,,,397.843561875,405.98017194600016,,,,,073021,0,3,1,2,1,1,2,0,32,2021_Jul_30_1237,listening_fmri,3.2.4,60.2070872135788,
2,parcelated_audio/23/23_12.ogg,,,,,,,,,0,0,0,0,0,2,2,2,0,0,0,0,,,,,,,,,,,,,0,0,0,0,0,11,11,11,,,,,,,,,,,,,,,,,,,,,,,,,,,,,,,,,,,,,,,,,,,,,,,,,,,,,,,,,,,,,,,,,,,,,,,,,,,,,,,,,,,,,,,,,,,,,,,,,,,,,405.9813062160001,413.12874874299996,,,,,073021,0,3,1,2,1,1,2,0,32,2021_Jul_30_1237,listening_fmri,3.2.4,60.2070872135788,
2,parcelated_audio/23/23_13.ogg,,,,,,,,,0,0,0,0,0,2,2,2,0,0,0,0,,,,,,,,,,,,,0,0,0,0,0,12,12,12,,,,,,,,,,,,,,,,,,,,,,,,,,,,,,,,,,,,,,,,,,,,,,,,,,,,,,,,,,,,,,,,,,,,,,,,,,,,,,,,,,,,,,,,,,,,,,,,,,,,,413.12904442800027,419.90696978899996,,,,,073021,0,3,1,2,1,1,2,0,32,2021_Jul_30_1237,listening_fmri,3.2.4,60.2070872135788,
2,parcelated_audio/23/23_14.ogg,,,,,,,,,0,0,0,0,0,2,2,2,0,0,0,0,,,,,,,,,,,,,0,0,0,0,0,13,13,13,,,,,,,,,,,,,,,,,,,,,,,,,,,,,,,,,,,,,,,,,,,,,,,,,,,,,,,,,,,,,,,,,,,,,,,,,,,,,,,,,,,,,,,,,,,,,,,,,,,,,419.90733069700036,424.2704917460005,,,,,073021,0,3,1,2,1,1,2,0,32,2021_Jul_30_1237,listening_fmri,3.2.4,60.2070872135788,
2,parcelated_audio/23/23_15.ogg,,,,,,,,,0,0,0,0,0,2,2,2,0,0,0,0,,,,,,,,,,,,,0,0,0,0,0,14,14,14,,,,,,,,,,,,,,,,,,,,,,,,,,,,,,,,,,,,,,,,,,,,,,,,,,,,,,,,,,,,,,,,,,,,,,,,,,,,,,,,,,,,,,,,,,,,,,,,,,,,,424.2707680230005,428.69695992500056,,,,,073021,0,3,1,2,1,1,2,0,32,2021_Jul_30_1237,listening_fmri,3.2.4,60.2070872135788,
2,parcelated_audio/23/23_16.ogg,,,,,,,,,0,0,0,0,0,2,2,2,0,0,0,0,,,,,,,,,,,,,0,0,0,0,0,15,15,15,,,,,,,,,,,,,,,,,,,,,,,,,,,,,,,,,,,,,,,,,,,,,,,,,,,,,,,,,,,,,,,,,,,,,,,,,,,,,,,,,,,,,,,,,,,,,,,,,,,,,428.6972670539999,435.27959689900035,,,,,073021,0,3,1,2,1,1,2,0,32,2021_Jul_30_1237,listening_fmri,3.2.4,60.2070872135788,
2,parcelated_audio/23/23_17.ogg,,,,,,,,,0,0,0,0,0,2,2,2,0,0,0,0,,,,,,,,,,,,,0,0,0,0,0,16,16,16,,,,,,,,,,,,,,,,,,,,,,,,,,,,,,,,,,,,,,,,,,,,,,,,,,,,,,,,,,,,,,,,,,,,,,,,,,,,,,,,,,,,,,,,,,,,,,,,,,,,,435.2798548330002,442.02251239700036,,,,,073021,0,3,1,2,1,1,2,0,32,2021_Jul_30_1237,listening_fmri,3.2.4,60.2070872135788,
2,parcelated_audio/23/23_18.ogg,,,,,,,,,0,0,0,0,0,2,2,2,0,0,0,0,,,,,,,,,,,,,0,0,0,0,0,17,17,17,,,,,,,,,,,,,,,,,,,,,,,,,,,,,,,,,,,,,,,,,,,,,,,,,,,,,,,,,,,,,,,,,,,,,,,,,,,,,,,,,,,,,,,,,,,,,,,,,,,,,442.0227681659999,454.0009241480002,,,,,073021,0,3,1,2,1,1,2,0,32,2021_Jul_30_1237,listening_fmri,3.2.4,60.2070872135788,
2,parcelated_audio/23/23_19.ogg,,,,,,,,,0,0,0,0,0,2,2,2,0,0,0,0,,,,,,,,,,,,,0,0,0,0,0,18,18,18,,,,,,,,,,,,,,,,,,,,,,,,,,,,,,,,,,,,,,,,,,,,,,,,,,,,,,,,,,,,,,,,,,,,,,,,,,,,,,,,,,,,,,,,,,,,,,,,,,,,,454.0013603490006,459.7697681670006,,,,,073021,0,3,1,2,1,1,2,0,32,2021_Jul_30_1237,listening_fmri,3.2.4,60.2070872135788,
2,parcelated_audio/23/23_20.ogg,,,,,,,,,0,0,0,0,0,2,2,2,0,0,0,0,,,,,,,,,,,,,0,0,0,0,0,19,19,19,,,,,,,,,,,,,,,,,,,,,,,,,,,,,,,,,,,,,,,,,,,,,,,,,,,,,,,,,,,,,,,,,,,,,,,,,,,,,,,,,,,,,,,,,,,,,,,,,,,,,459.7701378340007,462.63092528200013,,,,,073021,0,3,1,2,1,1,2,0,32,2021_Jul_30_1237,listening_fmri,3.2.4,60.2070872135788,
2,parcelated_audio/23/23_21.ogg,,,,,,,,,0,0,0,0,0,2,2,2,0,0,0,0,,,,,,,,,,,,,0,0,0,0,0,20,20,20,,,,,,,,,,,,,,,,,,,,,,,,,,,,,,,,,,,,,,,,,,,,,,,,,,,,,,,,,,,,,,,,,,,,,,,,,,,,,,,,,,,,,,,,,,,,,,,,,,,,,462.63123668700064,470.2950670580003,,,,,073021,0,3,1,2,1,1,2,0,32,2021_Jul_30_1237,listening_fmri,3.2.4,60.2070872135788,
2,parcelated_audio/23/23_22.ogg,,,,,,,,,0,0,0,0,0,2,2,2,0,0,0,0,,,,,,,,,,,,,0,0,0,0,0,21,21,21,,,,,,,,,,,,,,,,,,,,,,,,,,,,,,,,,,,,,,,,,,,,,,,,,,,,,,,,,,,,,,,,,,,,,,,,,,,,,,,,,,,,,,,,,,,,,,,,,,,,,470.295418832,472.95998178599984,,,,,073021,0,3,1,2,1,1,2,0,32,2021_Jul_30_1237,listening_fmri,3.2.4,60.2070872135788,
2,parcelated_audio/23/23_23.ogg,,,,,,,,,0,0,0,0,0,2,2,2,0,0,0,0,,,,,,,,,,,,,0,0,0,0,0,22,22,22,,,,,,,,,,,,,,,,,,,,,,,,,,,,,,,,,,,,,,,,,,,,,,,,,,,,,,,,,,,,,,,,,,,,,,,,,,,,,,,,,,,,,,,,,,,,,,,,,,,,,472.96033398800046,477.11652753399994,,,,,073021,0,3,1,2,1,1,2,0,32,2021_Jul_30_1237,listening_fmri,3.2.4,60.2070872135788,
2,parcelated_audio/23/23_24.ogg,,,,,,,,,0,0,0,0,0,2,2,2,0,0,0,0,,,,,,,,,,,,,0,0,0,0,0,23,23,23,,,,,,,,,,,,,,,,,,,,,,,,,,,,,,,,,,,,,,,,,,,,,,,,,,,,,,,,,,,,,,,,,,,,,,,,,,,,,,,,,,,,,,,,,,,,,,,,,,,,,477.1169988520005,480.65865978000056,,,,,073021,0,3,1,2,1,1,2,0,32,2021_Jul_30_1237,listening_fmri,3.2.4,60.2070872135788,
2,parcelated_audio/23/23_25.ogg,,,,,,,,,0,0,0,0,0,2,2,2,0,0,0,0,,,,,,,,,,,,,0,0,0,0,0,24,24,24,,,,,,,,,,,,,,,,,,,,,,,,,,,,,,,,,,,,,,,,,,,,,,,,,,,,,,,,,,,,,,,,,,,,,,,,,,,,,,,,,,,,,,,,,,,,,,,,,,,,,480.65910165600053,484.79719198900057,,,,,073021,0,3,1,2,1,1,2,0,32,2021_Jul_30_1237,listening_fmri,3.2.4,60.2070872135788,
2,parcelated_audio/23/23_26.ogg,,,,,,,,,0,0,0,0,0,2,2,2,0,0,0,0,,,,,,,,,,,,,0,0,0,0,0,25,25,25,,,,,,,,,,,,,,,,,,,,,,,,,,,,,,,,,,,,,,,,,,,,,,,,,,,,,,,,,,,,,,,,,,,,,,,,,,,,,,,,,,,,,,,,,,,,,,,,,,,,,484.7977243100004,491.04591478100065,,,,,073021,0,3,1,2,1,1,2,0,32,2021_Jul_30_1237,listening_fmri,3.2.4,60.2070872135788,
2,parcelated_audio/23/23_27.ogg,,,,,,,,,0,0,0,0,0,2,2,2,0,0,0,0,,,,,,,,,,,,,0,0,0,0,0,26,26,26,,,,,,,,,,,,,,,,,,,,,,,,,,,,,,,,,,,,,,,,,,,,,,,,,,,,,,,,,,,,,,,,,,,,,,,,,,,,,,,,,,,,,,,,,,,,,,,,,,,,,491.04625189299986,496.3258509970001,,,,,073021,0,3,1,2,1,1,2,0,32,2021_Jul_30_1237,listening_fmri,3.2.4,60.2070872135788,
2,parcelated_audio/23/23_28.ogg,,,,,,,,,0,0,0,0,0,2,2,2,0,0,0,0,,,,,,,,,,,,,0,0,0,0,0,27,27,27,,,,,,,,,,,,,,,,,,,,,,,,,,,,,,,,,,,,,,,,,,,,,,,,,,,,,,,,,,,,,,,,,,,,,,,,,,,,,,,,,,,,,,,,,,,,,,,,,,,,,496.3261387270004,504.2875123140002,,,,,073021,0,3,1,2,1,1,2,0,32,2021_Jul_30_1237,listening_fmri,3.2.4,60.2070872135788,
2,parcelated_audio/23/23_29.ogg,,,,,,,,,0,0,0,0,0,2,2,2,0,0,0,0,,,,,,,,,,,,,0,0,0,0,0,28,28,28,,,,,,,,,,,,,,,,,,,,,,,,,,,,,,,,,,,,,,,,,,,,,,,,,,,,,,,,,,,,,,,,,,,,,,,,,,,,,,,,,,,,,,,,,,,,,,,,,,,,,504.28797762700015,508.02938469200035,,,,,073021,0,3,1,2,1,1,2,0,32,2021_Jul_30_1237,listening_fmri,3.2.4,60.2070872135788,
2,parcelated_audio/23/23_30.ogg,,,,,,,,,0,0,0,0,0,2,2,2,0,0,0,0,,,,,,,,,,,,,0,0,0,0,0,29,29,29,,,,,,,,,,,,,,,,,,,,,,,,,,,,,,,,,,,,,,,,,,,,,,,,,,,,,,,,,,,,,,,,,,,,,,,,,,,,,,,,,,,,,,,,,,,,,,,,,,,,,508.0296897920007,513.9468111460001,,,,,073021,0,3,1,2,1,1,2,0,32,2021_Jul_30_1237,listening_fmri,3.2.4,60.2070872135788,
2,parcelated_audio/23/23_31.ogg,,,,,,,,,0,0,0,0,0,2,2,2,0,0,0,0,,,,,,,,,,,,,0,0,0,0,0,30,30,30,,,,,,,,,,,,,,,,,,,,,,,,,,,,,,,,,,,,,,,,,,,,,,,,,,,,,,,,,,,,,,,,,,,,,,,,,,,,,,,,,,,,,,,,,,,,,,,,,,,,,513.9478055220006,515.9561638940004,,,,,073021,0,3,1,2,1,1,2,0,32,2021_Jul_30_1237,listening_fmri,3.2.4,60.2070872135788,
2,parcelated_audio/23/23_32.ogg,,,,,,,,,0,0,0,0,0,2,2,2,0,0,0,0,,,,,,,,,,,,,0,0,0,0,0,31,31,31,,,,,,,,,,,,,,,,,,,,,,,,,,,,,,,,,,,,,,,,,,,,,,,,,,,,,,,,,,,,,,,,,,,,,,,,,,,,,,,,,,,,,,,,,,,,,,,,,,,,,515.9567209940005,519.6530197700004,,,,,073021,0,3,1,2,1,1,2,0,32,2021_Jul_30_1237,listening_fmri,3.2.4,60.2070872135788,
2,parcelated_audio/23/23_33.ogg,,,,,,,,,0,0,0,0,0,2,2,2,0,0,0,0,,,,,,,,,,,,,0,0,0,0,0,32,32,32,,,,,,,,,,,,,,,,,,,,,,,,,,,,,,,,,,,,,,,,,,,,,,,,,,,,,,,,,,,,,,,,,,,,,,,,,,,,,,,,,,,,,,,,,,,,,,,,,,,,,519.6534569670002,525.697255221,,,,,073021,0,3,1,2,1,1,2,0,32,2021_Jul_30_1237,listening_fmri,3.2.4,60.2070872135788,
2,parcelated_audio/23/23_34.ogg,,,,,,,,,0,0,0,0,0,2,2,2,0,0,0,0,,,,,,,,,,,,,0,0,0,0,0,33,33,33,,,,,,,,,,,,,,,,,,,,,,,,,,,,,,,,,,,,,,,,,,,,,,,,,,,,,,,,,,,,,,,,,,,,,,,,,,,,,,,,,,,,,,,,,,,,,,,,,,,,,525.6976094420006,529.2360336370002,,,,,073021,0,3,1,2,1,1,2,0,32,2021_Jul_30_1237,listening_fmri,3.2.4,60.2070872135788,
2,parcelated_audio/23/23_35.ogg,,,,,,,,,0,0,0,0,0,2,2,2,0,0,0,0,,,,,,,,,,,,,0,0,0,0,0,34,34,34,,,,,,,,,,,,,,,,,,,,,,,,,,,,,,,,,,,,,,,,,,,,,,,,,,,,,,,,,,,,,,,,,,,,,,,,,,,,,,,,,,,,,,,,,,,,,,,,,,,,,529.2368615140003,533.5198343620004,,,,,073021,0,3,1,2,1,1,2,0,32,2021_Jul_30_1237,listening_fmri,3.2.4,60.2070872135788,
2,parcelated_audio/23/23_36.ogg,,,,,,,,,0,0,0,0,0,2,2,2,0,0,0,0,,,,,,,,,,,,,0,0,0,0,0,35,35,35,,,,,,,,,,,,,,,,,,,,,,,,,,,,,,,,,,,,,,,,,,,,,,,,,,,,,,,,,,,,,,,,,,,,,,,,,,,,,,,,,,,,,,,,,,,,,,,,,,,,,533.5201864050005,538.1432074000004,,,,,073021,0,3,1,2,1,1,2,0,32,2021_Jul_30_1237,listening_fmri,3.2.4,60.2070872135788,
2,parcelated_audio/23/23_37.ogg,,,,,,,,,0,0,0,0,0,2,2,2,0,0,0,0,,,,,,,,,,,,,0,0,0,0,0,36,36,36,,,,,,,,,,,,,,,,,,,,,,,,,,,,,,,,,,,,,,,,,,,,,,,,,,,,,,,,,,,,,,,,,,,,,,,,,,,,,,,,,,,,,,,,,,,,,,,,,,,,,538.1439318560006,542.949601587,,,,,073021,0,3,1,2,1,1,2,0,32,2021_Jul_30_1237,listening_fmri,3.2.4,60.2070872135788,
2,parcelated_audio/23/23_38.ogg,,,,,,,,,0,0,0,0,0,2,2,2,0,0,0,0,,,,,,,,,,,,,0,0,0,0,0,37,37,37,,,,,,,,,,,,,,,,,,,,,,,,,,,,,,,,,,,,,,,,,,,,,,,,,,,,,,,,,,,,,,,,,,,,,,,,,,,,,,,,,,,,,,,,,,,,,,,,,,,,,542.949974698,550.436999857,,,,,073021,0,3,1,2,1,1,2,0,32,2021_Jul_30_1237,listening_fmri,3.2.4,60.2070872135788,
2,parcelated_audio/23/23_39.ogg,,,,,,,,,0,0,0,0,0,2,2,2,0,0,0,0,,,,,,,,,,,,,0,0,0,0,0,38,38,38,,,,,,,,,,,,,,,,,,,,,,,,,,,,,,,,,,,,,,,,,,,,,,,,,,,,,,,,,,,,,,,,,,,,,,,,,,,,,,,,,,,,,,,,,,,,,,,,,,,,,550.4373701909999,556.7090183220007,,,,,073021,0,3,1,2,1,1,2,0,32,2021_Jul_30_1237,listening_fmri,3.2.4,60.2070872135788,
2,,,,,,,,,,0,0,0,0,0,2,2,2,0,0,0,0,,,,,,,,,,,,,0,0,0,0,,,,,,,,,,,,,,,,,,,,,,,,,,,,,,,,,,,,,,,,,,,,,,,,,,,,,,,,,,,,,,,,,,,,,,,,,,,,,,,,,,,,,,,,,,,,,,,,,,,,,,,,,,,,,,,073021,0,3,1,2,1,1,2,0,32,2021_Jul_30_1237,listening_fmri,3.2.4,60.2070872135788,
,,,,,,,,,,,,,,,,,,,,,,,,,,,,,,,,,,,,,,,,,,,,,,,,,,,,,,,,,,,556.7095094699998,562.6996241480001,595.9826672879999,None,,,,,,,,,,,,,,,,,,,,,,,,,,,,,,,,,,,,,,,,,,,,,,,,,,,,,,,,,,,,,,,,,,,,,,,,,,,,,,,,,,601.9870250921002,None,601.9870250921002,None,,,,,,,,,,,,,,,
﻿count,audio,trials_14.thisRepN,trials_14.thisTrialN,trials_14.thisN,trials_14.thisIndex,trials_3.thisRepN,trials_3.thisTrialN,trials_3.thisN,trials_3.thisIndex,trials_4.thisRepN,trials_4.thisTrialN,trials_4.thisN,trials_4.thisIndex,trials_6.thisRepN,trials_6.thisTrialN,trials_6.thisN,trials_6.thisIndex,trials_9.thisRepN,trials_9.thisTrialN,trials_9.thisN,trials_9.thisIndex,trials_10.thisRepN,trials_10.thisTrialN,trials_10.thisN,trials_10.thisIndex,trials_11.thisRepN,trials_11.thisTrialN,trials_11.thisN,trials_11.thisIndex,trials_12.thisRepN,trials_12.thisTrialN,trials_12.thisN,trials_12.thisIndex,trials_25.thisRepN,trials_25.thisTrialN,trials_25.thisN,trials_25.thisIndex,trials_15.thisRepN,trials_15.thisTrialN,trials_15.thisN,trials_15.thisIndex,trials_26.thisRepN,trials_26.thisTrialN,trials_26.thisN,trials_26.thisIndex,story_list_block2,action_list_block2,textTrigger.started,textTrigger.stopped,getTrigger.keys,getTrigger.rt,getTrigger.started,getTrigger.stopped,triggerTime,text_76.started,text_76.stopped,text_77.started,text_77.stopped,startWait,endWait,image_23.started,image_23.stopped,text_55.started,text_55.stopped,text_56.started,text_56.stopped,key_resp_2.keys,key_resp_2.rt,key_resp_2.started,key_resp_2.stopped,text_82.started,text_82.stopped,text_57.started,text_57.stopped,key_resp_17.keys,key_resp_17.rt,key_resp_17.started,key_resp_17.stopped,text_83.started,text_83.stopped,text_60.started,text_60.stopped,image_2.started,image_2.stopped,text_58.started,text_58.stopped,key_resp_23.keys,key_resp_23.rt,key_resp_23.started,key_resp_23.stopped,text_62.started,text_62.stopped,key_resp_18.keys,key_resp_18.rt,key_resp_18.started,key_resp_18.stopped,text_84.started,text_84.stopped,question1_2.started,question1_2.stopped,question2_2.started,question2_2.stopped,question3_2.started,question3_2.stopped,question4_2.started,question4_2.stopped,question5_2.started,question5_2.stopped,question6_2.started,question6_2.stopped,image_15.started,image_15.stopped,key_resp.keys,key_resp.started,key_resp.stopped,text_59.started,text_59.stopped,key_resp_19.keys,key_resp_19.rt,key_resp_19.started,key_resp_19.stopped,text_85.started,text_85.stopped,text_61.started,text_61.stopped,image_17.started,image_17.stopped,text_63.started,text_63.stopped,key_resp_24.keys,key_resp_24.rt,key_resp_24.started,key_resp_24.stopped,text_64.started,text_64.stopped,key_resp_20.keys,key_resp_20.rt,key_resp_20.started,key_resp_20.stopped,storyImage_StartTime,storyImage_EndTime,clip_StartTime,clip_EndTime,text_67.started,text_67.stopped,text_68.started,text_68.stopped,participant,sA,sB,lA,lB,block_struct,play_stories,block,behavioral,random_seed,date,expName,psychopyVersion,frameRate,
0,,,,,,,,,,0,0,0,0,0,0,0,0,0,0,0,0,0,0,0,0,0,0,0,0,,,,,,,,,,,,,,,,,[41 43 23 14 34 21 12 32],[1 3 2 1 4 4 3 2],13.253152611000587,None,equal,26.014571138000065,13.253152611000587,None,26.04074764500001,13.253152611000587,None,13.253152611000587,None,0.000310223000269616,5.998569262000274,39.28615104400069,None,45.290264365999974,None,45.290264365999974,None,1,1.0545403839996652,45.290264365999974,None,45.290264365999974,None,46.37010725500022,None,2,1.1146568980002485,46.37010725500022,None,46.37010725500022,None,47.519449086999884,None,47.519449086999884,None,47.519449086999884,None,2,0.6443642479998744,47.519449086999884,None,48.18639318800069,None,2,0.9553031799996461,48.18639318800069,None,48.18639318800069,None,49.253232269000364,None,49.253232269000364,None,49.253232269000364,None,49.253232269000364,None,49.253232269000364,None,49.253232269000364,None,49.253232269000364,None,None,49.253232269000364,None,,,,,,,,,,,,,,,,,,,,,,,,,,,,,,,,,073021,0,3,1,2,1,1,2,0,32,2021_Jul_30_1237,listening_fmri,3.2.4,60.2070872135788,
0,,,,,,,,,,0,0,0,0,0,0,0,0,0,0,0,0,0,0,0,0,,,,,,,,,,,,,,,,,,,,,,,,,,,,,,,,,,,,,,,,,,,,,,,,,,,,,,,,,,,,,,,,,,,,,,,,,,,,,,,,,,,,,,,,,,,80.35244223800055,None,1,1.1011809740002718,80.35244223800055,None,80.35244223800055,None,81.48883990500053,None,81.48883990500053,None,81.48883990500053,None,1,0.7029771779998555,81.48883990500053,None,,,,,,,,,,,,,,,073021,0,3,1,2,1,1,2,0,32,2021_Jul_30_1237,listening_fmri,3.2.4,60.2070872135788,
0,parcelated_audio/41/41_1.ogg,,,,,,,,,0,0,0,0,0,0,0,0,0,0,0,0,,,,,,,,,,,,,0,0,0,0,0,0,0,0,,,,,,,,,,,,,,,,,,,,,,,,,,,,,,,,,,,,,,,,,,,,,,,,,,,,,,,,,,,,,,,,,,,,,,,,,,,,,,,,,,,,,,,,,,,,,82.21938750500067,None,1,1.1012692180001977,82.21938750500067,None,44.10337118700045,47.115552608000144,47.124175767999986,56.24493124000037,,,,,073021,0,3,1,2,1,1,2,0,32,2021_Jul_30_1237,listening_fmri,3.2.4,60.2070872135788,
0,parcelated_audio/41/41_2.ogg,,,,,,,,,0,0,0,0,0,0,0,0,0,0,0,0,,,,,,,,,,,,,0,0,0,0,0,1,1,1,,,,,,,,,,,,,,,,,,,,,,,,,,,,,,,,,,,,,,,,,,,,,,,,,,,,,,,,,,,,,,,,,,,,,,,,,,,,,,,,,,,,,,,,,,,,,,,,,,,,,56.2452140080004,63.48762292799984,,,,,073021,0,3,1,2,1,1,2,0,32,2021_Jul_30_1237,listening_fmri,3.2.4,60.2070872135788,
0,parcelated_audio/41/41_3.ogg,,,,,,,,,0,0,0,0,0,0,0,0,0,0,0,0,,,,,,,,,,,,,0,0,0,0,0,2,2,2,,,,,,,,,,,,,,,,,,,,,,,,,,,,,,,,,,,,,,,,,,,,,,,,,,,,,,,,,,,,,,,,,,,,,,,,,,,,,,,,,,,,,,,,,,,,,,,,,,,,,63.488371791000645,67.77813538700048,,,,,073021,0,3,1,2,1,1,2,0,32,2021_Jul_30_1237,listening_fmri,3.2.4,60.2070872135788,
0,parcelated_audio/41/41_4.ogg,,,,,,,,,0,0,0,0,0,0,0,0,0,0,0,0,,,,,,,,,,,,,0,0,0,0,0,3,3,3,,,,,,,,,,,,,,,,,,,,,,,,,,,,,,,,,,,,,,,,,,,,,,,,,,,,,,,,,,,,,,,,,,,,,,,,,,,,,,,,,,,,,,,,,,,,,,,,,,,,,67.77841357299985,71.73838997300027,,,,,073021,0,3,1,2,1,1,2,0,32,2021_Jul_30_1237,listening_fmri,3.2.4,60.2070872135788,
0,parcelated_audio/41/41_5.ogg,,,,,,,,,0,0,0,0,0,0,0,0,0,0,0,0,,,,,,,,,,,,,0,0,0,0,0,4,4,4,,,,,,,,,,,,,,,,,,,,,,,,,,,,,,,,,,,,,,,,,,,,,,,,,,,,,,,,,,,,,,,,,,,,,,,,,,,,,,,,,,,,,,,,,,,,,,,,,,,,,71.73866725700009,77.86390553300043,,,,,073021,0,3,1,2,1,1,2,0,32,2021_Jul_30_1237,listening_fmri,3.2.4,60.2070872135788,
0,parcelated_audio/41/41_6.ogg,,,,,,,,,0,0,0,0,0,0,0,0,0,0,0,0,,,,,,,,,,,,,0,0,0,0,0,5,5,5,,,,,,,,,,,,,,,,,,,,,,,,,,,,,,,,,,,,,,,,,,,,,,,,,,,,,,,,,,,,,,,,,,,,,,,,,,,,,,,,,,,,,,,,,,,,,,,,,,,,,77.86431475000063,87.7860986149999,,,,,073021,0,3,1,2,1,1,2,0,32,2021_Jul_30_1237,listening_fmri,3.2.4,60.2070872135788,
0,parcelated_audio/41/41_7.ogg,,,,,,,,,0,0,0,0,0,0,0,0,0,0,0,0,,,,,,,,,,,,,0,0,0,0,0,6,6,6,,,,,,,,,,,,,,,,,,,,,,,,,,,,,,,,,,,,,,,,,,,,,,,,,,,,,,,,,,,,,,,,,,,,,,,,,,,,,,,,,,,,,,,,,,,,,,,,,,,,,87.78640662199996,95.50399607100007,,,,,073021,0,3,1,2,1,1,2,0,32,2021_Jul_30_1237,listening_fmri,3.2.4,60.2070872135788,
0,parcelated_audio/41/41_8.ogg,,,,,,,,,0,0,0,0,0,0,0,0,0,0,0,0,,,,,,,,,,,,,0,0,0,0,0,7,7,7,,,,,,,,,,,,,,,,,,,,,,,,,,,,,,,,,,,,,,,,,,,,,,,,,,,,,,,,,,,,,,,,,,,,,,,,,,,,,,,,,,,,,,,,,,,,,,,,,,,,,95.50435141100024,99.73851699500028,,,,,073021,0,3,1,2,1,1,2,0,32,2021_Jul_30_1237,listening_fmri,3.2.4,60.2070872135788,
0,parcelated_audio/41/41_9.ogg,,,,,,,,,0,0,0,0,0,0,0,0,0,0,0,0,,,,,,,,,,,,,0,0,0,0,0,8,8,8,,,,,,,,,,,,,,,,,,,,,,,,,,,,,,,,,,,,,,,,,,,,,,,,,,,,,,,,,,,,,,,,,,,,,,,,,,,,,,,,,,,,,,,,,,,,,,,,,,,,,99.73937952400047,109.3891342070001,,,,,073021,0,3,1,2,1,1,2,0,32,2021_Jul_30_1237,listening_fmri,3.2.4,60.2070872135788,
0,parcelated_audio/41/41_10.ogg,,,,,,,,,0,0,0,0,0,0,0,0,0,0,0,0,,,,,,,,,,,,,0,0,0,0,0,9,9,9,,,,,,,,,,,,,,,,,,,,,,,,,,,,,,,,,,,,,,,,,,,,,,,,,,,,,,,,,,,,,,,,,,,,,,,,,,,,,,,,,,,,,,,,,,,,,,,,,,,,,109.38949221400071,115.90119518900065,,,,,073021,0,3,1,2,1,1,2,0,32,2021_Jul_30_1237,listening_fmri,3.2.4,60.2070872135788,
0,parcelated_audio/41/41_11.ogg,,,,,,,,,0,0,0,0,0,0,0,0,0,0,0,0,,,,,,,,,,,,,0,0,0,0,0,10,10,10,,,,,,,,,,,,,,,,,,,,,,,,,,,,,,,,,,,,,,,,,,,,,,,,,,,,,,,,,,,,,,,,,,,,,,,,,,,,,,,,,,,,,,,,,,,,,,,,,,,,,115.90155314700041,119.66612648400042,,,,,073021,0,3,1,2,1,1,2,0,32,2021_Jul_30_1237,listening_fmri,3.2.4,60.2070872135788,
0,parcelated_audio/41/41_12.ogg,,,,,,,,,0,0,0,0,0,0,0,0,0,0,0,0,,,,,,,,,,,,,0,0,0,0,0,11,11,11,,,,,,,,,,,,,,,,,,,,,,,,,,,,,,,,,,,,,,,,,,,,,,,,,,,,,,,,,,,,,,,,,,,,,,,,,,,,,,,,,,,,,,,,,,,,,,,,,,,,,119.66656069800047,129.40916705400014,,,,,073021,0,3,1,2,1,1,2,0,32,2021_Jul_30_1237,listening_fmri,3.2.4,60.2070872135788,
0,parcelated_audio/41/41_13.ogg,,,,,,,,,0,0,0,0,0,0,0,0,0,0,0,0,,,,,,,,,,,,,0,0,0,0,0,12,12,12,,,,,,,,,,,,,,,,,,,,,,,,,,,,,,,,,,,,,,,,,,,,,,,,,,,,,,,,,,,,,,,,,,,,,,,,,,,,,,,,,,,,,,,,,,,,,,,,,,,,,129.4102813340005,135.22511122800006,,,,,073021,0,3,1,2,1,1,2,0,32,2021_Jul_30_1237,listening_fmri,3.2.4,60.2070872135788,
0,parcelated_audio/41/41_14.ogg,,,,,,,,,0,0,0,0,0,0,0,0,0,0,0,0,,,,,,,,,,,,,0,0,0,0,0,13,13,13,,,,,,,,,,,,,,,,,,,,,,,,,,,,,,,,,,,,,,,,,,,,,,,,,,,,,,,,,,,,,,,,,,,,,,,,,,,,,,,,,,,,,,,,,,,,,,,,,,,,,135.2254704269999,142.45415532800052,,,,,073021,0,3,1,2,1,1,2,0,32,2021_Jul_30_1237,listening_fmri,3.2.4,60.2070872135788,
0,parcelated_audio/41/41_15.ogg,,,,,,,,,0,0,0,0,0,0,0,0,0,0,0,0,,,,,,,,,,,,,0,0,0,0,0,14,14,14,,,,,,,,,,,,,,,,,,,,,,,,,,,,,,,,,,,,,,,,,,,,,,,,,,,,,,,,,,,,,,,,,,,,,,,,,,,,,,,,,,,,,,,,,,,,,,,,,,,,,142.45454661500025,145.87011185000028,,,,,073021,0,3,1,2,1,1,2,0,32,2021_Jul_30_1237,listening_fmri,3.2.4,60.2070872135788,
0,parcelated_audio/41/41_16.ogg,,,,,,,,,0,0,0,0,0,0,0,0,0,0,0,0,,,,,,,,,,,,,0,0,0,0,0,15,15,15,,,,,,,,,,,,,,,,,,,,,,,,,,,,,,,,,,,,,,,,,,,,,,,,,,,,,,,,,,,,,,,,,,,,,,,,,,,,,,,,,,,,,,,,,,,,,,,,,,,,,145.87044481300018,150.73808625200036,,,,,073021,0,3,1,2,1,1,2,0,32,2021_Jul_30_1237,listening_fmri,3.2.4,60.2070872135788,
0,parcelated_audio/41/41_17.ogg,,,,,,,,,0,0,0,0,0,0,0,0,0,0,0,0,,,,,,,,,,,,,0,0,0,0,0,16,16,16,,,,,,,,,,,,,,,,,,,,,,,,,,,,,,,,,,,,,,,,,,,,,,,,,,,,,,,,,,,,,,,,,,,,,,,,,,,,,,,,,,,,,,,,,,,,,,,,,,,,,150.73842714200055,154.91172695800014,,,,,073021,0,3,1,2,1,1,2,0,32,2021_Jul_30_1237,listening_fmri,3.2.4,60.2070872135788,
0,parcelated_audio/41/41_18.ogg,,,,,,,,,0,0,0,0,0,0,0,0,0,0,0,0,,,,,,,,,,,,,0,0,0,0,0,17,17,17,,,,,,,,,,,,,,,,,,,,,,,,,,,,,,,,,,,,,,,,,,,,,,,,,,,,,,,,,,,,,,,,,,,,,,,,,,,,,,,,,,,,,,,,,,,,,,,,,,,,,154.91201930900024,157.54793750499994,,,,,073021,0,3,1,2,1,1,2,0,32,2021_Jul_30_1237,listening_fmri,3.2.4,60.2070872135788,
0,parcelated_audio/41/41_19.ogg,,,,,,,,,0,0,0,0,0,0,0,0,0,0,0,0,,,,,,,,,,,,,0,0,0,0,0,18,18,18,,,,,,,,,,,,,,,,,,,,,,,,,,,,,,,,,,,,,,,,,,,,,,,,,,,,,,,,,,,,,,,,,,,,,,,,,,,,,,,,,,,,,,,,,,,,,,,,,,,,,157.54821952200018,164.4378286380006,,,,,073021,0,3,1,2,1,1,2,0,32,2021_Jul_30_1237,listening_fmri,3.2.4,60.2070872135788,
0,parcelated_audio/41/41_20.ogg,,,,,,,,,0,0,0,0,0,0,0,0,0,0,0,0,,,,,,,,,,,,,0,0,0,0,0,19,19,19,,,,,,,,,,,,,,,,,,,,,,,,,,,,,,,,,,,,,,,,,,,,,,,,,,,,,,,,,,,,,,,,,,,,,,,,,,,,,,,,,,,,,,,,,,,,,,,,,,,,,164.43820140700063,169.36475535200043,,,,,073021,0,3,1,2,1,1,2,0,32,2021_Jul_30_1237,listening_fmri,3.2.4,60.2070872135788,
0,parcelated_audio/41/41_21.ogg,,,,,,,,,0,0,0,0,0,0,0,0,0,0,0,0,,,,,,,,,,,,,0,0,0,0,0,20,20,20,,,,,,,,,,,,,,,,,,,,,,,,,,,,,,,,,,,,,,,,,,,,,,,,,,,,,,,,,,,,,,,,,,,,,,,,,,,,,,,,,,,,,,,,,,,,,,,,,,,,,169.36515070299993,177.17563689800045,,,,,073021,0,3,1,2,1,1,2,0,32,2021_Jul_30_1237,listening_fmri,3.2.4,60.2070872135788,
0,parcelated_audio/41/41_22.ogg,,,,,,,,,0,0,0,0,0,0,0,0,0,0,0,0,,,,,,,,,,,,,0,0,0,0,0,21,21,21,,,,,,,,,,,,,,,,,,,,,,,,,,,,,,,,,,,,,,,,,,,,,,,,,,,,,,,,,,,,,,,,,,,,,,,,,,,,,,,,,,,,,,,,,,,,,,,,,,,,,177.17592530000002,192.9709502960004,,,,,073021,0,3,1,2,1,1,2,0,32,2021_Jul_30_1237,listening_fmri,3.2.4,60.2070872135788,
0,parcelated_audio/41/41_23.ogg,,,,,,,,,0,0,0,0,0,0,0,0,0,0,0,0,,,,,,,,,,,,,0,0,0,0,0,22,22,22,,,,,,,,,,,,,,,,,,,,,,,,,,,,,,,,,,,,,,,,,,,,,,,,,,,,,,,,,,,,,,,,,,,,,,,,,,,,,,,,,,,,,,,,,,,,,,,,,,,,,192.97122959800072,198.95950399200046,,,,,073021,0,3,1,2,1,1,2,0,32,2021_Jul_30_1237,listening_fmri,3.2.4,60.2070872135788,
0,parcelated_audio/41/41_24.ogg,,,,,,,,,0,0,0,0,0,0,0,0,0,0,0,0,,,,,,,,,,,,,0,0,0,0,0,23,23,23,,,,,,,,,,,,,,,,,,,,,,,,,,,,,,,,,,,,,,,,,,,,,,,,,,,,,,,,,,,,,,,,,,,,,,,,,,,,,,,,,,,,,,,,,,,,,,,,,,,,,198.9598670430005,205.60246077800002,,,,,073021,0,3,1,2,1,1,2,0,32,2021_Jul_30_1237,listening_fmri,3.2.4,60.2070872135788,
0,parcelated_audio/41/41_25.ogg,,,,,,,,,0,0,0,0,0,0,0,0,0,0,0,0,,,,,,,,,,,,,0,0,0,0,0,24,24,24,,,,,,,,,,,,,,,,,,,,,,,,,,,,,,,,,,,,,,,,,,,,,,,,,,,,,,,,,,,,,,,,,,,,,,,,,,,,,,,,,,,,,,,,,,,,,,,,,,,,,205.60273820200018,208.95904064300066,,,,,073021,0,3,1,2,1,1,2,0,32,2021_Jul_30_1237,listening_fmri,3.2.4,60.2070872135788,
0,parcelated_audio/41/41_26.ogg,,,,,,,,,0,0,0,0,0,0,0,0,0,0,0,0,,,,,,,,,,,,,0,0,0,0,0,25,25,25,,,,,,,,,,,,,,,,,,,,,,,,,,,,,,,,,,,,,,,,,,,,,,,,,,,,,,,,,,,,,,,,,,,,,,,,,,,,,,,,,,,,,,,,,,,,,,,,,,,,,208.95936331400026,214.47073904700028,,,,,073021,0,3,1,2,1,1,2,0,32,2021_Jul_30_1237,listening_fmri,3.2.4,60.2070872135788,
0,parcelated_audio/41/41_27.ogg,,,,,,,,,0,0,0,0,0,0,0,0,0,0,0,0,,,,,,,,,,,,,0,0,0,0,0,26,26,26,,,,,,,,,,,,,,,,,,,,,,,,,,,,,,,,,,,,,,,,,,,,,,,,,,,,,,,,,,,,,,,,,,,,,,,,,,,,,,,,,,,,,,,,,,,,,,,,,,,,,214.47143001899985,218.3318643550001,,,,,073021,0,3,1,2,1,1,2,0,32,2021_Jul_30_1237,listening_fmri,3.2.4,60.2070872135788,
0,parcelated_audio/41/41_28.ogg,,,,,,,,,0,0,0,0,0,0,0,0,0,0,0,0,,,,,,,,,,,,,0,0,0,0,0,27,27,27,,,,,,,,,,,,,,,,,,,,,,,,,,,,,,,,,,,,,,,,,,,,,,,,,,,,,,,,,,,,,,,,,,,,,,,,,,,,,,,,,,,,,,,,,,,,,,,,,,,,,218.33221156900072,226.6777296780001,,,,,073021,0,3,1,2,1,1,2,0,32,2021_Jul_30_1237,listening_fmri,3.2.4,60.2070872135788,
0,parcelated_audio/41/41_29.ogg,,,,,,,,,0,0,0,0,0,0,0,0,0,0,0,0,,,,,,,,,,,,,0,0,0,0,0,28,28,28,,,,,,,,,,,,,,,,,,,,,,,,,,,,,,,,,,,,,,,,,,,,,,,,,,,,,,,,,,,,,,,,,,,,,,,,,,,,,,,,,,,,,,,,,,,,,,,,,,,,,226.6782966260007,233.29879268700006,,,,,073021,0,3,1,2,1,1,2,0,32,2021_Jul_30_1237,listening_fmri,3.2.4,60.2070872135788,
0,parcelated_audio/41/41_30.ogg,,,,,,,,,0,0,0,0,0,0,0,0,0,0,0,0,,,,,,,,,,,,,0,0,0,0,0,29,29,29,,,,,,,,,,,,,,,,,,,,,,,,,,,,,,,,,,,,,,,,,,,,,,,,,,,,,,,,,,,,,,,,,,,,,,,,,,,,,,,,,,,,,,,,,,,,,,,,,,,,,233.2992898450002,242.01567634999992,,,,,073021,0,3,1,2,1,1,2,0,32,2021_Jul_30_1237,listening_fmri,3.2.4,60.2070872135788,
0,parcelated_audio/41/41_31.ogg,,,,,,,,,0,0,0,0,0,0,0,0,0,0,0,0,,,,,,,,,,,,,0,0,0,0,0,30,30,30,,,,,,,,,,,,,,,,,,,,,,,,,,,,,,,,,,,,,,,,,,,,,,,,,,,,,,,,,,,,,,,,,,,,,,,,,,,,,,,,,,,,,,,,,,,,,,,,,,,,,242.0160403990003,252.7508426130007,,,,,073021,0,3,1,2,1,1,2,0,32,2021_Jul_30_1237,listening_fmri,3.2.4,60.2070872135788,
0,parcelated_audio/41/41_32.ogg,,,,,,,,,0,0,0,0,0,0,0,0,0,0,0,0,,,,,,,,,,,,,0,0,0,0,0,31,31,31,,,,,,,,,,,,,,,,,,,,,,,,,,,,,,,,,,,,,,,,,,,,,,,,,,,,,,,,,,,,,,,,,,,,,,,,,,,,,,,,,,,,,,,,,,,,,,,,,,,,,252.75131949800016,261.0932016300003,,,,,073021,0,3,1,2,1,1,2,0,32,2021_Jul_30_1237,listening_fmri,3.2.4,60.2070872135788,
0,parcelated_audio/41/41_33.ogg,,,,,,,,,0,0,0,0,0,0,0,0,0,0,0,0,,,,,,,,,,,,,0,0,0,0,0,32,32,32,,,,,,,,,,,,,,,,,,,,,,,,,,,,,,,,,,,,,,,,,,,,,,,,,,,,,,,,,,,,,,,,,,,,,,,,,,,,,,,,,,,,,,,,,,,,,,,,,,,,,261.0935578050003,265.16478704400015,,,,,073021,0,3,1,2,1,1,2,0,32,2021_Jul_30_1237,listening_fmri,3.2.4,60.2070872135788,
0,parcelated_audio/41/41_34.ogg,,,,,,,,,0,0,0,0,0,0,0,0,0,0,0,0,,,,,,,,,,,,,0,0,0,0,0,33,33,33,,,,,,,,,,,,,,,,,,,,,,,,,,,,,,,,,,,,,,,,,,,,,,,,,,,,,,,,,,,,,,,,,,,,,,,,,,,,,,,,,,,,,,,,,,,,,,,,,,,,,265.16514597700007,270.68258005999996,,,,,073021,0,3,1,2,1,1,2,0,32,2021_Jul_30_1237,listening_fmri,3.2.4,60.2070872135788,
0,parcelated_audio/41/41_35.ogg,,,,,,,,,0,0,0,0,0,0,0,0,0,0,0,0,,,,,,,,,,,,,0,0,0,0,0,34,34,34,,,,,,,,,,,,,,,,,,,,,,,,,,,,,,,,,,,,,,,,,,,,,,,,,,,,,,,,,,,,,,,,,,,,,,,,,,,,,,,,,,,,,,,,,,,,,,,,,,,,,270.6828758070005,276.24818982800025,,,,,073021,0,3,1,2,1,1,2,0,32,2021_Jul_30_1237,listening_fmri,3.2.4,60.2070872135788,
0,parcelated_audio/41/41_36.ogg,,,,,,,,,0,0,0,0,0,0,0,0,0,0,0,0,,,,,,,,,,,,,0,0,0,0,0,35,35,35,,,,,,,,,,,,,,,,,,,,,,,,,,,,,,,,,,,,,,,,,,,,,,,,,,,,,,,,,,,,,,,,,,,,,,,,,,,,,,,,,,,,,,,,,,,,,,,,,,,,,276.2485625590007,283.26696984200044,,,,,073021,0,3,1,2,1,1,2,0,32,2021_Jul_30_1237,listening_fmri,3.2.4,60.2070872135788,
0,parcelated_audio/41/41_37.ogg,,,,,,,,,0,0,0,0,0,0,0,0,0,0,0,0,,,,,,,,,,,,,0,0,0,0,0,36,36,36,,,,,,,,,,,,,,,,,,,,,,,,,,,,,,,,,,,,,,,,,,,,,,,,,,,,,,,,,,,,,,,,,,,,,,,,,,,,,,,,,,,,,,,,,,,,,,,,,,,,,283.267385829,288.76606351100054,,,,,073021,0,3,1,2,1,1,2,0,32,2021_Jul_30_1237,listening_fmri,3.2.4,60.2070872135788,
0,,,,,,,,,,0,0,0,0,0,0,0,0,0,0,0,0,,,,,,,,,,,,,0,0,0,0,,,,,,,,,,,,,,,,,,,,,,,,,,,,,,,,,,,,,,,,,,,,,,,,,,,,,,,,,,,,,,,,,,,,,,,,,,,,,,,,,,,,,,,,,,,,,,,,,,,,,,,,,,,,,,,073021,0,3,1,2,1,1,2,0,32,2021_Jul_30_1237,listening_fmri,3.2.4,60.2070872135788,
0,,,,,,,,,,0,0,0,0,0,0,0,0,0,0,0,0,,,,,,,,,,,,,,,,,,,,,,,,,,,,,,,,,,,,,,288.76648747299987,294.7661188230004,328.0534906440007,None,,,,,,,,,,,,,,,,,,,,,,,,,,,,,,,,,,,,,,,,,,,,,,,,,,,,,,,,,,,,,,,,,,,,,,,,,,,,,,,,,,334.0535285190998,None,334.0535285190998,None,073021,0,3,1,2,1,1,2,0,32,2021_Jul_30_1237,listening_fmri,3.2.4,60.2070872135788,
0,,,,,,,,,,0,0,0,0,0,0,0,0,,,,,,,,,,,,,,,,,,,,,,,,,,,,,,,,,,,,,,,,,,,,,,,,,,,,,,,,,,,,,,,,,,,,,,,,,,,,,,,,,,,,,,,,,,,,,,,,,,,,,,,,,,,,,,,,,,,,,,,,,,,,,,,,,,,073021,0,3,1,2,1,1,2,0,32,2021_Jul_30_1237,listening_fmri,3.2.4,60.2070872135788,
1,,,,,,,,,,0,0,0,0,0,1,1,1,,,,,,,,,,,,,,,,,,,,,,,,,,,,,,,,,,,,,,,,,,,,,,,,,,,,,,,,,,,,,,,,,,,,,,,,,,,,,,,,,,,,,,,,,,,,,,,,,,,,,,,,,,,,,,,,,,,,,,,,,,,,,,,,,,,073021,0,3,1,2,1,1,2,0,32,2021_Jul_30_1237,listening_fmri,3.2.4,60.2070872135788,
2,,,,,,,,,,0,0,0,0,0,2,2,2,0,0,0,0,0,0,0,0,0,0,0,0,,,,,,,,,,,,,,,,,,,,,,,,,,,,,,,,,,334.07026792299985,None,334.07026792299985,None,1,0.8435317560006297,334.07026792299985,None,334.07026792299985,None,334.93690093400073,None,1,0.6028957509997781,334.93690093400073,None,334.93690093400073,None,335.58619391200045,None,335.58619391200045,None,335.58619391200045,None,1,0.7674736600001779,335.58619391200045,None,336.38681202600037,None,1,0.980951104000269,336.38681202600037,None,336.38681202600037,None,337.46984879699994,None,337.46984879699994,None,337.46984879699994,None,337.46984879699994,None,337.46984879699994,None,337.46984879699994,None,337.46984879699994,None,None,337.46984879699994,None,,,,,,,,,,,,,,,,,,,,,,,,,,,,,,,,,073021,0,3,1,2,1,1,2,0,32,2021_Jul_30_1237,listening_fmri,3.2.4,60.2070872135788,
2,,,,,,,,,,0,0,0,0,0,2,2,2,0,0,0,0,0,0,0,0,,,,,,,,,,,,,,,,,,,,,,,,,,,,,,,,,,,,,,,,,,,,,,,,,,,,,,,,,,,,,,,,,,,,,,,,,,,,,,,,,,,,,,,,,,,362.1691295569999,None,1,1.9505577370000537,362.1691295569999,None,362.1691295569999,None,364.1695177669999,None,364.1695177669999,None,364.1695177669999,None,1,0.844228930999634,364.1695177669999,None,,,,,,,,,,,,,,,073021,0,3,1,2,1,1,2,0,32,2021_Jul_30_1237,listening_fmri,3.2.4,60.2070872135788,
2,parcelated_audio/23/23_1.ogg,,,,,,,,,0,0,0,0,0,2,2,2,0,0,0,0,,,,,,,,,,,,,0,0,0,0,0,0,0,0,,,,,,,,,,,,,,,,,,,,,,,,,,,,,,,,,,,,,,,,,,,,,,,,,,,,,,,,,,,,,,,,,,,,,,,,,,,,,,,,,,,,,,,,,,,,,365.0364906620007,None,1,0.6262959929999852,365.0364906620007,None,326.40555089100053,329.41497879300005,329.4212327360001,339.8181630250001,,,,,073021,0,3,1,2,1,1,2,0,32,2021_Jul_30_1237,listening_fmri,3.2.4,60.2070872135788,
2,parcelated_audio/23/23_2.ogg,,,,,,,,,0,0,0,0,0,2,2,2,0,0,0,0,,,,,,,,,,,,,0,0,0,0,0,1,1,1,,,,,,,,,,,,,,,,,,,,,,,,,,,,,,,,,,,,,,,,,,,,,,,,,,,,,,,,,,,,,,,,,,,,,,,,,,,,,,,,,,,,,,,,,,,,,,,,,,,,,339.81900975900044,346.70165136000014,,,,,073021,0,3,1,2,1,1,2,0,32,2021_Jul_30_1237,listening_fmri,3.2.4,60.2070872135788,
2,parcelated_audio/23/23_3.ogg,,,,,,,,,0,0,0,0,0,2,2,2,0,0,0,0,,,,,,,,,,,,,0,0,0,0,0,2,2,2,,,,,,,,,,,,,,,,,,,,,,,,,,,,,,,,,,,,,,,,,,,,,,,,,,,,,,,,,,,,,,,,,,,,,,,,,,,,,,,,,,,,,,,,,,,,,,,,,,,,,346.70193959100015,352.46583550000014,,,,,073021,0,3,1,2,1,1,2,0,32,2021_Jul_30_1237,listening_fmri,3.2.4,60.2070872135788,
2,parcelated_audio/23/23_4.ogg,,,,,,,,,0,0,0,0,0,2,2,2,0,0,0,0,,,,,,,,,,,,,0,0,0,0,0,3,3,3,,,,,,,,,,,,,,,,,,,,,,,,,,,,,,,,,,,,,,,,,,,,,,,,,,,,,,,,,,,,,,,,,,,,,,,,,,,,,,,,,,,,,,,,,,,,,,,,,,,,,352.466191298,363.7305014780004,,,,,073021,0,3,1,2,1,1,2,0,32,2021_Jul_30_1237,listening_fmri,3.2.4,60.2070872135788,
2,parcelated_audio/23/23_5.ogg,,,,,,,,,0,0,0,0,0,2,2,2,0,0,0,0,,,,,,,,,,,,,0,0,0,0,0,4,4,4,,,,,,,,,,,,,,,,,,,,,,,,,,,,,,,,,,,,,,,,,,,,,,,,,,,,,,,,,,,,,,,,,,,,,,,,,,,,,,,,,,,,,,,,,,,,,,,,,,,,,363.7308549120007,369.94664538300003,,,,,073021,0,3,1,2,1,1,2,0,32,2021_Jul_30_1237,listening_fmri,3.2.4,60.2070872135788,
2,parcelated_audio/23/23_6.ogg,,,,,,,,,0,0,0,0,0,2,2,2,0,0,0,0,,,,,,,,,,,,,0,0,0,0,0,5,5,5,,,,,,,,,,,,,,,,,,,,,,,,,,,,,,,,,,,,,,,,,,,,,,,,,,,,,,,,,,,,,,,,,,,,,,,,,,,,,,,,,,,,,,,,,,,,,,,,,,,,,369.94716472300024,377.3546392020007,,,,,073021,0,3,1,2,1,1,2,0,32,2021_Jul_30_1237,listening_fmri,3.2.4,60.2070872135788,
2,parcelated_audio/23/23_7.ogg,,,,,,,,,0,0,0,0,0,2,2,2,0,0,0,0,,,,,,,,,,,,,0,0,0,0,0,6,6,6,,,,,,,,,,,,,,,,,,,,,,,,,,,,,,,,,,,,,,,,,,,,,,,,,,,,,,,,,,,,,,,,,,,,,,,,,,,,,,,,,,,,,,,,,,,,,,,,,,,,,377.35499343599986,384.1063075230004,,,,,073021,0,3,1,2,1,1,2,0,32,2021_Jul_30_1237,listening_fmri,3.2.4,60.2070872135788,
2,parcelated_audio/23/23_8.ogg,,,,,,,,,0,0,0,0,0,2,2,2,0,0,0,0,,,,,,,,,,,,,0,0,0,0,0,7,7,7,,,,,,,,,,,,,,,,,,,,,,,,,,,,,,,,,,,,,,,,,,,,,,,,,,,,,,,,,,,,,,,,,,,,,,,,,,,,,,,,,,,,,,,,,,,,,,,,,,,,,384.10729041600007,389.5072424560003,,,,,073021,0,3,1,2,1,1,2,0,32,2021_Jul_30_1237,listening_fmri,3.2.4,60.2070872135788,
2,parcelated_audio/23/23_9.ogg,,,,,,,,,0,0,0,0,0,2,2,2,0,0,0,0,,,,,,,,,,,,,0,0,0,0,0,8,8,8,,,,,,,,,,,,,,,,,,,,,,,,,,,,,,,,,,,,,,,,,,,,,,,,,,,,,,,,,,,,,,,,,,,,,,,,,,,,,,,,,,,,,,,,,,,,,,,,,,,,,389.5075610040003,393.8948818480003,,,,,073021,0,3,1,2,1,1,2,0,32,2021_Jul_30_1237,listening_fmri,3.2.4,60.2070872135788,
2,parcelated_audio/23/23_10.ogg,,,,,,,,,0,0,0,0,0,2,2,2,0,0,0,0,,,,,,,,,,,,,0,0,0,0,0,9,9,9,,,,,,,,,,,,,,,,,,,,,,,,,,,,,,,,,,,,,,,,,,,,,,,,,,,,,,,,,,,,,,,,,,,,,,,,,,,,,,,,,,,,,,,,,,,,,,,,,,,,,393.8952415650001,397.8431376690005,,,,,073021,0,3,1,2,1,1,2,0,32,2021_Jul_30_1237,listening_fmri,3.2.4,60.2070872135788,
2,parcelated_audio/23/23_11.ogg,,,,,,,,,0,0,0,0,0,2,2,2,0,0,0,0,,,,,,,,,,,,,0,0,0,0,0,10,10,10,,,,,,,,,,,,,,,,,,,,,,,,,,,,,,,,,,,,,,,,,,,,,,,,,,,,,,,,,,,,,,,,,,,,,,,,,,,,,,,,,,,,,,,,,,,,,,,,,,,,,397.843561875,405.98017194600016,,,,,073021,0,3,1,2,1,1,2,0,32,2021_Jul_30_1237,listening_fmri,3.2.4,60.2070872135788,
2,parcelated_audio/23/23_12.ogg,,,,,,,,,0,0,0,0,0,2,2,2,0,0,0,0,,,,,,,,,,,,,0,0,0,0,0,11,11,11,,,,,,,,,,,,,,,,,,,,,,,,,,,,,,,,,,,,,,,,,,,,,,,,,,,,,,,,,,,,,,,,,,,,,,,,,,,,,,,,,,,,,,,,,,,,,,,,,,,,,405.9813062160001,413.12874874299996,,,,,073021,0,3,1,2,1,1,2,0,32,2021_Jul_30_1237,listening_fmri,3.2.4,60.2070872135788,
2,parcelated_audio/23/23_13.ogg,,,,,,,,,0,0,0,0,0,2,2,2,0,0,0,0,,,,,,,,,,,,,0,0,0,0,0,12,12,12,,,,,,,,,,,,,,,,,,,,,,,,,,,,,,,,,,,,,,,,,,,,,,,,,,,,,,,,,,,,,,,,,,,,,,,,,,,,,,,,,,,,,,,,,,,,,,,,,,,,,413.12904442800027,419.90696978899996,,,,,073021,0,3,1,2,1,1,2,0,32,2021_Jul_30_1237,listening_fmri,3.2.4,60.2070872135788,
2,parcelated_audio/23/23_14.ogg,,,,,,,,,0,0,0,0,0,2,2,2,0,0,0,0,,,,,,,,,,,,,0,0,0,0,0,13,13,13,,,,,,,,,,,,,,,,,,,,,,,,,,,,,,,,,,,,,,,,,,,,,,,,,,,,,,,,,,,,,,,,,,,,,,,,,,,,,,,,,,,,,,,,,,,,,,,,,,,,,419.90733069700036,424.2704917460005,,,,,073021,0,3,1,2,1,1,2,0,32,2021_Jul_30_1237,listening_fmri,3.2.4,60.2070872135788,
2,parcelated_audio/23/23_15.ogg,,,,,,,,,0,0,0,0,0,2,2,2,0,0,0,0,,,,,,,,,,,,,0,0,0,0,0,14,14,14,,,,,,,,,,,,,,,,,,,,,,,,,,,,,,,,,,,,,,,,,,,,,,,,,,,,,,,,,,,,,,,,,,,,,,,,,,,,,,,,,,,,,,,,,,,,,,,,,,,,,424.2707680230005,428.69695992500056,,,,,073021,0,3,1,2,1,1,2,0,32,2021_Jul_30_1237,listening_fmri,3.2.4,60.2070872135788,
2,parcelated_audio/23/23_16.ogg,,,,,,,,,0,0,0,0,0,2,2,2,0,0,0,0,,,,,,,,,,,,,0,0,0,0,0,15,15,15,,,,,,,,,,,,,,,,,,,,,,,,,,,,,,,,,,,,,,,,,,,,,,,,,,,,,,,,,,,,,,,,,,,,,,,,,,,,,,,,,,,,,,,,,,,,,,,,,,,,,428.6972670539999,435.27959689900035,,,,,073021,0,3,1,2,1,1,2,0,32,2021_Jul_30_1237,listening_fmri,3.2.4,60.2070872135788,
2,parcelated_audio/23/23_17.ogg,,,,,,,,,0,0,0,0,0,2,2,2,0,0,0,0,,,,,,,,,,,,,0,0,0,0,0,16,16,16,,,,,,,,,,,,,,,,,,,,,,,,,,,,,,,,,,,,,,,,,,,,,,,,,,,,,,,,,,,,,,,,,,,,,,,,,,,,,,,,,,,,,,,,,,,,,,,,,,,,,435.2798548330002,442.02251239700036,,,,,073021,0,3,1,2,1,1,2,0,32,2021_Jul_30_1237,listening_fmri,3.2.4,60.2070872135788,
2,parcelated_audio/23/23_18.ogg,,,,,,,,,0,0,0,0,0,2,2,2,0,0,0,0,,,,,,,,,,,,,0,0,0,0,0,17,17,17,,,,,,,,,,,,,,,,,,,,,,,,,,,,,,,,,,,,,,,,,,,,,,,,,,,,,,,,,,,,,,,,,,,,,,,,,,,,,,,,,,,,,,,,,,,,,,,,,,,,,442.0227681659999,454.0009241480002,,,,,073021,0,3,1,2,1,1,2,0,32,2021_Jul_30_1237,listening_fmri,3.2.4,60.2070872135788,
2,parcelated_audio/23/23_19.ogg,,,,,,,,,0,0,0,0,0,2,2,2,0,0,0,0,,,,,,,,,,,,,0,0,0,0,0,18,18,18,,,,,,,,,,,,,,,,,,,,,,,,,,,,,,,,,,,,,,,,,,,,,,,,,,,,,,,,,,,,,,,,,,,,,,,,,,,,,,,,,,,,,,,,,,,,,,,,,,,,,454.0013603490006,459.7697681670006,,,,,073021,0,3,1,2,1,1,2,0,32,2021_Jul_30_1237,listening_fmri,3.2.4,60.2070872135788,
2,parcelated_audio/23/23_20.ogg,,,,,,,,,0,0,0,0,0,2,2,2,0,0,0,0,,,,,,,,,,,,,0,0,0,0,0,19,19,19,,,,,,,,,,,,,,,,,,,,,,,,,,,,,,,,,,,,,,,,,,,,,,,,,,,,,,,,,,,,,,,,,,,,,,,,,,,,,,,,,,,,,,,,,,,,,,,,,,,,,459.7701378340007,462.63092528200013,,,,,073021,0,3,1,2,1,1,2,0,32,2021_Jul_30_1237,listening_fmri,3.2.4,60.2070872135788,
2,parcelated_audio/23/23_21.ogg,,,,,,,,,0,0,0,0,0,2,2,2,0,0,0,0,,,,,,,,,,,,,0,0,0,0,0,20,20,20,,,,,,,,,,,,,,,,,,,,,,,,,,,,,,,,,,,,,,,,,,,,,,,,,,,,,,,,,,,,,,,,,,,,,,,,,,,,,,,,,,,,,,,,,,,,,,,,,,,,,462.63123668700064,470.2950670580003,,,,,073021,0,3,1,2,1,1,2,0,32,2021_Jul_30_1237,listening_fmri,3.2.4,60.2070872135788,
2,parcelated_audio/23/23_22.ogg,,,,,,,,,0,0,0,0,0,2,2,2,0,0,0,0,,,,,,,,,,,,,0,0,0,0,0,21,21,21,,,,,,,,,,,,,,,,,,,,,,,,,,,,,,,,,,,,,,,,,,,,,,,,,,,,,,,,,,,,,,,,,,,,,,,,,,,,,,,,,,,,,,,,,,,,,,,,,,,,,470.295418832,472.95998178599984,,,,,073021,0,3,1,2,1,1,2,0,32,2021_Jul_30_1237,listening_fmri,3.2.4,60.2070872135788,
2,parcelated_audio/23/23_23.ogg,,,,,,,,,0,0,0,0,0,2,2,2,0,0,0,0,,,,,,,,,,,,,0,0,0,0,0,22,22,22,,,,,,,,,,,,,,,,,,,,,,,,,,,,,,,,,,,,,,,,,,,,,,,,,,,,,,,,,,,,,,,,,,,,,,,,,,,,,,,,,,,,,,,,,,,,,,,,,,,,,472.96033398800046,477.11652753399994,,,,,073021,0,3,1,2,1,1,2,0,32,2021_Jul_30_1237,listening_fmri,3.2.4,60.2070872135788,
2,parcelated_audio/23/23_24.ogg,,,,,,,,,0,0,0,0,0,2,2,2,0,0,0,0,,,,,,,,,,,,,0,0,0,0,0,23,23,23,,,,,,,,,,,,,,,,,,,,,,,,,,,,,,,,,,,,,,,,,,,,,,,,,,,,,,,,,,,,,,,,,,,,,,,,,,,,,,,,,,,,,,,,,,,,,,,,,,,,,477.1169988520005,480.65865978000056,,,,,073021,0,3,1,2,1,1,2,0,32,2021_Jul_30_1237,listening_fmri,3.2.4,60.2070872135788,
2,parcelated_audio/23/23_25.ogg,,,,,,,,,0,0,0,0,0,2,2,2,0,0,0,0,,,,,,,,,,,,,0,0,0,0,0,24,24,24,,,,,,,,,,,,,,,,,,,,,,,,,,,,,,,,,,,,,,,,,,,,,,,,,,,,,,,,,,,,,,,,,,,,,,,,,,,,,,,,,,,,,,,,,,,,,,,,,,,,,480.65910165600053,484.79719198900057,,,,,073021,0,3,1,2,1,1,2,0,32,2021_Jul_30_1237,listening_fmri,3.2.4,60.2070872135788,
2,parcelated_audio/23/23_26.ogg,,,,,,,,,0,0,0,0,0,2,2,2,0,0,0,0,,,,,,,,,,,,,0,0,0,0,0,25,25,25,,,,,,,,,,,,,,,,,,,,,,,,,,,,,,,,,,,,,,,,,,,,,,,,,,,,,,,,,,,,,,,,,,,,,,,,,,,,,,,,,,,,,,,,,,,,,,,,,,,,,484.7977243100004,491.04591478100065,,,,,073021,0,3,1,2,1,1,2,0,32,2021_Jul_30_1237,listening_fmri,3.2.4,60.2070872135788,
2,parcelated_audio/23/23_27.ogg,,,,,,,,,0,0,0,0,0,2,2,2,0,0,0,0,,,,,,,,,,,,,0,0,0,0,0,26,26,26,,,,,,,,,,,,,,,,,,,,,,,,,,,,,,,,,,,,,,,,,,,,,,,,,,,,,,,,,,,,,,,,,,,,,,,,,,,,,,,,,,,,,,,,,,,,,,,,,,,,,491.04625189299986,496.3258509970001,,,,,073021,0,3,1,2,1,1,2,0,32,2021_Jul_30_1237,listening_fmri,3.2.4,60.2070872135788,
2,parcelated_audio/23/23_28.ogg,,,,,,,,,0,0,0,0,0,2,2,2,0,0,0,0,,,,,,,,,,,,,0,0,0,0,0,27,27,27,,,,,,,,,,,,,,,,,,,,,,,,,,,,,,,,,,,,,,,,,,,,,,,,,,,,,,,,,,,,,,,,,,,,,,,,,,,,,,,,,,,,,,,,,,,,,,,,,,,,,496.3261387270004,504.2875123140002,,,,,073021,0,3,1,2,1,1,2,0,32,2021_Jul_30_1237,listening_fmri,3.2.4,60.2070872135788,
2,parcelated_audio/23/23_29.ogg,,,,,,,,,0,0,0,0,0,2,2,2,0,0,0,0,,,,,,,,,,,,,0,0,0,0,0,28,28,28,,,,,,,,,,,,,,,,,,,,,,,,,,,,,,,,,,,,,,,,,,,,,,,,,,,,,,,,,,,,,,,,,,,,,,,,,,,,,,,,,,,,,,,,,,,,,,,,,,,,,504.28797762700015,508.02938469200035,,,,,073021,0,3,1,2,1,1,2,0,32,2021_Jul_30_1237,listening_fmri,3.2.4,60.2070872135788,
2,parcelated_audio/23/23_30.ogg,,,,,,,,,0,0,0,0,0,2,2,2,0,0,0,0,,,,,,,,,,,,,0,0,0,0,0,29,29,29,,,,,,,,,,,,,,,,,,,,,,,,,,,,,,,,,,,,,,,,,,,,,,,,,,,,,,,,,,,,,,,,,,,,,,,,,,,,,,,,,,,,,,,,,,,,,,,,,,,,,508.0296897920007,513.9468111460001,,,,,073021,0,3,1,2,1,1,2,0,32,2021_Jul_30_1237,listening_fmri,3.2.4,60.2070872135788,
2,parcelated_audio/23/23_31.ogg,,,,,,,,,0,0,0,0,0,2,2,2,0,0,0,0,,,,,,,,,,,,,0,0,0,0,0,30,30,30,,,,,,,,,,,,,,,,,,,,,,,,,,,,,,,,,,,,,,,,,,,,,,,,,,,,,,,,,,,,,,,,,,,,,,,,,,,,,,,,,,,,,,,,,,,,,,,,,,,,,513.9478055220006,515.9561638940004,,,,,073021,0,3,1,2,1,1,2,0,32,2021_Jul_30_1237,listening_fmri,3.2.4,60.2070872135788,
2,parcelated_audio/23/23_32.ogg,,,,,,,,,0,0,0,0,0,2,2,2,0,0,0,0,,,,,,,,,,,,,0,0,0,0,0,31,31,31,,,,,,,,,,,,,,,,,,,,,,,,,,,,,,,,,,,,,,,,,,,,,,,,,,,,,,,,,,,,,,,,,,,,,,,,,,,,,,,,,,,,,,,,,,,,,,,,,,,,,515.9567209940005,519.6530197700004,,,,,073021,0,3,1,2,1,1,2,0,32,2021_Jul_30_1237,listening_fmri,3.2.4,60.2070872135788,
2,parcelated_audio/23/23_33.ogg,,,,,,,,,0,0,0,0,0,2,2,2,0,0,0,0,,,,,,,,,,,,,0,0,0,0,0,32,32,32,,,,,,,,,,,,,,,,,,,,,,,,,,,,,,,,,,,,,,,,,,,,,,,,,,,,,,,,,,,,,,,,,,,,,,,,,,,,,,,,,,,,,,,,,,,,,,,,,,,,,519.6534569670002,525.697255221,,,,,073021,0,3,1,2,1,1,2,0,32,2021_Jul_30_1237,listening_fmri,3.2.4,60.2070872135788,
2,parcelated_audio/23/23_34.ogg,,,,,,,,,0,0,0,0,0,2,2,2,0,0,0,0,,,,,,,,,,,,,0,0,0,0,0,33,33,33,,,,,,,,,,,,,,,,,,,,,,,,,,,,,,,,,,,,,,,,,,,,,,,,,,,,,,,,,,,,,,,,,,,,,,,,,,,,,,,,,,,,,,,,,,,,,,,,,,,,,525.6976094420006,529.2360336370002,,,,,073021,0,3,1,2,1,1,2,0,32,2021_Jul_30_1237,listening_fmri,3.2.4,60.2070872135788,
2,parcelated_audio/23/23_35.ogg,,,,,,,,,0,0,0,0,0,2,2,2,0,0,0,0,,,,,,,,,,,,,0,0,0,0,0,34,34,34,,,,,,,,,,,,,,,,,,,,,,,,,,,,,,,,,,,,,,,,,,,,,,,,,,,,,,,,,,,,,,,,,,,,,,,,,,,,,,,,,,,,,,,,,,,,,,,,,,,,,529.2368615140003,533.5198343620004,,,,,073021,0,3,1,2,1,1,2,0,32,2021_Jul_30_1237,listening_fmri,3.2.4,60.2070872135788,
2,parcelated_audio/23/23_36.ogg,,,,,,,,,0,0,0,0,0,2,2,2,0,0,0,0,,,,,,,,,,,,,0,0,0,0,0,35,35,35,,,,,,,,,,,,,,,,,,,,,,,,,,,,,,,,,,,,,,,,,,,,,,,,,,,,,,,,,,,,,,,,,,,,,,,,,,,,,,,,,,,,,,,,,,,,,,,,,,,,,533.5201864050005,538.1432074000004,,,,,073021,0,3,1,2,1,1,2,0,32,2021_Jul_30_1237,listening_fmri,3.2.4,60.2070872135788,
2,parcelated_audio/23/23_37.ogg,,,,,,,,,0,0,0,0,0,2,2,2,0,0,0,0,,,,,,,,,,,,,0,0,0,0,0,36,36,36,,,,,,,,,,,,,,,,,,,,,,,,,,,,,,,,,,,,,,,,,,,,,,,,,,,,,,,,,,,,,,,,,,,,,,,,,,,,,,,,,,,,,,,,,,,,,,,,,,,,,538.1439318560006,542.949601587,,,,,073021,0,3,1,2,1,1,2,0,32,2021_Jul_30_1237,listening_fmri,3.2.4,60.2070872135788,
2,parcelated_audio/23/23_38.ogg,,,,,,,,,0,0,0,0,0,2,2,2,0,0,0,0,,,,,,,,,,,,,0,0,0,0,0,37,37,37,,,,,,,,,,,,,,,,,,,,,,,,,,,,,,,,,,,,,,,,,,,,,,,,,,,,,,,,,,,,,,,,,,,,,,,,,,,,,,,,,,,,,,,,,,,,,,,,,,,,,542.949974698,550.436999857,,,,,073021,0,3,1,2,1,1,2,0,32,2021_Jul_30_1237,listening_fmri,3.2.4,60.2070872135788,
2,parcelated_audio/23/23_39.ogg,,,,,,,,,0,0,0,0,0,2,2,2,0,0,0,0,,,,,,,,,,,,,0,0,0,0,0,38,38,38,,,,,,,,,,,,,,,,,,,,,,,,,,,,,,,,,,,,,,,,,,,,,,,,,,,,,,,,,,,,,,,,,,,,,,,,,,,,,,,,,,,,,,,,,,,,,,,,,,,,,550.4373701909999,556.7090183220007,,,,,073021,0,3,1,2,1,1,2,0,32,2021_Jul_30_1237,listening_fmri,3.2.4,60.2070872135788,
2,,,,,,,,,,0,0,0,0,0,2,2,2,0,0,0,0,,,,,,,,,,,,,0,0,0,0,,,,,,,,,,,,,,,,,,,,,,,,,,,,,,,,,,,,,,,,,,,,,,,,,,,,,,,,,,,,,,,,,,,,,,,,,,,,,,,,,,,,,,,,,,,,,,,,,,,,,,,,,,,,,,,073021,0,3,1,2,1,1,2,0,32,2021_Jul_30_1237,listening_fmri,3.2.4,60.2070872135788,
2,,,,,,,,,,0,0,0,0,0,2,2,2,0,0,0,0,,,,,,,,,,,,,,,,,,,,,,,,,,,,,,,,,,,,,,556.7095094699998,562.6996241480001,595.9826672879999,None,,,,,,,,,,,,,,,,,,,,,,,,,,,,,,,,,,,,,,,,,,,,,,,,,,,,,,,,,,,,,,,,,,,,,,,,,,,,,,,,,,601.9870250921002,None,601.9870250921002,None,073021,0,3,1,2,1,1,2,0,32,2021_Jul_30_1237,listening_fmri,3.2.4,60.2070872135788,
2,,,,,,,,,,0,0,0,0,0,2,2,2,,,,,,,,,,,,,,,,,,,,,,,,,,,,,,,,,,,,,,,,,,,,,,,,,,,,,,,,,,,,,,,,,,,,,,,,,,,,,,,,,,,,,,,,,,,,,,,,,,,,,,,,,,,,,,,,,,,,,,,,,,,,,,,,,,,073021,0,3,1,2,1,1,2,0,32,2021_Jul_30_1237,listening_fmri,3.2.4,60.2070872135788,
3,,,,,,,,,,0,0,0,0,0,3,3,3,0,0,0,0,0,0,0,0,0,0,0,0,,,,,,,,,,,,,,,,,,,,,,,,,,,,,,,,,,602.0001884060002,None,602.0001884060002,None,2,2.1756372710005962,602.0001884060002,None,602.0001884060002,None,604.204415571,None,2,0.9133759880005528,604.204415571,None,604.204415571,None,605.1536062210007,None,605.1536062210007,None,605.1536062210007,None,2,1.3330549259999316,605.1536062210007,None,606.5037062030005,None,2,0.6769575349999286,606.5037062030005,None,606.5037062030005,None,607.2861719870007,None,607.2861719870007,None,607.2861719870007,None,607.2861719870007,None,607.2861719870007,None,607.2861719870007,None,607.2861719870007,None,None,607.2861719870007,None,,,,,,,,,,,,,,,,,,,,,,,,,,,,,,,,,073021,0,3,1,2,1,1,2,0,32,2021_Jul_30_1237,listening_fmri,3.2.4,60.2070872135788,
3,,,,,,,,,,0,0,0,0,0,3,3,3,0,0,0,0,0,0,0,0,,,,,,,,,,,,,,,,,,,,,,,,,,,,,,,,,,,,,,,,,,,,,,,,,,,,,,,,,,,,,,,,,,,,,,,,,,,,,,,,,,,,,,,,,,,637.2654587070001,None,1,0.8773384260002786,637.2654587070001,None,637.2654587070001,None,638.1819533710004,None,638.1819533710004,None,638.1819533710004,None,1,0.9737175449999995,638.1819533710004,None,,,,,,,,,,,,,,,073021,0,3,1,2,1,1,2,0,32,2021_Jul_30_1237,listening_fmri,3.2.4,60.2070872135788,
3,parcelated_audio/14/14_1.ogg,,,,,,,,,0,0,0,0,0,3,3,3,0,0,0,0,,,,,,,,,,,,,0,0,0,0,0,0,0,0,,,,,,,,,,,,,,,,,,,,,,,,,,,,,,,,,,,,,,,,,,,,,,,,,,,,,,,,,,,,,,,,,,,,,,,,,,,,,,,,,,,,,,,,,,,,,639.1867363810006,None,1,0.7549179620000359,639.1867363810006,None,600.6913027260007,603.7490135930002,603.7589403090005,610.6219032300005,,,,,073021,0,3,1,2,1,1,2,0,32,2021_Jul_30_1237,listening_fmri,3.2.4,60.2070872135788,
3,parcelated_audio/14/14_2.ogg,,,,,,,,,0,0,0,0,0,3,3,3,0,0,0,0,,,,,,,,,,,,,0,0,0,0,0,1,1,1,,,,,,,,,,,,,,,,,,,,,,,,,,,,,,,,,,,,,,,,,,,,,,,,,,,,,,,,,,,,,,,,,,,,,,,,,,,,,,,,,,,,,,,,,,,,,,,,,,,,,610.6222963730006,617.176662627,,,,,073021,0,3,1,2,1,1,2,0,32,2021_Jul_30_1237,listening_fmri,3.2.4,60.2070872135788,
3,parcelated_audio/14/14_3.ogg,,,,,,,,,0,0,0,0,0,3,3,3,0,0,0,0,,,,,,,,,,,,,0,0,0,0,0,2,2,2,,,,,,,,,,,,,,,,,,,,,,,,,,,,,,,,,,,,,,,,,,,,,,,,,,,,,,,,,,,,,,,,,,,,,,,,,,,,,,,,,,,,,,,,,,,,,,,,,,,,,617.1769515680007,620.8984044150002,,,,,073021,0,3,1,2,1,1,2,0,32,2021_Jul_30_1237,listening_fmri,3.2.4,60.2070872135788,
3,parcelated_audio/14/14_4.ogg,,,,,,,,,0,0,0,0,0,3,3,3,0,0,0,0,,,,,,,,,,,,,0,0,0,0,0,3,3,3,,,,,,,,,,,,,,,,,,,,,,,,,,,,,,,,,,,,,,,,,,,,,,,,,,,,,,,,,,,,,,,,,,,,,,,,,,,,,,,,,,,,,,,,,,,,,,,,,,,,,620.8993204280005,628.8478803510006,,,,,073021,0,3,1,2,1,1,2,0,32,2021_Jul_30_1237,listening_fmri,3.2.4,60.2070872135788,
3,parcelated_audio/14/14_5.ogg,,,,,,,,,0,0,0,0,0,3,3,3,0,0,0,0,,,,,,,,,,,,,0,0,0,0,0,4,4,4,,,,,,,,,,,,,,,,,,,,,,,,,,,,,,,,,,,,,,,,,,,,,,,,,,,,,,,,,,,,,,,,,,,,,,,,,,,,,,,,,,,,,,,,,,,,,,,,,,,,,628.8482315300007,633.7099416710007,,,,,073021,0,3,1,2,1,1,2,0,32,2021_Jul_30_1237,listening_fmri,3.2.4,60.2070872135788,
3,parcelated_audio/14/14_6.ogg,,,,,,,,,0,0,0,0,0,3,3,3,0,0,0,0,,,,,,,,,,,,,0,0,0,0,0,5,5,5,,,,,,,,,,,,,,,,,,,,,,,,,,,,,,,,,,,,,,,,,,,,,,,,,,,,,,,,,,,,,,,,,,,,,,,,,,,,,,,,,,,,,,,,,,,,,,,,,,,,,633.7103672030007,639.5756904440004,,,,,073021,0,3,1,2,1,1,2,0,32,2021_Jul_30_1237,listening_fmri,3.2.4,60.2070872135788,
3,parcelated_audio/14/14_7.ogg,,,,,,,,,0,0,0,0,0,3,3,3,0,0,0,0,,,,,,,,,,,,,0,0,0,0,0,6,6,6,,,,,,,,,,,,,,,,,,,,,,,,,,,,,,,,,,,,,,,,,,,,,,,,,,,,,,,,,,,,,,,,,,,,,,,,,,,,,,,,,,,,,,,,,,,,,,,,,,,,,639.5761400689998,649.223064494,,,,,073021,0,3,1,2,1,1,2,0,32,2021_Jul_30_1237,listening_fmri,3.2.4,60.2070872135788,
3,parcelated_audio/14/14_8.ogg,,,,,,,,,0,0,0,0,0,3,3,3,0,0,0,0,,,,,,,,,,,,,0,0,0,0,0,7,7,7,,,,,,,,,,,,,,,,,,,,,,,,,,,,,,,,,,,,,,,,,,,,,,,,,,,,,,,,,,,,,,,,,,,,,,,,,,,,,,,,,,,,,,,,,,,,,,,,,,,,,649.2234212040003,654.4364965840005,,,,,073021,0,3,1,2,1,1,2,0,32,2021_Jul_30_1237,listening_fmri,3.2.4,60.2070872135788,
3,parcelated_audio/14/14_9.ogg,,,,,,,,,0,0,0,0,0,3,3,3,0,0,0,0,,,,,,,,,,,,,0,0,0,0,0,8,8,8,,,,,,,,,,,,,,,,,,,,,,,,,,,,,,,,,,,,,,,,,,,,,,,,,,,,,,,,,,,,,,,,,,,,,,,,,,,,,,,,,,,,,,,,,,,,,,,,,,,,,654.4367644240001,658.1828594690005,,,,,073021,0,3,1,2,1,1,2,0,32,2021_Jul_30_1237,listening_fmri,3.2.4,60.2070872135788,
3,parcelated_audio/14/14_10.ogg,,,,,,,,,0,0,0,0,0,3,3,3,0,0,0,0,,,,,,,,,,,,,0,0,0,0,0,9,9,9,,,,,,,,,,,,,,,,,,,,,,,,,,,,,,,,,,,,,,,,,,,,,,,,,,,,,,,,,,,,,,,,,,,,,,,,,,,,,,,,,,,,,,,,,,,,,,,,,,,,,658.1832184490004,669.4400104229999,,,,,073021,0,3,1,2,1,1,2,0,32,2021_Jul_30_1237,listening_fmri,3.2.4,60.2070872135788,
3,parcelated_audio/14/14_11.ogg,,,,,,,,,0,0,0,0,0,3,3,3,0,0,0,0,,,,,,,,,,,,,0,0,0,0,0,10,10,10,,,,,,,,,,,,,,,,,,,,,,,,,,,,,,,,,,,,,,,,,,,,,,,,,,,,,,,,,,,,,,,,,,,,,,,,,,,,,,,,,,,,,,,,,,,,,,,,,,,,,669.4408230180006,676.6582239600002,,,,,073021,0,3,1,2,1,1,2,0,32,2021_Jul_30_1237,listening_fmri,3.2.4,60.2070872135788,
3,parcelated_audio/14/14_12.ogg,,,,,,,,,0,0,0,0,0,3,3,3,0,0,0,0,,,,,,,,,,,,,0,0,0,0,0,11,11,11,,,,,,,,,,,,,,,,,,,,,,,,,,,,,,,,,,,,,,,,,,,,,,,,,,,,,,,,,,,,,,,,,,,,,,,,,,,,,,,,,,,,,,,,,,,,,,,,,,,,,676.6585788580005,684.6662751869999,,,,,073021,0,3,1,2,1,1,2,0,32,2021_Jul_30_1237,listening_fmri,3.2.4,60.2070872135788,
3,parcelated_audio/14/14_13.ogg,,,,,,,,,0,0,0,0,0,3,3,3,0,0,0,0,,,,,,,,,,,,,0,0,0,0,0,12,12,12,,,,,,,,,,,,,,,,,,,,,,,,,,,,,,,,,,,,,,,,,,,,,,,,,,,,,,,,,,,,,,,,,,,,,,,,,,,,,,,,,,,,,,,,,,,,,,,,,,,,,684.6667628949999,690.7866116510004,,,,,073021,0,3,1,2,1,1,2,0,32,2021_Jul_30_1237,listening_fmri,3.2.4,60.2070872135788,
3,parcelated_audio/14/14_14.ogg,,,,,,,,,0,0,0,0,0,3,3,3,0,0,0,0,,,,,,,,,,,,,0,0,0,0,0,13,13,13,,,,,,,,,,,,,,,,,,,,,,,,,,,,,,,,,,,,,,,,,,,,,,,,,,,,,,,,,,,,,,,,,,,,,,,,,,,,,,,,,,,,,,,,,,,,,,,,,,,,,690.7871361960006,697.3410308970006,,,,,073021,0,3,1,2,1,1,2,0,32,2021_Jul_30_1237,listening_fmri,3.2.4,60.2070872135788,
3,parcelated_audio/14/14_15.ogg,,,,,,,,,0,0,0,0,0,3,3,3,0,0,0,0,,,,,,,,,,,,,0,0,0,0,0,14,14,14,,,,,,,,,,,,,,,,,,,,,,,,,,,,,,,,,,,,,,,,,,,,,,,,,,,,,,,,,,,,,,,,,,,,,,,,,,,,,,,,,,,,,,,,,,,,,,,,,,,,,697.3415082520005,704.4591470840005,,,,,073021,0,3,1,2,1,1,2,0,32,2021_Jul_30_1237,listening_fmri,3.2.4,60.2070872135788,
3,parcelated_audio/14/14_16.ogg,,,,,,,,,0,0,0,0,0,3,3,3,0,0,0,0,,,,,,,,,,,,,0,0,0,0,0,15,15,15,,,,,,,,,,,,,,,,,,,,,,,,,,,,,,,,,,,,,,,,,,,,,,,,,,,,,,,,,,,,,,,,,,,,,,,,,,,,,,,,,,,,,,,,,,,,,,,,,,,,,704.4595821160001,709.8858860190003,,,,,073021,0,3,1,2,1,1,2,0,32,2021_Jul_30_1237,listening_fmri,3.2.4,60.2070872135788,
3,parcelated_audio/14/14_17.ogg,,,,,,,,,0,0,0,0,0,3,3,3,0,0,0,0,,,,,,,,,,,,,0,0,0,0,0,16,16,16,,,,,,,,,,,,,,,,,,,,,,,,,,,,,,,,,,,,,,,,,,,,,,,,,,,,,,,,,,,,,,,,,,,,,,,,,,,,,,,,,,,,,,,,,,,,,,,,,,,,,709.8862483520006,719.5951500850006,,,,,073021,0,3,1,2,1,1,2,0,32,2021_Jul_30_1237,listening_fmri,3.2.4,60.2070872135788,
3,parcelated_audio/14/14_18.ogg,,,,,,,,,0,0,0,0,0,3,3,3,0,0,0,0,,,,,,,,,,,,,0,0,0,0,0,17,17,17,,,,,,,,,,,,,,,,,,,,,,,,,,,,,,,,,,,,,,,,,,,,,,,,,,,,,,,,,,,,,,,,,,,,,,,,,,,,,,,,,,,,,,,,,,,,,,,,,,,,,719.595426072,727.1900687670004,,,,,073021,0,3,1,2,1,1,2,0,32,2021_Jul_30_1237,listening_fmri,3.2.4,60.2070872135788,
3,parcelated_audio/14/14_19.ogg,,,,,,,,,0,0,0,0,0,3,3,3,0,0,0,0,,,,,,,,,,,,,0,0,0,0,0,18,18,18,,,,,,,,,,,,,,,,,,,,,,,,,,,,,,,,,,,,,,,,,,,,,,,,,,,,,,,,,,,,,,,,,,,,,,,,,,,,,,,,,,,,,,,,,,,,,,,,,,,,,727.1904982220003,730.0561070150006,,,,,073021,0,3,1,2,1,1,2,0,32,2021_Jul_30_1237,listening_fmri,3.2.4,60.2070872135788,
3,parcelated_audio/14/14_20.ogg,,,,,,,,,0,0,0,0,0,3,3,3,0,0,0,0,,,,,,,,,,,,,0,0,0,0,0,19,19,19,,,,,,,,,,,,,,,,,,,,,,,,,,,,,,,,,,,,,,,,,,,,,,,,,,,,,,,,,,,,,,,,,,,,,,,,,,,,,,,,,,,,,,,,,,,,,,,,,,,,,730.0566010760003,732.2027325150002,,,,,073021,0,3,1,2,1,1,2,0,32,2021_Jul_30_1237,listening_fmri,3.2.4,60.2070872135788,
3,parcelated_audio/14/14_21.ogg,,,,,,,,,0,0,0,0,0,3,3,3,0,0,0,0,,,,,,,,,,,,,0,0,0,0,0,20,20,20,,,,,,,,,,,,,,,,,,,,,,,,,,,,,,,,,,,,,,,,,,,,,,,,,,,,,,,,,,,,,,,,,,,,,,,,,,,,,,,,,,,,,,,,,,,,,,,,,,,,,732.2030285030005,741.7727969560001,,,,,073021,0,3,1,2,1,1,2,0,32,2021_Jul_30_1237,listening_fmri,3.2.4,60.2070872135788,
3,parcelated_audio/14/14_22.ogg,,,,,,,,,0,0,0,0,0,3,3,3,0,0,0,0,,,,,,,,,,,,,0,0,0,0,0,21,21,21,,,,,,,,,,,,,,,,,,,,,,,,,,,,,,,,,,,,,,,,,,,,,,,,,,,,,,,,,,,,,,,,,,,,,,,,,,,,,,,,,,,,,,,,,,,,,,,,,,,,,741.7730904890004,748.1198960460006,,,,,073021,0,3,1,2,1,1,2,0,32,2021_Jul_30_1237,listening_fmri,3.2.4,60.2070872135788,
3,parcelated_audio/14/14_23.ogg,,,,,,,,,0,0,0,0,0,3,3,3,0,0,0,0,,,,,,,,,,,,,0,0,0,0,0,22,22,22,,,,,,,,,,,,,,,,,,,,,,,,,,,,,,,,,,,,,,,,,,,,,,,,,,,,,,,,,,,,,,,,,,,,,,,,,,,,,,,,,,,,,,,,,,,,,,,,,,,,,748.1204236250005,753.1969424930003,,,,,073021,0,3,1,2,1,1,2,0,32,2021_Jul_30_1237,listening_fmri,3.2.4,60.2070872135788,
3,parcelated_audio/14/14_24.ogg,,,,,,,,,0,0,0,0,0,3,3,3,0,0,0,0,,,,,,,,,,,,,0,0,0,0,0,23,23,23,,,,,,,,,,,,,,,,,,,,,,,,,,,,,,,,,,,,,,,,,,,,,,,,,,,,,,,,,,,,,,,,,,,,,,,,,,,,,,,,,,,,,,,,,,,,,,,,,,,,,753.1972376530002,764.1058346380005,,,,,073021,0,3,1,2,1,1,2,0,32,2021_Jul_30_1237,listening_fmri,3.2.4,60.2070872135788,
3,parcelated_audio/14/14_25.ogg,,,,,,,,,0,0,0,0,0,3,3,3,0,0,0,0,,,,,,,,,,,,,0,0,0,0,0,24,24,24,,,,,,,,,,,,,,,,,,,,,,,,,,,,,,,,,,,,,,,,,,,,,,,,,,,,,,,,,,,,,,,,,,,,,,,,,,,,,,,,,,,,,,,,,,,,,,,,,,,,,764.10613423,770.756826545,,,,,073021,0,3,1,2,1,1,2,0,32,2021_Jul_30_1237,listening_fmri,3.2.4,60.2070872135788,
3,parcelated_audio/14/14_26.ogg,,,,,,,,,0,0,0,0,0,3,3,3,0,0,0,0,,,,,,,,,,,,,0,0,0,0,0,25,25,25,,,,,,,,,,,,,,,,,,,,,,,,,,,,,,,,,,,,,,,,,,,,,,,,,,,,,,,,,,,,,,,,,,,,,,,,,,,,,,,,,,,,,,,,,,,,,,,,,,,,,770.7571288270001,772.932363678,,,,,073021,0,3,1,2,1,1,2,0,32,2021_Jul_30_1237,listening_fmri,3.2.4,60.2070872135788,
3,parcelated_audio/14/14_27.ogg,,,,,,,,,0,0,0,0,0,3,3,3,0,0,0,0,,,,,,,,,,,,,0,0,0,0,0,26,26,26,,,,,,,,,,,,,,,,,,,,,,,,,,,,,,,,,,,,,,,,,,,,,,,,,,,,,,,,,,,,,,,,,,,,,,,,,,,,,,,,,,,,,,,,,,,,,,,,,,,,,772.9328368000006,778.9618641110001,,,,,073021,0,3,1,2,1,1,2,0,32,2021_Jul_30_1237,listening_fmri,3.2.4,60.2070872135788,
3,parcelated_audio/14/14_28.ogg,,,,,,,,,0,0,0,0,0,3,3,3,0,0,0,0,,,,,,,,,,,,,0,0,0,0,0,27,27,27,,,,,,,,,,,,,,,,,,,,,,,,,,,,,,,,,,,,,,,,,,,,,,,,,,,,,,,,,,,,,,,,,,,,,,,,,,,,,,,,,,,,,,,,,,,,,,,,,,,,,778.9623430820002,781.946267493,,,,,073021,0,3,1,2,1,1,2,0,32,2021_Jul_30_1237,listening_fmri,3.2.4,60.2070872135788,
3,parcelated_audio/14/14_29.ogg,,,,,,,,,0,0,0,0,0,3,3,3,0,0,0,0,,,,,,,,,,,,,0,0,0,0,0,28,28,28,,,,,,,,,,,,,,,,,,,,,,,,,,,,,,,,,,,,,,,,,,,,,,,,,,,,,,,,,,,,,,,,,,,,,,,,,,,,,,,,,,,,,,,,,,,,,,,,,,,,,781.9478862760006,784.3177179590002,,,,,073021,0,3,1,2,1,1,2,0,32,2021_Jul_30_1237,listening_fmri,3.2.4,60.2070872135788,
3,parcelated_audio/14/14_30.ogg,,,,,,,,,0,0,0,0,0,3,3,3,0,0,0,0,,,,,,,,,,,,,0,0,0,0,0,29,29,29,,,,,,,,,,,,,,,,,,,,,,,,,,,,,,,,,,,,,,,,,,,,,,,,,,,,,,,,,,,,,,,,,,,,,,,,,,,,,,,,,,,,,,,,,,,,,,,,,,,,,784.3180648570005,788.5754645110001,,,,,073021,0,3,1,2,1,1,2,0,32,2021_Jul_30_1237,listening_fmri,3.2.4,60.2070872135788,
3,parcelated_audio/14/14_31.ogg,,,,,,,,,0,0,0,0,0,3,3,3,0,0,0,0,,,,,,,,,,,,,0,0,0,0,0,30,30,30,,,,,,,,,,,,,,,,,,,,,,,,,,,,,,,,,,,,,,,,,,,,,,,,,,,,,,,,,,,,,,,,,,,,,,,,,,,,,,,,,,,,,,,,,,,,,,,,,,,,,788.5764465090006,795.8453427150007,,,,,073021,0,3,1,2,1,1,2,0,32,2021_Jul_30_1237,listening_fmri,3.2.4,60.2070872135788,
3,parcelated_audio/14/14_32.ogg,,,,,,,,,0,0,0,0,0,3,3,3,0,0,0,0,,,,,,,,,,,,,0,0,0,0,0,31,31,31,,,,,,,,,,,,,,,,,,,,,,,,,,,,,,,,,,,,,,,,,,,,,,,,,,,,,,,,,,,,,,,,,,,,,,,,,,,,,,,,,,,,,,,,,,,,,,,,,,,,,795.845709831,803.0010123790007,,,,,073021,0,3,1,2,1,1,2,0,32,2021_Jul_30_1237,listening_fmri,3.2.4,60.2070872135788,
3,parcelated_audio/14/14_33.ogg,,,,,,,,,0,0,0,0,0,3,3,3,0,0,0,0,,,,,,,,,,,,,0,0,0,0,0,32,32,32,,,,,,,,,,,,,,,,,,,,,,,,,,,,,,,,,,,,,,,,,,,,,,,,,,,,,,,,,,,,,,,,,,,,,,,,,,,,,,,,,,,,,,,,,,,,,,,,,,,,,803.0014769590007,809.5672356600007,,,,,073021,0,3,1,2,1,1,2,0,32,2021_Jul_30_1237,listening_fmri,3.2.4,60.2070872135788,
3,,,,,,,,,,0,0,0,0,0,3,3,3,0,0,0,0,,,,,,,,,,,,,0,0,0,0,,,,,,,,,,,,,,,,,,,,,,,,,,,,,,,,,,,,,,,,,,,,,,,,,,,,,,,,,,,,,,,,,,,,,,,,,,,,,,,,,,,,,,,,,,,,,,,,,,,,,,,,,,,,,,,073021,0,3,1,2,1,1,2,0,32,2021_Jul_30_1237,listening_fmri,3.2.4,60.2070872135788,
,,,,,,,,,,,,,,,,,,,,,,,,,,,,,,,,,,,,,,,,,,,,,,,,,,,,,,,,,,,809.5677259520007,815.5754647530002,848.8468556050002,None,,,,,,,,,,,,,,,,,,,,,,,,,,,,,,,,,,,,,,,,,,,,,,,,,,,,,,,,,,,,,,,,,,,,,,,,,,,,,,,,,,854.8629000841,None,854.8629000841,None,,,,,,,,,,,,,,,
﻿count,audio,trials_14.thisRepN,trials_14.thisTrialN,trials_14.thisN,trials_14.thisIndex,trials_3.thisRepN,trials_3.thisTrialN,trials_3.thisN,trials_3.thisIndex,trials_4.thisRepN,trials_4.thisTrialN,trials_4.thisN,trials_4.thisIndex,trials_6.thisRepN,trials_6.thisTrialN,trials_6.thisN,trials_6.thisIndex,trials_9.thisRepN,trials_9.thisTrialN,trials_9.thisN,trials_9.thisIndex,trials_10.thisRepN,trials_10.thisTrialN,trials_10.thisN,trials_10.thisIndex,trials_11.thisRepN,trials_11.thisTrialN,trials_11.thisN,trials_11.thisIndex,trials_12.thisRepN,trials_12.thisTrialN,trials_12.thisN,trials_12.thisIndex,trials_25.thisRepN,trials_25.thisTrialN,trials_25.thisN,trials_25.thisIndex,trials_15.thisRepN,trials_15.thisTrialN,trials_15.thisN,trials_15.thisIndex,trials_26.thisRepN,trials_26.thisTrialN,trials_26.thisN,trials_26.thisIndex,story_list_block2,action_list_block2,textTrigger.started,textTrigger.stopped,getTrigger.keys,getTrigger.rt,getTrigger.started,getTrigger.stopped,triggerTime,text_76.started,text_76.stopped,text_77.started,text_77.stopped,startWait,endWait,image_23.started,image_23.stopped,text_55.started,text_55.stopped,text_56.started,text_56.stopped,key_resp_2.keys,key_resp_2.rt,key_resp_2.started,key_resp_2.stopped,text_82.started,text_82.stopped,text_57.started,text_57.stopped,key_resp_17.keys,key_resp_17.rt,key_resp_17.started,key_resp_17.stopped,text_83.started,text_83.stopped,text_60.started,text_60.stopped,image_2.started,image_2.stopped,text_58.started,text_58.stopped,key_resp_23.keys,key_resp_23.rt,key_resp_23.started,key_resp_23.stopped,text_62.started,text_62.stopped,key_resp_18.keys,key_resp_18.rt,key_resp_18.started,key_resp_18.stopped,text_84.started,text_84.stopped,question1_2.started,question1_2.stopped,question2_2.started,question2_2.stopped,question3_2.started,question3_2.stopped,question4_2.started,question4_2.stopped,question5_2.started,question5_2.stopped,question6_2.started,question6_2.stopped,image_15.started,image_15.stopped,key_resp.keys,key_resp.started,key_resp.stopped,text_59.started,text_59.stopped,key_resp_19.keys,key_resp_19.rt,key_resp_19.started,key_resp_19.stopped,text_85.started,text_85.stopped,text_61.started,text_61.stopped,image_17.started,image_17.stopped,text_63.started,text_63.stopped,key_resp_24.keys,key_resp_24.rt,key_resp_24.started,key_resp_24.stopped,text_64.started,text_64.stopped,key_resp_20.keys,key_resp_20.rt,key_resp_20.started,key_resp_20.stopped,storyImage_StartTime,storyImage_EndTime,clip_StartTime,clip_EndTime,text_67.started,text_67.stopped,text_68.started,text_68.stopped,participant,sA,sB,lA,lB,block_struct,play_stories,block,behavioral,random_seed,date,expName,psychopyVersion,frameRate,
0,,,,,,,,,,0,0,0,0,0,0,0,0,0,0,0,0,0,0,0,0,0,0,0,0,,,,,,,,,,,,,,,,,[41 43 23 14 34 21 12 32],[1 3 2 1 4 4 3 2],13.253152611000587,None,equal,26.014571138000065,13.253152611000587,None,26.04074764500001,13.253152611000587,None,13.253152611000587,None,0.000310223000269616,5.998569262000274,39.28615104400069,None,45.290264365999974,None,45.290264365999974,None,1,1.0545403839996652,45.290264365999974,None,45.290264365999974,None,46.37010725500022,None,2,1.1146568980002485,46.37010725500022,None,46.37010725500022,None,47.519449086999884,None,47.519449086999884,None,47.519449086999884,None,2,0.6443642479998744,47.519449086999884,None,48.18639318800069,None,2,0.9553031799996461,48.18639318800069,None,48.18639318800069,None,49.253232269000364,None,49.253232269000364,None,49.253232269000364,None,49.253232269000364,None,49.253232269000364,None,49.253232269000364,None,49.253232269000364,None,None,49.253232269000364,None,,,,,,,,,,,,,,,,,,,,,,,,,,,,,,,,,073021,0,3,1,2,1,1,2,0,32,2021_Jul_30_1237,listening_fmri,3.2.4,60.2070872135788,
0,,,,,,,,,,0,0,0,0,0,0,0,0,0,0,0,0,0,0,0,0,,,,,,,,,,,,,,,,,,,,,,,,,,,,,,,,,,,,,,,,,,,,,,,,,,,,,,,,,,,,,,,,,,,,,,,,,,,,,,,,,,,,,,,,,,,80.35244223800055,None,1,1.1011809740002718,80.35244223800055,None,80.35244223800055,None,81.48883990500053,None,81.48883990500053,None,81.48883990500053,None,1,0.7029771779998555,81.48883990500053,None,,,,,,,,,,,,,,,073021,0,3,1,2,1,1,2,0,32,2021_Jul_30_1237,listening_fmri,3.2.4,60.2070872135788,
0,parcelated_audio/41/41_1.ogg,,,,,,,,,0,0,0,0,0,0,0,0,0,0,0,0,,,,,,,,,,,,,0,0,0,0,0,0,0,0,,,,,,,,,,,,,,,,,,,,,,,,,,,,,,,,,,,,,,,,,,,,,,,,,,,,,,,,,,,,,,,,,,,,,,,,,,,,,,,,,,,,,,,,,,,,,82.21938750500067,None,1,1.1012692180001977,82.21938750500067,None,44.10337118700045,47.115552608000144,47.124175767999986,56.24493124000037,,,,,073021,0,3,1,2,1,1,2,0,32,2021_Jul_30_1237,listening_fmri,3.2.4,60.2070872135788,
0,parcelated_audio/41/41_2.ogg,,,,,,,,,0,0,0,0,0,0,0,0,0,0,0,0,,,,,,,,,,,,,0,0,0,0,0,1,1,1,,,,,,,,,,,,,,,,,,,,,,,,,,,,,,,,,,,,,,,,,,,,,,,,,,,,,,,,,,,,,,,,,,,,,,,,,,,,,,,,,,,,,,,,,,,,,,,,,,,,,56.2452140080004,63.48762292799984,,,,,073021,0,3,1,2,1,1,2,0,32,2021_Jul_30_1237,listening_fmri,3.2.4,60.2070872135788,
0,parcelated_audio/41/41_3.ogg,,,,,,,,,0,0,0,0,0,0,0,0,0,0,0,0,,,,,,,,,,,,,0,0,0,0,0,2,2,2,,,,,,,,,,,,,,,,,,,,,,,,,,,,,,,,,,,,,,,,,,,,,,,,,,,,,,,,,,,,,,,,,,,,,,,,,,,,,,,,,,,,,,,,,,,,,,,,,,,,,63.488371791000645,67.77813538700048,,,,,073021,0,3,1,2,1,1,2,0,32,2021_Jul_30_1237,listening_fmri,3.2.4,60.2070872135788,
0,parcelated_audio/41/41_4.ogg,,,,,,,,,0,0,0,0,0,0,0,0,0,0,0,0,,,,,,,,,,,,,0,0,0,0,0,3,3,3,,,,,,,,,,,,,,,,,,,,,,,,,,,,,,,,,,,,,,,,,,,,,,,,,,,,,,,,,,,,,,,,,,,,,,,,,,,,,,,,,,,,,,,,,,,,,,,,,,,,,67.77841357299985,71.73838997300027,,,,,073021,0,3,1,2,1,1,2,0,32,2021_Jul_30_1237,listening_fmri,3.2.4,60.2070872135788,
0,parcelated_audio/41/41_5.ogg,,,,,,,,,0,0,0,0,0,0,0,0,0,0,0,0,,,,,,,,,,,,,0,0,0,0,0,4,4,4,,,,,,,,,,,,,,,,,,,,,,,,,,,,,,,,,,,,,,,,,,,,,,,,,,,,,,,,,,,,,,,,,,,,,,,,,,,,,,,,,,,,,,,,,,,,,,,,,,,,,71.73866725700009,77.86390553300043,,,,,073021,0,3,1,2,1,1,2,0,32,2021_Jul_30_1237,listening_fmri,3.2.4,60.2070872135788,
0,parcelated_audio/41/41_6.ogg,,,,,,,,,0,0,0,0,0,0,0,0,0,0,0,0,,,,,,,,,,,,,0,0,0,0,0,5,5,5,,,,,,,,,,,,,,,,,,,,,,,,,,,,,,,,,,,,,,,,,,,,,,,,,,,,,,,,,,,,,,,,,,,,,,,,,,,,,,,,,,,,,,,,,,,,,,,,,,,,,77.86431475000063,87.7860986149999,,,,,073021,0,3,1,2,1,1,2,0,32,2021_Jul_30_1237,listening_fmri,3.2.4,60.2070872135788,
0,parcelated_audio/41/41_7.ogg,,,,,,,,,0,0,0,0,0,0,0,0,0,0,0,0,,,,,,,,,,,,,0,0,0,0,0,6,6,6,,,,,,,,,,,,,,,,,,,,,,,,,,,,,,,,,,,,,,,,,,,,,,,,,,,,,,,,,,,,,,,,,,,,,,,,,,,,,,,,,,,,,,,,,,,,,,,,,,,,,87.78640662199996,95.50399607100007,,,,,073021,0,3,1,2,1,1,2,0,32,2021_Jul_30_1237,listening_fmri,3.2.4,60.2070872135788,
0,parcelated_audio/41/41_8.ogg,,,,,,,,,0,0,0,0,0,0,0,0,0,0,0,0,,,,,,,,,,,,,0,0,0,0,0,7,7,7,,,,,,,,,,,,,,,,,,,,,,,,,,,,,,,,,,,,,,,,,,,,,,,,,,,,,,,,,,,,,,,,,,,,,,,,,,,,,,,,,,,,,,,,,,,,,,,,,,,,,95.50435141100024,99.73851699500028,,,,,073021,0,3,1,2,1,1,2,0,32,2021_Jul_30_1237,listening_fmri,3.2.4,60.2070872135788,
0,parcelated_audio/41/41_9.ogg,,,,,,,,,0,0,0,0,0,0,0,0,0,0,0,0,,,,,,,,,,,,,0,0,0,0,0,8,8,8,,,,,,,,,,,,,,,,,,,,,,,,,,,,,,,,,,,,,,,,,,,,,,,,,,,,,,,,,,,,,,,,,,,,,,,,,,,,,,,,,,,,,,,,,,,,,,,,,,,,,99.73937952400047,109.3891342070001,,,,,073021,0,3,1,2,1,1,2,0,32,2021_Jul_30_1237,listening_fmri,3.2.4,60.2070872135788,
0,parcelated_audio/41/41_10.ogg,,,,,,,,,0,0,0,0,0,0,0,0,0,0,0,0,,,,,,,,,,,,,0,0,0,0,0,9,9,9,,,,,,,,,,,,,,,,,,,,,,,,,,,,,,,,,,,,,,,,,,,,,,,,,,,,,,,,,,,,,,,,,,,,,,,,,,,,,,,,,,,,,,,,,,,,,,,,,,,,,109.38949221400071,115.90119518900065,,,,,073021,0,3,1,2,1,1,2,0,32,2021_Jul_30_1237,listening_fmri,3.2.4,60.2070872135788,
0,parcelated_audio/41/41_11.ogg,,,,,,,,,0,0,0,0,0,0,0,0,0,0,0,0,,,,,,,,,,,,,0,0,0,0,0,10,10,10,,,,,,,,,,,,,,,,,,,,,,,,,,,,,,,,,,,,,,,,,,,,,,,,,,,,,,,,,,,,,,,,,,,,,,,,,,,,,,,,,,,,,,,,,,,,,,,,,,,,,115.90155314700041,119.66612648400042,,,,,073021,0,3,1,2,1,1,2,0,32,2021_Jul_30_1237,listening_fmri,3.2.4,60.2070872135788,
0,parcelated_audio/41/41_12.ogg,,,,,,,,,0,0,0,0,0,0,0,0,0,0,0,0,,,,,,,,,,,,,0,0,0,0,0,11,11,11,,,,,,,,,,,,,,,,,,,,,,,,,,,,,,,,,,,,,,,,,,,,,,,,,,,,,,,,,,,,,,,,,,,,,,,,,,,,,,,,,,,,,,,,,,,,,,,,,,,,,119.66656069800047,129.40916705400014,,,,,073021,0,3,1,2,1,1,2,0,32,2021_Jul_30_1237,listening_fmri,3.2.4,60.2070872135788,
0,parcelated_audio/41/41_13.ogg,,,,,,,,,0,0,0,0,0,0,0,0,0,0,0,0,,,,,,,,,,,,,0,0,0,0,0,12,12,12,,,,,,,,,,,,,,,,,,,,,,,,,,,,,,,,,,,,,,,,,,,,,,,,,,,,,,,,,,,,,,,,,,,,,,,,,,,,,,,,,,,,,,,,,,,,,,,,,,,,,129.4102813340005,135.22511122800006,,,,,073021,0,3,1,2,1,1,2,0,32,2021_Jul_30_1237,listening_fmri,3.2.4,60.2070872135788,
