count,audio,trials_14.thisRepN,trials_14.thisTrialN,trials_14.thisN,trials_14.thisIndex,trials_3.thisRepN,trials_3.thisTrialN,trials_3.thisN,trials_3.thisIndex,trials_4.thisRepN,trials_4.thisTrialN,trials_4.thisN,trials_4.thisIndex,trials_6.thisRepN,trials_6.thisTrialN,trials_6.thisN,trials_6.thisIndex,trials_9.thisRepN,trials_9.thisTrialN,trials_9.thisN,trials_9.thisIndex,trials_10.thisRepN,trials_10.thisTrialN,trials_10.thisN,trials_10.thisIndex,trials_12.thisRepN,trials_12.thisTrialN,trials_12.thisN,trials_12.thisIndex,trials_25.thisRepN,trials_25.thisTrialN,trials_25.thisN,trials_25.thisIndex,trials_15.thisRepN,trials_15.thisTrialN,trials_15.thisN,trials_15.thisIndex,trials_26.thisRepN,trials_26.thisTrialN,trials_26.thisN,trials_26.thisIndex,story_list_block2,action_list_block2,textTrigger.started,textTrigger.stopped,getTrigger.keys,getTrigger.rt,getTrigger.started,getTrigger.stopped,triggerTime,text_76.started,text_76.stopped,text_77.started,text_77.stopped,startWait,endWait,image_23.started,image_23.stopped,text_55.started,text_55.stopped,text_56.started,text_56.stopped,key_resp_2.keys,key_resp_2.rt,key_resp_2.started,key_resp_2.stopped,text_82.started,text_82.stopped,text_64.started,text_64.stopped,key_resp_20.keys,key_resp_20.rt,key_resp_20.started,key_resp_20.stopped,storyImage_StartTime,storyImage_EndTime,clip_StartTime,clip_EndTime,text_67.started,text_67.stopped,text_68.started,text_68.stopped,participant,sA,sB,lA,lB,block_struct,play_stories,block,behavioral,random_seed,date,expName,psychopyVersion,frameRate,
0,,,,,,,,,,0,0,0,0,0,0,0,0,,,,,,,,,,,,,,,,,,,,,,,,,[42 13 22 31 11 44 33 24],[3 4 2 1 4 3 1 2],16.839576352999757,None,equal,30.354738072000146,16.839576352999757,None,30.389566279000064,16.839576352999757,None,16.839576352999757,None,0.0003918749998774729,6.015080197000316,47.228903669999454,None,,,,,,,,,,,,,,,,,,,,,,,,,092821,2,3,1,3,0,1,2,0,70,2021_Sep_28_1037,listening_fmri,3.2.4,60.03665730225012,
1,parcelated_audio/13/13_1.ogg,,,,,,,,,0,0,0,0,0,1,1,1,0,0,0,0,,,,,,,,,0,0,0,0,0,0,0,0,,,,,,,,,,,,,,,,,,,,,,53.23907639999925,None,53.23907639999925,None,3,2.9721431349998966,53.23907639999925,None,53.23907639999925,None,56.239317949,None,8,2.8919025919994965,56.239317949,None,11.940164749999894,14.94908186900011,14.954485111000395,26.6445360860007,,,,,092821,2,3,1,3,0,1,2,0,70,2021_Sep_28_1037,listening_fmri,3.2.4,60.03665730225012,
1,parcelated_audio/13/13_2.ogg,,,,,,,,,0,0,0,0,0,1,1,1,0,0,0,0,,,,,,,,,0,0,0,0,0,1,1,1,,,,,,,,,,,,,,,,,,,,,,,,,,,,,,,,,,,,,,,,26.64504764100002,32.745739760000106,,,,,092821,2,3,1,3,0,1,2,0,70,2021_Sep_28_1037,listening_fmri,3.2.4,60.03665730225012,
1,parcelated_audio/13/13_3.ogg,,,,,,,,,0,0,0,0,0,1,1,1,0,0,0,0,,,,,,,,,0,0,0,0,0,2,2,2,,,,,,,,,,,,,,,,,,,,,,,,,,,,,,,,,,,,,,,,32.74608704500042,41.10581395400004,,,,,092821,2,3,1,3,0,1,2,0,70,2021_Sep_28_1037,listening_fmri,3.2.4,60.03665730225012,
1,parcelated_audio/13/13_4.ogg,,,,,,,,,0,0,0,0,0,1,1,1,0,0,0,0,,,,,,,,,0,0,0,0,0,3,3,3,,,,,,,,,,,,,,,,,,,,,,,,,,,,,,,,,,,,,,,,41.106331066000166,51.342799025000204,,,,,092821,2,3,1,3,0,1,2,0,70,2021_Sep_28_1037,listening_fmri,3.2.4,60.03665730225012,
1,parcelated_audio/13/13_5.ogg,,,,,,,,,0,0,0,0,0,1,1,1,0,0,0,0,,,,,,,,,0,0,0,0,0,4,4,4,,,,,,,,,,,,,,,,,,,,,,,,,,,,,,,,,,,,,,,,51.34314377300052,57.3856621620007,,,,,092821,2,3,1,3,0,1,2,0,70,2021_Sep_28_1037,listening_fmri,3.2.4,60.03665730225012,
1,parcelated_audio/13/13_6.ogg,,,,,,,,,0,0,0,0,0,1,1,1,0,0,0,0,,,,,,,,,0,0,0,0,0,5,5,5,,,,,,,,,,,,,,,,,,,,,,,,,,,,,,,,,,,,,,,,57.38619318700057,62.09401089200037,,,,,092821,2,3,1,3,0,1,2,0,70,2021_Sep_28_1037,listening_fmri,3.2.4,60.03665730225012,
1,parcelated_audio/13/13_7.ogg,,,,,,,,,0,0,0,0,0,1,1,1,0,0,0,0,,,,,,,,,0,0,0,0,0,6,6,6,,,,,,,,,,,,,,,,,,,,,,,,,,,,,,,,,,,,,,,,62.09430662500017,69.73762331700073,,,,,092821,2,3,1,3,0,1,2,0,70,2021_Sep_28_1037,listening_fmri,3.2.4,60.03665730225012,
1,parcelated_audio/13/13_8.ogg,,,,,,,,,0,0,0,0,0,1,1,1,0,0,0,0,,,,,,,,,0,0,0,0,0,7,7,7,,,,,,,,,,,,,,,,,,,,,,,,,,,,,,,,,,,,,,,,69.73809474000063,75.03865994199987,,,,,092821,2,3,1,3,0,1,2,0,70,2021_Sep_28_1037,listening_fmri,3.2.4,60.03665730225012,
1,parcelated_audio/13/13_9.ogg,,,,,,,,,0,0,0,0,0,1,1,1,0,0,0,0,,,,,,,,,0,0,0,0,0,8,8,8,,,,,,,,,,,,,,,,,,,,,,,,,,,,,,,,,,,,,,,,75.03894359700007,79.63875438600007,,,,,092821,2,3,1,3,0,1,2,0,70,2021_Sep_28_1037,listening_fmri,3.2.4,60.03665730225012,
1,parcelated_audio/13/13_10.ogg,,,,,,,,,0,0,0,0,0,1,1,1,0,0,0,0,,,,,,,,,0,0,0,0,0,9,9,9,,,,,,,,,,,,,,,,,,,,,,,,,,,,,,,,,,,,,,,,79.6392579379999,85.43747846699989,,,,,092821,2,3,1,3,0,1,2,0,70,2021_Sep_28_1037,listening_fmri,3.2.4,60.03665730225012,
1,parcelated_audio/13/13_11.ogg,,,,,,,,,0,0,0,0,0,1,1,1,0,0,0,0,,,,,,,,,0,0,0,0,0,10,10,10,,,,,,,,,,,,,,,,,,,,,,,,,,,,,,,,,,,,,,,,85.43774718200075,90.04744938600015,,,,,092821,2,3,1,3,0,1,2,0,70,2021_Sep_28_1037,listening_fmri,3.2.4,60.03665730225012,
1,parcelated_audio/13/13_12.ogg,,,,,,,,,0,0,0,0,0,1,1,1,0,0,0,0,,,,,,,,,0,0,0,0,0,11,11,11,,,,,,,,,,,,,,,,,,,,,,,,,,,,,,,,,,,,,,,,90.04775291500027,98.51475898100034,,,,,092821,2,3,1,3,0,1,2,0,70,2021_Sep_28_1037,listening_fmri,3.2.4,60.03665730225012,
1,parcelated_audio/13/13_13.ogg,,,,,,,,,0,0,0,0,0,1,1,1,0,0,0,0,,,,,,,,,0,0,0,0,0,12,12,12,,,,,,,,,,,,,,,,,,,,,,,,,,,,,,,,,,,,,,,,98.51503167100054,108.40956850800012,,,,,092821,2,3,1,3,0,1,2,0,70,2021_Sep_28_1037,listening_fmri,3.2.4,60.03665730225012,
1,parcelated_audio/13/13_14.ogg,,,,,,,,,0,0,0,0,0,1,1,1,0,0,0,0,,,,,,,,,0,0,0,0,0,13,13,13,,,,,,,,,,,,,,,,,,,,,,,,,,,,,,,,,,,,,,,,108.40984006100007,116.58810065299986,,,,,092821,2,3,1,3,0,1,2,0,70,2021_Sep_28_1037,listening_fmri,3.2.4,60.03665730225012,
1,parcelated_audio/13/13_15.ogg,,,,,,,,,0,0,0,0,0,1,1,1,0,0,0,0,,,,,,,,,0,0,0,0,0,14,14,14,,,,,,,,,,,,,,,,,,,,,,,,,,,,,,,,,,,,,,,,116.58850182100014,125.26305872600005,,,,,092821,2,3,1,3,0,1,2,0,70,2021_Sep_28_1037,listening_fmri,3.2.4,60.03665730225012,
1,parcelated_audio/13/13_16.ogg,,,,,,,,,0,0,0,0,0,1,1,1,0,0,0,0,,,,,,,,,0,0,0,0,0,15,15,15,,,,,,,,,,,,,,,,,,,,,,,,,,,,,,,,,,,,,,,,125.26357911000014,127.57219712200003,,,,,092821,2,3,1,3,0,1,2,0,70,2021_Sep_28_1037,listening_fmri,3.2.4,60.03665730225012,
1,parcelated_audio/13/13_17.ogg,,,,,,,,,0,0,0,0,0,1,1,1,0,0,0,0,,,,,,,,,0,0,0,0,0,16,16,16,,,,,,,,,,,,,,,,,,,,,,,,,,,,,,,,,,,,,,,,127.5727563800001,135.15338768200036,,,,,092821,2,3,1,3,0,1,2,0,70,2021_Sep_28_1037,listening_fmri,3.2.4,60.03665730225012,
1,parcelated_audio/13/13_18.ogg,,,,,,,,,0,0,0,0,0,1,1,1,0,0,0,0,,,,,,,,,0,0,0,0,0,17,17,17,,,,,,,,,,,,,,,,,,,,,,,,,,,,,,,,,,,,,,,,135.15435383800013,145.35191467000004,,,,,092821,2,3,1,3,0,1,2,0,70,2021_Sep_28_1037,listening_fmri,3.2.4,60.03665730225012,
1,parcelated_audio/13/13_19.ogg,,,,,,,,,0,0,0,0,0,1,1,1,0,0,0,0,,,,,,,,,0,0,0,0,0,18,18,18,,,,,,,,,,,,,,,,,,,,,,,,,,,,,,,,,,,,,,,,145.35226329299985,153.31348789000003,,,,,092821,2,3,1,3,0,1,2,0,70,2021_Sep_28_1037,listening_fmri,3.2.4,60.03665730225012,
1,parcelated_audio/13/13_20.ogg,,,,,,,,,0,0,0,0,0,1,1,1,0,0,0,0,,,,,,,,,0,0,0,0,0,19,19,19,,,,,,,,,,,,,,,,,,,,,,,,,,,,,,,,,,,,,,,,153.31405862800057,158.49239733000013,,,,,092821,2,3,1,3,0,1,2,0,70,2021_Sep_28_1037,listening_fmri,3.2.4,60.03665730225012,
1,parcelated_audio/13/13_21.ogg,,,,,,,,,0,0,0,0,0,1,1,1,0,0,0,0,,,,,,,,,0,0,0,0,0,20,20,20,,,,,,,,,,,,,,,,,,,,,,,,,,,,,,,,,,,,,,,,158.49283381900023,161.8093102640005,,,,,092821,2,3,1,3,0,1,2,0,70,2021_Sep_28_1037,listening_fmri,3.2.4,60.03665730225012,
1,parcelated_audio/13/13_22.ogg,,,,,,,,,0,0,0,0,0,1,1,1,0,0,0,0,,,,,,,,,0,0,0,0,0,21,21,21,,,,,,,,,,,,,,,,,,,,,,,,,,,,,,,,,,,,,,,,161.80959296000037,165.22805547700045,,,,,092821,2,3,1,3,0,1,2,0,70,2021_Sep_28_1037,listening_fmri,3.2.4,60.03665730225012,
1,parcelated_audio/13/13_23.ogg,,,,,,,,,0,0,0,0,0,1,1,1,0,0,0,0,,,,,,,,,0,0,0,0,0,22,22,22,,,,,,,,,,,,,,,,,,,,,,,,,,,,,,,,,,,,,,,,165.22850179299985,170.48753568200027,,,,,092821,2,3,1,3,0,1,2,0,70,2021_Sep_28_1037,listening_fmri,3.2.4,60.03665730225012,
1,parcelated_audio/13/13_24.ogg,,,,,,,,,0,0,0,0,0,1,1,1,0,0,0,0,,,,,,,,,0,0,0,0,0,23,23,23,,,,,,,,,,,,,,,,,,,,,,,,,,,,,,,,,,,,,,,,170.4879579920007,180.20943242400062,,,,,092821,2,3,1,3,0,1,2,0,70,2021_Sep_28_1037,listening_fmri,3.2.4,60.03665730225012,
1,parcelated_audio/13/13_25.ogg,,,,,,,,,0,0,0,0,0,1,1,1,0,0,0,0,,,,,,,,,0,0,0,0,0,24,24,24,,,,,,,,,,,,,,,,,,,,,,,,,,,,,,,,,,,,,,,,180.20986245200038,187.486798678,,,,,092821,2,3,1,3,0,1,2,0,70,2021_Sep_28_1037,listening_fmri,3.2.4,60.03665730225012,
1,parcelated_audio/13/13_26.ogg,,,,,,,,,0,0,0,0,0,1,1,1,0,0,0,0,,,,,,,,,0,0,0,0,0,25,25,25,,,,,,,,,,,,,,,,,,,,,,,,,,,,,,,,,,,,,,,,187.4870657070005,193.6710268550005,,,,,092821,2,3,1,3,0,1,2,0,70,2021_Sep_28_1037,listening_fmri,3.2.4,60.03665730225012,
1,parcelated_audio/13/13_27.ogg,,,,,,,,,0,0,0,0,0,1,1,1,0,0,0,0,,,,,,,,,0,0,0,0,0,26,26,26,,,,,,,,,,,,,,,,,,,,,,,,,,,,,,,,,,,,,,,,193.6712727840004,198.90241164300005,,,,,092821,2,3,1,3,0,1,2,0,70,2021_Sep_28_1037,listening_fmri,3.2.4,60.03665730225012,
1,parcelated_audio/13/13_28.ogg,,,,,,,,,0,0,0,0,0,1,1,1,0,0,0,0,,,,,,,,,0,0,0,0,0,27,27,27,,,,,,,,,,,,,,,,,,,,,,,,,,,,,,,,,,,,,,,,198.90268477500013,204.3345868160004,,,,,092821,2,3,1,3,0,1,2,0,70,2021_Sep_28_1037,listening_fmri,3.2.4,60.03665730225012,
1,parcelated_audio/13/13_29.ogg,,,,,,,,,0,0,0,0,0,1,1,1,0,0,0,0,,,,,,,,,0,0,0,0,0,28,28,28,,,,,,,,,,,,,,,,,,,,,,,,,,,,,,,,,,,,,,,,204.3350327349999,207.61485039499985,,,,,092821,2,3,1,3,0,1,2,0,70,2021_Sep_28_1037,listening_fmri,3.2.4,60.03665730225012,
1,parcelated_audio/13/13_30.ogg,,,,,,,,,0,0,0,0,0,1,1,1,0,0,0,0,,,,,,,,,0,0,0,0,0,29,29,29,,,,,,,,,,,,,,,,,,,,,,,,,,,,,,,,,,,,,,,,207.61528261900003,211.07053293199988,,,,,092821,2,3,1,3,0,1,2,0,70,2021_Sep_28_1037,listening_fmri,3.2.4,60.03665730225012,
1,parcelated_audio/13/13_31.ogg,,,,,,,,,0,0,0,0,0,1,1,1,0,0,0,0,,,,,,,,,0,0,0,0,0,30,30,30,,,,,,,,,,,,,,,,,,,,,,,,,,,,,,,,,,,,,,,,211.07118679999985,217.0141447470005,,,,,092821,2,3,1,3,0,1,2,0,70,2021_Sep_28_1037,listening_fmri,3.2.4,60.03665730225012,
1,,,,,,,,,,0,0,0,0,0,1,1,1,0,0,0,0,,,,,,,,,0,0,0,0,,,,,,,,,,,,,,,,,,,,,,,,,,,,,,,,,,,,,,,,,,,,,,,,,,092821,2,3,1,3,0,1,2,0,70,2021_Sep_28_1037,listening_fmri,3.2.4,60.03665730225012,
,,,,,,,,,,,,,,,,,,,,,,,,,,,,,,,,,,,,,,,,,,,,,,,,,,,,,,,217.01451313500002,223.01601634600047,264.2256866779999,None,,,,,,,,,,,,,,,,,,,,,270.23949013199945,None,270.23949013199945,None,,,,,,,,,,,,,,,
﻿count,audio,trials_14.thisRepN,trials_14.thisTrialN,trials_14.thisN,trials_14.thisIndex,trials_3.thisRepN,trials_3.thisTrialN,trials_3.thisN,trials_3.thisIndex,trials_4.thisRepN,trials_4.thisTrialN,trials_4.thisN,trials_4.thisIndex,trials_6.thisRepN,trials_6.thisTrialN,trials_6.thisN,trials_6.thisIndex,trials_9.thisRepN,trials_9.thisTrialN,trials_9.thisN,trials_9.thisIndex,trials_10.thisRepN,trials_10.thisTrialN,trials_10.thisN,trials_10.thisIndex,trials_12.thisRepN,trials_12.thisTrialN,trials_12.thisN,trials_12.thisIndex,trials_25.thisRepN,trials_25.thisTrialN,trials_25.thisN,trials_25.thisIndex,trials_15.thisRepN,trials_15.thisTrialN,trials_15.thisN,trials_15.thisIndex,trials_26.thisRepN,trials_26.thisTrialN,trials_26.thisN,trials_26.thisIndex,trials_11.thisRepN,trials_11.thisTrialN,trials_11.thisN,trials_11.thisIndex,story_list_block2,action_list_block2,textTrigger.started,textTrigger.stopped,getTrigger.keys,getTrigger.rt,getTrigger.started,getTrigger.stopped,triggerTime,text_76.started,text_76.stopped,text_77.started,text_77.stopped,startWait,endWait,image_23.started,image_23.stopped,text_55.started,text_55.stopped,text_56.started,text_56.stopped,key_resp_2.keys,key_resp_2.rt,key_resp_2.started,key_resp_2.stopped,text_82.started,text_82.stopped,text_64.started,text_64.stopped,key_resp_20.keys,key_resp_20.rt,key_resp_20.started,key_resp_20.stopped,storyImage_StartTime,storyImage_EndTime,clip_StartTime,clip_EndTime,text_67.started,text_67.stopped,text_68.started,text_68.stopped,text_57.started,text_57.stopped,key_resp_17.keys,key_resp_17.rt,key_resp_17.started,key_resp_17.stopped,text_83.started,text_83.stopped,text_60.started,text_60.stopped,image_2.started,image_2.stopped,text_58.started,text_58.stopped,key_resp_23.keys,key_resp_23.rt,key_resp_23.started,key_resp_23.stopped,text_62.started,text_62.stopped,key_resp_18.keys,key_resp_18.rt,key_resp_18.started,key_resp_18.stopped,text_84.started,text_84.stopped,question1_2.started,question1_2.stopped,question2_2.started,question2_2.stopped,question3_2.started,question3_2.stopped,question4_2.started,question4_2.stopped,question5_2.started,question5_2.stopped,question6_2.started,question6_2.stopped,image_15.started,image_15.stopped,key_resp.keys,key_resp.started,key_resp.stopped,text_59.started,text_59.stopped,key_resp_19.keys,key_resp_19.rt,key_resp_19.started,key_resp_19.stopped,text_85.started,text_85.stopped,text_61.started,text_61.stopped,image_17.started,image_17.stopped,text_63.started,text_63.stopped,key_resp_24.keys,key_resp_24.rt,key_resp_24.started,key_resp_24.stopped,participant,sA,sB,lA,lB,block_struct,play_stories,block,behavioral,random_seed,date,expName,psychopyVersion,frameRate,
0,,,,,,,,,,0,0,0,0,0,0,0,0,,,,,,,,,,,,,,,,,,,,,,,,,,,,,[42 13 22 31 11 44 33 24],[3 4 2 1 4 3 1 2],16.839576352999757,None,equal,30.354738072000146,16.839576352999757,None,30.389566279000064,16.839576352999757,None,16.839576352999757,None,0.0003918749998774729,6.015080197000316,47.228903669999454,None,,,,,,,,,,,,,,,,,,,,,,,,,,,,,,,,,,,,,,,,,,,,,,,,,,,,,,,,,,,,,,,,,,,,,,,,,,,,,,,,,,,,,,092821,2,3,1,3,0,1,2,0,70,2021_Sep_28_1037,listening_fmri,3.2.4,60.03665730225012,
1,parcelated_audio/13/13_1.ogg,,,,,,,,,0,0,0,0,0,1,1,1,0,0,0,0,,,,,,,,,0,0,0,0,0,0,0,0,,,,,,,,,,,,,,,,,,,,,,,,,,53.23907639999925,None,53.23907639999925,None,3,2.9721431349998966,53.23907639999925,None,53.23907639999925,None,56.239317949,None,8,2.8919025919994965,56.239317949,None,11.940164749999894,14.94908186900011,14.954485111000395,26.6445360860007,,,,,,,,,,,,,,,,,,,,,,,,,,,,,,,,,,,,,,,,,,,,,,,,,,,,,,,,,,,,,,,,,,092821,2,3,1,3,0,1,2,0,70,2021_Sep_28_1037,listening_fmri,3.2.4,60.03665730225012,
1,parcelated_audio/13/13_2.ogg,,,,,,,,,0,0,0,0,0,1,1,1,0,0,0,0,,,,,,,,,0,0,0,0,0,1,1,1,,,,,,,,,,,,,,,,,,,,,,,,,,,,,,,,,,,,,,,,,,,,26.64504764100002,32.745739760000106,,,,,,,,,,,,,,,,,,,,,,,,,,,,,,,,,,,,,,,,,,,,,,,,,,,,,,,,,,,,,,,,,,092821,2,3,1,3,0,1,2,0,70,2021_Sep_28_1037,listening_fmri,3.2.4,60.03665730225012,
1,parcelated_audio/13/13_3.ogg,,,,,,,,,0,0,0,0,0,1,1,1,0,0,0,0,,,,,,,,,0,0,0,0,0,2,2,2,,,,,,,,,,,,,,,,,,,,,,,,,,,,,,,,,,,,,,,,,,,,32.74608704500042,41.10581395400004,,,,,,,,,,,,,,,,,,,,,,,,,,,,,,,,,,,,,,,,,,,,,,,,,,,,,,,,,,,,,,,,,,092821,2,3,1,3,0,1,2,0,70,2021_Sep_28_1037,listening_fmri,3.2.4,60.03665730225012,
1,parcelated_audio/13/13_4.ogg,,,,,,,,,0,0,0,0,0,1,1,1,0,0,0,0,,,,,,,,,0,0,0,0,0,3,3,3,,,,,,,,,,,,,,,,,,,,,,,,,,,,,,,,,,,,,,,,,,,,41.106331066000166,51.342799025000204,,,,,,,,,,,,,,,,,,,,,,,,,,,,,,,,,,,,,,,,,,,,,,,,,,,,,,,,,,,,,,,,,,092821,2,3,1,3,0,1,2,0,70,2021_Sep_28_1037,listening_fmri,3.2.4,60.03665730225012,
1,parcelated_audio/13/13_5.ogg,,,,,,,,,0,0,0,0,0,1,1,1,0,0,0,0,,,,,,,,,0,0,0,0,0,4,4,4,,,,,,,,,,,,,,,,,,,,,,,,,,,,,,,,,,,,,,,,,,,,51.34314377300052,57.3856621620007,,,,,,,,,,,,,,,,,,,,,,,,,,,,,,,,,,,,,,,,,,,,,,,,,,,,,,,,,,,,,,,,,,092821,2,3,1,3,0,1,2,0,70,2021_Sep_28_1037,listening_fmri,3.2.4,60.03665730225012,
1,parcelated_audio/13/13_6.ogg,,,,,,,,,0,0,0,0,0,1,1,1,0,0,0,0,,,,,,,,,0,0,0,0,0,5,5,5,,,,,,,,,,,,,,,,,,,,,,,,,,,,,,,,,,,,,,,,,,,,57.38619318700057,62.09401089200037,,,,,,,,,,,,,,,,,,,,,,,,,,,,,,,,,,,,,,,,,,,,,,,,,,,,,,,,,,,,,,,,,,092821,2,3,1,3,0,1,2,0,70,2021_Sep_28_1037,listening_fmri,3.2.4,60.03665730225012,
1,parcelated_audio/13/13_7.ogg,,,,,,,,,0,0,0,0,0,1,1,1,0,0,0,0,,,,,,,,,0,0,0,0,0,6,6,6,,,,,,,,,,,,,,,,,,,,,,,,,,,,,,,,,,,,,,,,,,,,62.09430662500017,69.73762331700073,,,,,,,,,,,,,,,,,,,,,,,,,,,,,,,,,,,,,,,,,,,,,,,,,,,,,,,,,,,,,,,,,,092821,2,3,1,3,0,1,2,0,70,2021_Sep_28_1037,listening_fmri,3.2.4,60.03665730225012,
1,parcelated_audio/13/13_8.ogg,,,,,,,,,0,0,0,0,0,1,1,1,0,0,0,0,,,,,,,,,0,0,0,0,0,7,7,7,,,,,,,,,,,,,,,,,,,,,,,,,,,,,,,,,,,,,,,,,,,,69.73809474000063,75.03865994199987,,,,,,,,,,,,,,,,,,,,,,,,,,,,,,,,,,,,,,,,,,,,,,,,,,,,,,,,,,,,,,,,,,092821,2,3,1,3,0,1,2,0,70,2021_Sep_28_1037,listening_fmri,3.2.4,60.03665730225012,
1,parcelated_audio/13/13_9.ogg,,,,,,,,,0,0,0,0,0,1,1,1,0,0,0,0,,,,,,,,,0,0,0,0,0,8,8,8,,,,,,,,,,,,,,,,,,,,,,,,,,,,,,,,,,,,,,,,,,,,75.03894359700007,79.63875438600007,,,,,,,,,,,,,,,,,,,,,,,,,,,,,,,,,,,,,,,,,,,,,,,,,,,,,,,,,,,,,,,,,,092821,2,3,1,3,0,1,2,0,70,2021_Sep_28_1037,listening_fmri,3.2.4,60.03665730225012,
1,parcelated_audio/13/13_10.ogg,,,,,,,,,0,0,0,0,0,1,1,1,0,0,0,0,,,,,,,,,0,0,0,0,0,9,9,9,,,,,,,,,,,,,,,,,,,,,,,,,,,,,,,,,,,,,,,,,,,,79.6392579379999,85.43747846699989,,,,,,,,,,,,,,,,,,,,,,,,,,,,,,,,,,,,,,,,,,,,,,,,,,,,,,,,,,,,,,,,,,092821,2,3,1,3,0,1,2,0,70,2021_Sep_28_1037,listening_fmri,3.2.4,60.03665730225012,
1,parcelated_audio/13/13_11.ogg,,,,,,,,,0,0,0,0,0,1,1,1,0,0,0,0,,,,,,,,,0,0,0,0,0,10,10,10,,,,,,,,,,,,,,,,,,,,,,,,,,,,,,,,,,,,,,,,,,,,85.43774718200075,90.04744938600015,,,,,,,,,,,,,,,,,,,,,,,,,,,,,,,,,,,,,,,,,,,,,,,,,,,,,,,,,,,,,,,,,,092821,2,3,1,3,0,1,2,0,70,2021_Sep_28_1037,listening_fmri,3.2.4,60.03665730225012,
1,parcelated_audio/13/13_12.ogg,,,,,,,,,0,0,0,0,0,1,1,1,0,0,0,0,,,,,,,,,0,0,0,0,0,11,11,11,,,,,,,,,,,,,,,,,,,,,,,,,,,,,,,,,,,,,,,,,,,,90.04775291500027,98.51475898100034,,,,,,,,,,,,,,,,,,,,,,,,,,,,,,,,,,,,,,,,,,,,,,,,,,,,,,,,,,,,,,,,,,092821,2,3,1,3,0,1,2,0,70,2021_Sep_28_1037,listening_fmri,3.2.4,60.03665730225012,
1,parcelated_audio/13/13_13.ogg,,,,,,,,,0,0,0,0,0,1,1,1,0,0,0,0,,,,,,,,,0,0,0,0,0,12,12,12,,,,,,,,,,,,,,,,,,,,,,,,,,,,,,,,,,,,,,,,,,,,98.51503167100054,108.40956850800012,,,,,,,,,,,,,,,,,,,,,,,,,,,,,,,,,,,,,,,,,,,,,,,,,,,,,,,,,,,,,,,,,,092821,2,3,1,3,0,1,2,0,70,2021_Sep_28_1037,listening_fmri,3.2.4,60.03665730225012,
1,parcelated_audio/13/13_14.ogg,,,,,,,,,0,0,0,0,0,1,1,1,0,0,0,0,,,,,,,,,0,0,0,0,0,13,13,13,,,,,,,,,,,,,,,,,,,,,,,,,,,,,,,,,,,,,,,,,,,,108.40984006100007,116.58810065299986,,,,,,,,,,,,,,,,,,,,,,,,,,,,,,,,,,,,,,,,,,,,,,,,,,,,,,,,,,,,,,,,,,092821,2,3,1,3,0,1,2,0,70,2021_Sep_28_1037,listening_fmri,3.2.4,60.03665730225012,
1,parcelated_audio/13/13_15.ogg,,,,,,,,,0,0,0,0,0,1,1,1,0,0,0,0,,,,,,,,,0,0,0,0,0,14,14,14,,,,,,,,,,,,,,,,,,,,,,,,,,,,,,,,,,,,,,,,,,,,116.58850182100014,125.26305872600005,,,,,,,,,,,,,,,,,,,,,,,,,,,,,,,,,,,,,,,,,,,,,,,,,,,,,,,,,,,,,,,,,,092821,2,3,1,3,0,1,2,0,70,2021_Sep_28_1037,listening_fmri,3.2.4,60.03665730225012,
1,parcelated_audio/13/13_16.ogg,,,,,,,,,0,0,0,0,0,1,1,1,0,0,0,0,,,,,,,,,0,0,0,0,0,15,15,15,,,,,,,,,,,,,,,,,,,,,,,,,,,,,,,,,,,,,,,,,,,,125.26357911000014,127.57219712200003,,,,,,,,,,,,,,,,,,,,,,,,,,,,,,,,,,,,,,,,,,,,,,,,,,,,,,,,,,,,,,,,,,092821,2,3,1,3,0,1,2,0,70,2021_Sep_28_1037,listening_fmri,3.2.4,60.03665730225012,
1,parcelated_audio/13/13_17.ogg,,,,,,,,,0,0,0,0,0,1,1,1,0,0,0,0,,,,,,,,,0,0,0,0,0,16,16,16,,,,,,,,,,,,,,,,,,,,,,,,,,,,,,,,,,,,,,,,,,,,127.5727563800001,135.15338768200036,,,,,,,,,,,,,,,,,,,,,,,,,,,,,,,,,,,,,,,,,,,,,,,,,,,,,,,,,,,,,,,,,,092821,2,3,1,3,0,1,2,0,70,2021_Sep_28_1037,listening_fmri,3.2.4,60.03665730225012,
1,parcelated_audio/13/13_18.ogg,,,,,,,,,0,0,0,0,0,1,1,1,0,0,0,0,,,,,,,,,0,0,0,0,0,17,17,17,,,,,,,,,,,,,,,,,,,,,,,,,,,,,,,,,,,,,,,,,,,,135.15435383800013,145.35191467000004,,,,,,,,,,,,,,,,,,,,,,,,,,,,,,,,,,,,,,,,,,,,,,,,,,,,,,,,,,,,,,,,,,092821,2,3,1,3,0,1,2,0,70,2021_Sep_28_1037,listening_fmri,3.2.4,60.03665730225012,
1,parcelated_audio/13/13_19.ogg,,,,,,,,,0,0,0,0,0,1,1,1,0,0,0,0,,,,,,,,,0,0,0,0,0,18,18,18,,,,,,,,,,,,,,,,,,,,,,,,,,,,,,,,,,,,,,,,,,,,145.35226329299985,153.31348789000003,,,,,,,,,,,,,,,,,,,,,,,,,,,,,,,,,,,,,,,,,,,,,,,,,,,,,,,,,,,,,,,,,,092821,2,3,1,3,0,1,2,0,70,2021_Sep_28_1037,listening_fmri,3.2.4,60.03665730225012,
1,parcelated_audio/13/13_20.ogg,,,,,,,,,0,0,0,0,0,1,1,1,0,0,0,0,,,,,,,,,0,0,0,0,0,19,19,19,,,,,,,,,,,,,,,,,,,,,,,,,,,,,,,,,,,,,,,,,,,,153.31405862800057,158.49239733000013,,,,,,,,,,,,,,,,,,,,,,,,,,,,,,,,,,,,,,,,,,,,,,,,,,,,,,,,,,,,,,,,,,092821,2,3,1,3,0,1,2,0,70,2021_Sep_28_1037,listening_fmri,3.2.4,60.03665730225012,
1,parcelated_audio/13/13_21.ogg,,,,,,,,,0,0,0,0,0,1,1,1,0,0,0,0,,,,,,,,,0,0,0,0,0,20,20,20,,,,,,,,,,,,,,,,,,,,,,,,,,,,,,,,,,,,,,,,,,,,158.49283381900023,161.8093102640005,,,,,,,,,,,,,,,,,,,,,,,,,,,,,,,,,,,,,,,,,,,,,,,,,,,,,,,,,,,,,,,,,,092821,2,3,1,3,0,1,2,0,70,2021_Sep_28_1037,listening_fmri,3.2.4,60.03665730225012,
1,parcelated_audio/13/13_22.ogg,,,,,,,,,0,0,0,0,0,1,1,1,0,0,0,0,,,,,,,,,0,0,0,0,0,21,21,21,,,,,,,,,,,,,,,,,,,,,,,,,,,,,,,,,,,,,,,,,,,,161.80959296000037,165.22805547700045,,,,,,,,,,,,,,,,,,,,,,,,,,,,,,,,,,,,,,,,,,,,,,,,,,,,,,,,,,,,,,,,,,092821,2,3,1,3,0,1,2,0,70,2021_Sep_28_1037,listening_fmri,3.2.4,60.03665730225012,
1,parcelated_audio/13/13_23.ogg,,,,,,,,,0,0,0,0,0,1,1,1,0,0,0,0,,,,,,,,,0,0,0,0,0,22,22,22,,,,,,,,,,,,,,,,,,,,,,,,,,,,,,,,,,,,,,,,,,,,165.22850179299985,170.48753568200027,,,,,,,,,,,,,,,,,,,,,,,,,,,,,,,,,,,,,,,,,,,,,,,,,,,,,,,,,,,,,,,,,,092821,2,3,1,3,0,1,2,0,70,2021_Sep_28_1037,listening_fmri,3.2.4,60.03665730225012,
1,parcelated_audio/13/13_24.ogg,,,,,,,,,0,0,0,0,0,1,1,1,0,0,0,0,,,,,,,,,0,0,0,0,0,23,23,23,,,,,,,,,,,,,,,,,,,,,,,,,,,,,,,,,,,,,,,,,,,,170.4879579920007,180.20943242400062,,,,,,,,,,,,,,,,,,,,,,,,,,,,,,,,,,,,,,,,,,,,,,,,,,,,,,,,,,,,,,,,,,092821,2,3,1,3,0,1,2,0,70,2021_Sep_28_1037,listening_fmri,3.2.4,60.03665730225012,
1,parcelated_audio/13/13_25.ogg,,,,,,,,,0,0,0,0,0,1,1,1,0,0,0,0,,,,,,,,,0,0,0,0,0,24,24,24,,,,,,,,,,,,,,,,,,,,,,,,,,,,,,,,,,,,,,,,,,,,180.20986245200038,187.486798678,,,,,,,,,,,,,,,,,,,,,,,,,,,,,,,,,,,,,,,,,,,,,,,,,,,,,,,,,,,,,,,,,,092821,2,3,1,3,0,1,2,0,70,2021_Sep_28_1037,listening_fmri,3.2.4,60.03665730225012,
1,parcelated_audio/13/13_26.ogg,,,,,,,,,0,0,0,0,0,1,1,1,0,0,0,0,,,,,,,,,0,0,0,0,0,25,25,25,,,,,,,,,,,,,,,,,,,,,,,,,,,,,,,,,,,,,,,,,,,,187.4870657070005,193.6710268550005,,,,,,,,,,,,,,,,,,,,,,,,,,,,,,,,,,,,,,,,,,,,,,,,,,,,,,,,,,,,,,,,,,092821,2,3,1,3,0,1,2,0,70,2021_Sep_28_1037,listening_fmri,3.2.4,60.03665730225012,
1,parcelated_audio/13/13_27.ogg,,,,,,,,,0,0,0,0,0,1,1,1,0,0,0,0,,,,,,,,,0,0,0,0,0,26,26,26,,,,,,,,,,,,,,,,,,,,,,,,,,,,,,,,,,,,,,,,,,,,193.6712727840004,198.90241164300005,,,,,,,,,,,,,,,,,,,,,,,,,,,,,,,,,,,,,,,,,,,,,,,,,,,,,,,,,,,,,,,,,,092821,2,3,1,3,0,1,2,0,70,2021_Sep_28_1037,listening_fmri,3.2.4,60.03665730225012,
1,parcelated_audio/13/13_28.ogg,,,,,,,,,0,0,0,0,0,1,1,1,0,0,0,0,,,,,,,,,0,0,0,0,0,27,27,27,,,,,,,,,,,,,,,,,,,,,,,,,,,,,,,,,,,,,,,,,,,,198.90268477500013,204.3345868160004,,,,,,,,,,,,,,,,,,,,,,,,,,,,,,,,,,,,,,,,,,,,,,,,,,,,,,,,,,,,,,,,,,092821,2,3,1,3,0,1,2,0,70,2021_Sep_28_1037,listening_fmri,3.2.4,60.03665730225012,
1,parcelated_audio/13/13_29.ogg,,,,,,,,,0,0,0,0,0,1,1,1,0,0,0,0,,,,,,,,,0,0,0,0,0,28,28,28,,,,,,,,,,,,,,,,,,,,,,,,,,,,,,,,,,,,,,,,,,,,204.3350327349999,207.61485039499985,,,,,,,,,,,,,,,,,,,,,,,,,,,,,,,,,,,,,,,,,,,,,,,,,,,,,,,,,,,,,,,,,,092821,2,3,1,3,0,1,2,0,70,2021_Sep_28_1037,listening_fmri,3.2.4,60.03665730225012,
1,parcelated_audio/13/13_30.ogg,,,,,,,,,0,0,0,0,0,1,1,1,0,0,0,0,,,,,,,,,0,0,0,0,0,29,29,29,,,,,,,,,,,,,,,,,,,,,,,,,,,,,,,,,,,,,,,,,,,,207.61528261900003,211.07053293199988,,,,,,,,,,,,,,,,,,,,,,,,,,,,,,,,,,,,,,,,,,,,,,,,,,,,,,,,,,,,,,,,,,092821,2,3,1,3,0,1,2,0,70,2021_Sep_28_1037,listening_fmri,3.2.4,60.03665730225012,
1,parcelated_audio/13/13_31.ogg,,,,,,,,,0,0,0,0,0,1,1,1,0,0,0,0,,,,,,,,,0,0,0,0,0,30,30,30,,,,,,,,,,,,,,,,,,,,,,,,,,,,,,,,,,,,,,,,,,,,211.07118679999985,217.0141447470005,,,,,,,,,,,,,,,,,,,,,,,,,,,,,,,,,,,,,,,,,,,,,,,,,,,,,,,,,,,,,,,,,,092821,2,3,1,3,0,1,2,0,70,2021_Sep_28_1037,listening_fmri,3.2.4,60.03665730225012,
1,,,,,,,,,,0,0,0,0,0,1,1,1,0,0,0,0,,,,,,,,,0,0,0,0,,,,,,,,,,,,,,,,,,,,,,,,,,,,,,,,,,,,,,,,,,,,,,,,,,,,,,,,,,,,,,,,,,,,,,,,,,,,,,,,,,,,,,,,,,,,,,,,,,,,,,,,,,,,,,,,,,,092821,2,3,1,3,0,1,2,0,70,2021_Sep_28_1037,listening_fmri,3.2.4,60.03665730225012,
1,,,,,,,,,,0,0,0,0,0,1,1,1,0,0,0,0,,,,,,,,,,,,,,,,,,,,,,,,,,,,,,,,,,,,,,217.01451313500002,223.01601634600047,264.2256866779999,None,,,,,,,,,,,,,,,,,,,,,270.23949013199945,None,270.23949013199945,None,,,,,,,,,,,,,,,,,,,,,,,,,,,,,,,,,,,,,,,,,,,,,,,,,,,,,,,,,,,,,,092821,2,3,1,3,0,1,2,0,70,2021_Sep_28_1037,listening_fmri,3.2.4,60.03665730225012,
1,,,,,,,,,,0,0,0,0,0,1,1,1,,,,,,,,,,,,,,,,,,,,,,,,,,,,,,,,,,,,,,,,,,,,,,,,,,,,,,,,,,,,,,,,,,,,,,,,,,,,,,,,,,,,,,,,,,,,,,,,,,,,,,,,,,,,,,,,,,,,,,,,,,,,,,,,,,,092821,2,3,1,3,0,1,2,0,70,2021_Sep_28_1037,listening_fmri,3.2.4,60.03665730225012,
2,,,,,,,,,,0,0,0,0,0,2,2,2,0,0,0,0,0,0,0,0,,,,,,,,,,,,,,,,,0,0,0,0,,,,,,,,,,,,,,,,,,271.2396126039994,None,271.2396126039994,None,2,2.1585984889998144,271.2396126039994,None,271.2396126039994,None,,,,,,,,,,,,,,,273.42289473299934,None,2,2.8103345070003343,273.42289473299934,None,273.42289473299934,None,276.27264994899997,None,276.27264994899997,None,276.27264994899997,None,2,1.8045763270001771,276.27264994899997,None,278.1060060279997,None,2,2.610189500999695,278.1060060279997,None,278.1060060279997,None,280.82278246399983,None,280.82278246399983,None,280.82278246399983,None,280.82278246399983,None,280.82278246399983,None,280.82278246399983,None,280.82278246399983,None,None,280.82278246399983,None,,,,,,,,,,,,,,,,,,,092821,2,3,1,3,0,1,2,0,70,2021_Sep_28_1037,listening_fmri,3.2.4,60.03665730225012,
2,,,,,,,,,,0,0,0,0,0,2,2,2,0,0,0,0,0,0,0,0,,,,,,,,,,,,,,,,,,,,,,,,,,,,,,,,,,,,,,,,,,,,,,,,,,,,,,,,,,,,,,,,,,,,,,,,,,,,,,,,,,,,,,,,,,,,,,,,,,,,,,,,,308.00608766499954,None,2,6.372101107999697,308.00608766499954,None,308.00608766499954,None,314.42281074199946,None,314.42281074199946,None,314.42281074199946,None,2,0.6512810139993235,314.42281074199946,None,092821,2,3,1,3,0,1,2,0,70,2021_Sep_28_1037,listening_fmri,3.2.4,60.03665730225012,
2,parcelated_audio/22/22_1.ogg,,,,,,,,,0,0,0,0,0,2,2,2,0,0,0,0,,,,,,,,,0,0,0,0,0,0,0,0,,,,,,,,,,,,,,,,,,,,,,,,,,,,,,,,,,,,315.08987190399966,None,2,2.6283448980002504,315.08987190399966,None,270.550484114,273.5658784420002,273.57184267200046,286.6143705479999,,,,,,,,,,,,,,,,,,,,,,,,,,,,,,,,,,,,,,,,,,,,,,,,,,,,,,,,,,,,,,,,,,092821,2,3,1,3,0,1,2,0,70,2021_Sep_28_1037,listening_fmri,3.2.4,60.03665730225012,
2,parcelated_audio/22/22_2.ogg,,,,,,,,,0,0,0,0,0,2,2,2,0,0,0,0,,,,,,,,,0,0,0,0,0,1,1,1,,,,,,,,,,,,,,,,,,,,,,,,,,,,,,,,,,,,,,,,,,,,286.6148211290001,293.00030902900016,,,,,,,,,,,,,,,,,,,,,,,,,,,,,,,,,,,,,,,,,,,,,,,,,,,,,,,,,,,,,,,,,,092821,2,3,1,3,0,1,2,0,70,2021_Sep_28_1037,listening_fmri,3.2.4,60.03665730225012,
2,parcelated_audio/22/22_3.ogg,,,,,,,,,0,0,0,0,0,2,2,2,0,0,0,0,,,,,,,,,0,0,0,0,0,2,2,2,,,,,,,,,,,,,,,,,,,,,,,,,,,,,,,,,,,,,,,,,,,,293.0006658410002,305.9187809920004,,,,,,,,,,,,,,,,,,,,,,,,,,,,,,,,,,,,,,,,,,,,,,,,,,,,,,,,,,,,,,,,,,092821,2,3,1,3,0,1,2,0,70,2021_Sep_28_1037,listening_fmri,3.2.4,60.03665730225012,
2,parcelated_audio/22/22_4.ogg,,,,,,,,,0,0,0,0,0,2,2,2,0,0,0,0,,,,,,,,,0,0,0,0,0,3,3,3,,,,,,,,,,,,,,,,,,,,,,,,,,,,,,,,,,,,,,,,,,,,305.9190488680006,318.32938653400015,,,,,,,,,,,,,,,,,,,,,,,,,,,,,,,,,,,,,,,,,,,,,,,,,,,,,,,,,,,,,,,,,,092821,2,3,1,3,0,1,2,0,70,2021_Sep_28_1037,listening_fmri,3.2.4,60.03665730225012,
2,parcelated_audio/22/22_5.ogg,,,,,,,,,0,0,0,0,0,2,2,2,0,0,0,0,,,,,,,,,0,0,0,0,0,4,4,4,,,,,,,,,,,,,,,,,,,,,,,,,,,,,,,,,,,,,,,,,,,,318.32965450400025,324.25851272100044,,,,,,,,,,,,,,,,,,,,,,,,,,,,,,,,,,,,,,,,,,,,,,,,,,,,,,,,,,,,,,,,,,092821,2,3,1,3,0,1,2,0,70,2021_Sep_28_1037,listening_fmri,3.2.4,60.03665730225012,
2,parcelated_audio/22/22_6.ogg,,,,,,,,,0,0,0,0,0,2,2,2,0,0,0,0,,,,,,,,,0,0,0,0,0,5,5,5,,,,,,,,,,,,,,,,,,,,,,,,,,,,,,,,,,,,,,,,,,,,324.25880047400005,333.4546322010001,,,,,,,,,,,,,,,,,,,,,,,,,,,,,,,,,,,,,,,,,,,,,,,,,,,,,,,,,,,,,,,,,,092821,2,3,1,3,0,1,2,0,70,2021_Sep_28_1037,listening_fmri,3.2.4,60.03665730225012,
2,parcelated_audio/22/22_7.ogg,,,,,,,,,0,0,0,0,0,2,2,2,0,0,0,0,,,,,,,,,0,0,0,0,0,6,6,6,,,,,,,,,,,,,,,,,,,,,,,,,,,,,,,,,,,,,,,,,,,,333.45490718400015,338.43869473799987,,,,,,,,,,,,,,,,,,,,,,,,,,,,,,,,,,,,,,,,,,,,,,,,,,,,,,,,,,,,,,,,,,092821,2,3,1,3,0,1,2,0,70,2021_Sep_28_1037,listening_fmri,3.2.4,60.03665730225012,
2,parcelated_audio/22/22_8.ogg,,,,,,,,,0,0,0,0,0,2,2,2,0,0,0,0,,,,,,,,,0,0,0,0,0,7,7,7,,,,,,,,,,,,,,,,,,,,,,,,,,,,,,,,,,,,,,,,,,,,338.438966144,341.9671874330006,,,,,,,,,,,,,,,,,,,,,,,,,,,,,,,,,,,,,,,,,,,,,,,,,,,,,,,,,,,,,,,,,,092821,2,3,1,3,0,1,2,0,70,2021_Sep_28_1037,listening_fmri,3.2.4,60.03665730225012,
2,parcelated_audio/22/22_9.ogg,,,,,,,,,0,0,0,0,0,2,2,2,0,0,0,0,,,,,,,,,0,0,0,0,0,8,8,8,,,,,,,,,,,,,,,,,,,,,,,,,,,,,,,,,,,,,,,,,,,,341.9681065320001,345.85451222100073,,,,,,,,,,,,,,,,,,,,,,,,,,,,,,,,,,,,,,,,,,,,,,,,,,,,,,,,,,,,,,,,,,092821,2,3,1,3,0,1,2,0,70,2021_Sep_28_1037,listening_fmri,3.2.4,60.03665730225012,
2,parcelated_audio/22/22_10.ogg,,,,,,,,,0,0,0,0,0,2,2,2,0,0,0,0,,,,,,,,,0,0,0,0,0,9,9,9,,,,,,,,,,,,,,,,,,,,,,,,,,,,,,,,,,,,,,,,,,,,345.85480454000026,350.6204320269999,,,,,,,,,,,,,,,,,,,,,,,,,,,,,,,,,,,,,,,,,,,,,,,,,,,,,,,,,,,,,,,,,,092821,2,3,1,3,0,1,2,0,70,2021_Sep_28_1037,listening_fmri,3.2.4,60.03665730225012,
2,parcelated_audio/22/22_11.ogg,,,,,,,,,0,0,0,0,0,2,2,2,0,0,0,0,,,,,,,,,0,0,0,0,0,10,10,10,,,,,,,,,,,,,,,,,,,,,,,,,,,,,,,,,,,,,,,,,,,,350.6207029220004,357.9003041570004,,,,,,,,,,,,,,,,,,,,,,,,,,,,,,,,,,,,,,,,,,,,,,,,,,,,,,,,,,,,,,,,,,092821,2,3,1,3,0,1,2,0,70,2021_Sep_28_1037,listening_fmri,3.2.4,60.03665730225012,
2,parcelated_audio/22/22_12.ogg,,,,,,,,,0,0,0,0,0,2,2,2,0,0,0,0,,,,,,,,,0,0,0,0,0,11,11,11,,,,,,,,,,,,,,,,,,,,,,,,,,,,,,,,,,,,,,,,,,,,357.90057585500017,365.608733905,,,,,,,,,,,,,,,,,,,,,,,,,,,,,,,,,,,,,,,,,,,,,,,,,,,,,,,,,,,,,,,,,,092821,2,3,1,3,0,1,2,0,70,2021_Sep_28_1037,listening_fmri,3.2.4,60.03665730225012,
2,parcelated_audio/22/22_13.ogg,,,,,,,,,0,0,0,0,0,2,2,2,0,0,0,0,,,,,,,,,0,0,0,0,0,12,12,12,,,,,,,,,,,,,,,,,,,,,,,,,,,,,,,,,,,,,,,,,,,,365.6090877679999,372.868470503,,,,,,,,,,,,,,,,,,,,,,,,,,,,,,,,,,,,,,,,,,,,,,,,,,,,,,,,,,,,,,,,,,092821,2,3,1,3,0,1,2,0,70,2021_Sep_28_1037,listening_fmri,3.2.4,60.03665730225012,
2,parcelated_audio/22/22_14.ogg,,,,,,,,,0,0,0,0,0,2,2,2,0,0,0,0,,,,,,,,,0,0,0,0,0,13,13,13,,,,,,,,,,,,,,,,,,,,,,,,,,,,,,,,,,,,,,,,,,,,372.86903768200045,378.48436242800017,,,,,,,,,,,,,,,,,,,,,,,,,,,,,,,,,,,,,,,,,,,,,,,,,,,,,,,,,,,,,,,,,,092821,2,3,1,3,0,1,2,0,70,2021_Sep_28_1037,listening_fmri,3.2.4,60.03665730225012,
2,parcelated_audio/22/22_15.ogg,,,,,,,,,0,0,0,0,0,2,2,2,0,0,0,0,,,,,,,,,0,0,0,0,0,14,14,14,,,,,,,,,,,,,,,,,,,,,,,,,,,,,,,,,,,,,,,,,,,,378.48486091199993,386.26807304400063,,,,,,,,,,,,,,,,,,,,,,,,,,,,,,,,,,,,,,,,,,,,,,,,,,,,,,,,,,,,,,,,,,092821,2,3,1,3,0,1,2,0,70,2021_Sep_28_1037,listening_fmri,3.2.4,60.03665730225012,
2,parcelated_audio/22/22_16.ogg,,,,,,,,,0,0,0,0,0,2,2,2,0,0,0,0,,,,,,,,,0,0,0,0,0,15,15,15,,,,,,,,,,,,,,,,,,,,,,,,,,,,,,,,,,,,,,,,,,,,386.2684191470007,394.96127319600055,,,,,,,,,,,,,,,,,,,,,,,,,,,,,,,,,,,,,,,,,,,,,,,,,,,,,,,,,,,,,,,,,,092821,2,3,1,3,0,1,2,0,70,2021_Sep_28_1037,listening_fmri,3.2.4,60.03665730225012,
2,parcelated_audio/22/22_17.ogg,,,,,,,,,0,0,0,0,0,2,2,2,0,0,0,0,,,,,,,,,0,0,0,0,0,16,16,16,,,,,,,,,,,,,,,,,,,,,,,,,,,,,,,,,,,,,,,,,,,,394.9616263450007,398.1017485800003,,,,,,,,,,,,,,,,,,,,,,,,,,,,,,,,,,,,,,,,,,,,,,,,,,,,,,,,,,,,,,,,,,092821,2,3,1,3,0,1,2,0,70,2021_Sep_28_1037,listening_fmri,3.2.4,60.03665730225012,
2,parcelated_audio/22/22_18.ogg,,,,,,,,,0,0,0,0,0,2,2,2,0,0,0,0,,,,,,,,,0,0,0,0,0,17,17,17,,,,,,,,,,,,,,,,,,,,,,,,,,,,,,,,,,,,,,,,,,,,398.1021041240001,404.82455343499987,,,,,,,,,,,,,,,,,,,,,,,,,,,,,,,,,,,,,,,,,,,,,,,,,,,,,,,,,,,,,,,,,,092821,2,3,1,3,0,1,2,0,70,2021_Sep_28_1037,listening_fmri,3.2.4,60.03665730225012,
2,parcelated_audio/22/22_19.ogg,,,,,,,,,0,0,0,0,0,2,2,2,0,0,0,0,,,,,,,,,0,0,0,0,0,18,18,18,,,,,,,,,,,,,,,,,,,,,,,,,,,,,,,,,,,,,,,,,,,,404.82488504400044,409.7835839440004,,,,,,,,,,,,,,,,,,,,,,,,,,,,,,,,,,,,,,,,,,,,,,,,,,,,,,,,,,,,,,,,,,092821,2,3,1,3,0,1,2,0,70,2021_Sep_28_1037,listening_fmri,3.2.4,60.03665730225012,
2,parcelated_audio/22/22_20.ogg,,,,,,,,,0,0,0,0,0,2,2,2,0,0,0,0,,,,,,,,,0,0,0,0,0,19,19,19,,,,,,,,,,,,,,,,,,,,,,,,,,,,,,,,,,,,,,,,,,,,409.7838699590002,423.89826141400044,,,,,,,,,,,,,,,,,,,,,,,,,,,,,,,,,,,,,,,,,,,,,,,,,,,,,,,,,,,,,,,,,,092821,2,3,1,3,0,1,2,0,70,2021_Sep_28_1037,listening_fmri,3.2.4,60.03665730225012,
2,parcelated_audio/22/22_21.ogg,,,,,,,,,0,0,0,0,0,2,2,2,0,0,0,0,,,,,,,,,0,0,0,0,0,20,20,20,,,,,,,,,,,,,,,,,,,,,,,,,,,,,,,,,,,,,,,,,,,,423.89859133200025,425.89978992500073,,,,,,,,,,,,,,,,,,,,,,,,,,,,,,,,,,,,,,,,,,,,,,,,,,,,,,,,,,,,,,,,,,092821,2,3,1,3,0,1,2,0,70,2021_Sep_28_1037,listening_fmri,3.2.4,60.03665730225012,
2,parcelated_audio/22/22_22.ogg,,,,,,,,,0,0,0,0,0,2,2,2,0,0,0,0,,,,,,,,,0,0,0,0,0,21,21,21,,,,,,,,,,,,,,,,,,,,,,,,,,,,,,,,,,,,,,,,,,,,425.9002239520005,429.04686793200017,,,,,,,,,,,,,,,,,,,,,,,,,,,,,,,,,,,,,,,,,,,,,,,,,,,,,,,,,,,,,,,,,,092821,2,3,1,3,0,1,2,0,70,2021_Sep_28_1037,listening_fmri,3.2.4,60.03665730225012,
2,parcelated_audio/22/22_23.ogg,,,,,,,,,0,0,0,0,0,2,2,2,0,0,0,0,,,,,,,,,0,0,0,0,0,22,22,22,,,,,,,,,,,,,,,,,,,,,,,,,,,,,,,,,,,,,,,,,,,,429.04714557700026,435.56946350900034,,,,,,,,,,,,,,,,,,,,,,,,,,,,,,,,,,,,,,,,,,,,,,,,,,,,,,,,,,,,,,,,,,092821,2,3,1,3,0,1,2,0,70,2021_Sep_28_1037,listening_fmri,3.2.4,60.03665730225012,
2,parcelated_audio/22/22_24.ogg,,,,,,,,,0,0,0,0,0,2,2,2,0,0,0,0,,,,,,,,,0,0,0,0,0,23,23,23,,,,,,,,,,,,,,,,,,,,,,,,,,,,,,,,,,,,,,,,,,,,435.5700289360002,441.3013712210004,,,,,,,,,,,,,,,,,,,,,,,,,,,,,,,,,,,,,,,,,,,,,,,,,,,,,,,,,,,,,,,,,,092821,2,3,1,3,0,1,2,0,70,2021_Sep_28_1037,listening_fmri,3.2.4,60.03665730225012,
2,parcelated_audio/22/22_25.ogg,,,,,,,,,0,0,0,0,0,2,2,2,0,0,0,0,,,,,,,,,0,0,0,0,0,24,24,24,,,,,,,,,,,,,,,,,,,,,,,,,,,,,,,,,,,,,,,,,,,,441.3022466380007,453.9846715390004,,,,,,,,,,,,,,,,,,,,,,,,,,,,,,,,,,,,,,,,,,,,,,,,,,,,,,,,,,,,,,,,,,092821,2,3,1,3,0,1,2,0,70,2021_Sep_28_1037,listening_fmri,3.2.4,60.03665730225012,
2,parcelated_audio/22/22_26.ogg,,,,,,,,,0,0,0,0,0,2,2,2,0,0,0,0,,,,,,,,,0,0,0,0,0,25,25,25,,,,,,,,,,,,,,,,,,,,,,,,,,,,,,,,,,,,,,,,,,,,453.98507643500034,460.71564299200054,,,,,,,,,,,,,,,,,,,,,,,,,,,,,,,,,,,,,,,,,,,,,,,,,,,,,,,,,,,,,,,,,,092821,2,3,1,3,0,1,2,0,70,2021_Sep_28_1037,listening_fmri,3.2.4,60.03665730225012,
2,parcelated_audio/22/22_27.ogg,,,,,,,,,0,0,0,0,0,2,2,2,0,0,0,0,,,,,,,,,0,0,0,0,0,26,26,26,,,,,,,,,,,,,,,,,,,,,,,,,,,,,,,,,,,,,,,,,,,,460.7159414120006,465.10552525599996,,,,,,,,,,,,,,,,,,,,,,,,,,,,,,,,,,,,,,,,,,,,,,,,,,,,,,,,,,,,,,,,,,092821,2,3,1,3,0,1,2,0,70,2021_Sep_28_1037,listening_fmri,3.2.4,60.03665730225012,
2,parcelated_audio/22/22_28.ogg,,,,,,,,,0,0,0,0,0,2,2,2,0,0,0,0,,,,,,,,,0,0,0,0,0,27,27,27,,,,,,,,,,,,,,,,,,,,,,,,,,,,,,,,,,,,,,,,,,,,465.1059463540005,470.8546771420006,,,,,,,,,,,,,,,,,,,,,,,,,,,,,,,,,,,,,,,,,,,,,,,,,,,,,,,,,,,,,,,,,,092821,2,3,1,3,0,1,2,0,70,2021_Sep_28_1037,listening_fmri,3.2.4,60.03665730225012,
2,parcelated_audio/22/22_29.ogg,,,,,,,,,0,0,0,0,0,2,2,2,0,0,0,0,,,,,,,,,0,0,0,0,0,28,28,28,,,,,,,,,,,,,,,,,,,,,,,,,,,,,,,,,,,,,,,,,,,,470.8549486810007,476.5606601650006,,,,,,,,,,,,,,,,,,,,,,,,,,,,,,,,,,,,,,,,,,,,,,,,,,,,,,,,,,,,,,,,,,092821,2,3,1,3,0,1,2,0,70,2021_Sep_28_1037,listening_fmri,3.2.4,60.03665730225012,
2,parcelated_audio/22/22_30.ogg,,,,,,,,,0,0,0,0,0,2,2,2,0,0,0,0,,,,,,,,,0,0,0,0,0,29,29,29,,,,,,,,,,,,,,,,,,,,,,,,,,,,,,,,,,,,,,,,,,,,476.5611121190004,479.28444158300044,,,,,,,,,,,,,,,,,,,,,,,,,,,,,,,,,,,,,,,,,,,,,,,,,,,,,,,,,,,,,,,,,,092821,2,3,1,3,0,1,2,0,70,2021_Sep_28_1037,listening_fmri,3.2.4,60.03665730225012,
2,parcelated_audio/22/22_31.ogg,,,,,,,,,0,0,0,0,0,2,2,2,0,0,0,0,,,,,,,,,0,0,0,0,0,30,30,30,,,,,,,,,,,,,,,,,,,,,,,,,,,,,,,,,,,,,,,,,,,,479.28484481800024,484.43649348000054,,,,,,,,,,,,,,,,,,,,,,,,,,,,,,,,,,,,,,,,,,,,,,,,,,,,,,,,,,,,,,,,,,092821,2,3,1,3,0,1,2,0,70,2021_Sep_28_1037,listening_fmri,3.2.4,60.03665730225012,
2,parcelated_audio/22/22_32.ogg,,,,,,,,,0,0,0,0,0,2,2,2,0,0,0,0,,,,,,,,,0,0,0,0,0,31,31,31,,,,,,,,,,,,,,,,,,,,,,,,,,,,,,,,,,,,,,,,,,,,484.4368575890003,490.75912402799986,,,,,,,,,,,,,,,,,,,,,,,,,,,,,,,,,,,,,,,,,,,,,,,,,,,,,,,,,,,,,,,,,,092821,2,3,1,3,0,1,2,0,70,2021_Sep_28_1037,listening_fmri,3.2.4,60.03665730225012,
2,parcelated_audio/22/22_33.ogg,,,,,,,,,0,0,0,0,0,2,2,2,0,0,0,0,,,,,,,,,0,0,0,0,0,32,32,32,,,,,,,,,,,,,,,,,,,,,,,,,,,,,,,,,,,,,,,,,,,,490.75963281200075,495.2019006979999,,,,,,,,,,,,,,,,,,,,,,,,,,,,,,,,,,,,,,,,,,,,,,,,,,,,,,,,,,,,,,,,,,092821,2,3,1,3,0,1,2,0,70,2021_Sep_28_1037,listening_fmri,3.2.4,60.03665730225012,
2,parcelated_audio/22/22_34.ogg,,,,,,,,,0,0,0,0,0,2,2,2,0,0,0,0,,,,,,,,,0,0,0,0,0,33,33,33,,,,,,,,,,,,,,,,,,,,,,,,,,,,,,,,,,,,,,,,,,,,495.2022519330003,503.2457729730004,,,,,,,,,,,,,,,,,,,,,,,,,,,,,,,,,,,,,,,,,,,,,,,,,,,,,,,,,,,,,,,,,,092821,2,3,1,3,0,1,2,0,70,2021_Sep_28_1037,listening_fmri,3.2.4,60.03665730225012,
2,parcelated_audio/22/22_35.ogg,,,,,,,,,0,0,0,0,0,2,2,2,0,0,0,0,,,,,,,,,0,0,0,0,0,34,34,34,,,,,,,,,,,,,,,,,,,,,,,,,,,,,,,,,,,,,,,,,,,,503.2463024440003,510.74679278200074,,,,,,,,,,,,,,,,,,,,,,,,,,,,,,,,,,,,,,,,,,,,,,,,,,,,,,,,,,,,,,,,,,092821,2,3,1,3,0,1,2,0,70,2021_Sep_28_1037,listening_fmri,3.2.4,60.03665730225012,
2,parcelated_audio/22/22_36.ogg,,,,,,,,,0,0,0,0,0,2,2,2,0,0,0,0,,,,,,,,,0,0,0,0,0,35,35,35,,,,,,,,,,,,,,,,,,,,,,,,,,,,,,,,,,,,,,,,,,,,510.74713838000025,523.4428487920004,,,,,,,,,,,,,,,,,,,,,,,,,,,,,,,,,,,,,,,,,,,,,,,,,,,,,,,,,,,,,,,,,,092821,2,3,1,3,0,1,2,0,70,2021_Sep_28_1037,listening_fmri,3.2.4,60.03665730225012,
2,parcelated_audio/22/22_37.ogg,,,,,,,,,0,0,0,0,0,2,2,2,0,0,0,0,,,,,,,,,0,0,0,0,0,36,36,36,,,,,,,,,,,,,,,,,,,,,,,,,,,,,,,,,,,,,,,,,,,,523.4432006970001,530.6197730029999,,,,,,,,,,,,,,,,,,,,,,,,,,,,,,,,,,,,,,,,,,,,,,,,,,,,,,,,,,,,,,,,,,092821,2,3,1,3,0,1,2,0,70,2021_Sep_28_1037,listening_fmri,3.2.4,60.03665730225012,
2,,,,,,,,,,0,0,0,0,0,2,2,2,0,0,0,0,,,,,,,,,0,0,0,0,,,,,,,,,,,,,,,,,,,,,,,,,,,,,,,,,,,,,,,,,,,,,,,,,,,,,,,,,,,,,,,,,,,,,,,,,,,,,,,,,,,,,,,,,,,,,,,,,,,,,,,,,,,,,,,,,,,092821,2,3,1,3,0,1,2,0,70,2021_Sep_28_1037,listening_fmri,3.2.4,60.03665730225012,
,,,,,,,,,,,,,,,,,,,,,,,,,,,,,,,,,,,,,,,,,,,,,,,,,,,,,,,,,,,530.620269555,536.6155687440005,577.8378828399991,None,,,,,,,,,,,,,,,,,,,,,583.840192144,None,583.840192144,None,,,,,,,,,,,,,,,,,,,,,,,,,,,,,,,,,,,,,,,,,,,,,,,,,,,,,,,,,,,,,,,,,,,,,,,,,,,,
﻿count,audio,trials_14.thisRepN,trials_14.thisTrialN,trials_14.thisN,trials_14.thisIndex,trials_3.thisRepN,trials_3.thisTrialN,trials_3.thisN,trials_3.thisIndex,trials_4.thisRepN,trials_4.thisTrialN,trials_4.thisN,trials_4.thisIndex,trials_6.thisRepN,trials_6.thisTrialN,trials_6.thisN,trials_6.thisIndex,trials_9.thisRepN,trials_9.thisTrialN,trials_9.thisN,trials_9.thisIndex,trials_10.thisRepN,trials_10.thisTrialN,trials_10.thisN,trials_10.thisIndex,trials_12.thisRepN,trials_12.thisTrialN,trials_12.thisN,trials_12.thisIndex,trials_25.thisRepN,trials_25.thisTrialN,trials_25.thisN,trials_25.thisIndex,trials_15.thisRepN,trials_15.thisTrialN,trials_15.thisN,trials_15.thisIndex,trials_26.thisRepN,trials_26.thisTrialN,trials_26.thisN,trials_26.thisIndex,trials_11.thisRepN,trials_11.thisTrialN,trials_11.thisN,trials_11.thisIndex,story_list_block2,action_list_block2,textTrigger.started,textTrigger.stopped,getTrigger.keys,getTrigger.rt,getTrigger.started,getTrigger.stopped,triggerTime,text_76.started,text_76.stopped,text_77.started,text_77.stopped,startWait,endWait,image_23.started,image_23.stopped,text_55.started,text_55.stopped,text_56.started,text_56.stopped,key_resp_2.keys,key_resp_2.rt,key_resp_2.started,key_resp_2.stopped,text_82.started,text_82.stopped,text_64.started,text_64.stopped,key_resp_20.keys,key_resp_20.rt,key_resp_20.started,key_resp_20.stopped,storyImage_StartTime,storyImage_EndTime,clip_StartTime,clip_EndTime,text_67.started,text_67.stopped,text_68.started,text_68.stopped,text_57.started,text_57.stopped,key_resp_17.keys,key_resp_17.rt,key_resp_17.started,key_resp_17.stopped,text_83.started,text_83.stopped,text_60.started,text_60.stopped,image_2.started,image_2.stopped,text_58.started,text_58.stopped,key_resp_23.keys,key_resp_23.rt,key_resp_23.started,key_resp_23.stopped,text_62.started,text_62.stopped,key_resp_18.keys,key_resp_18.rt,key_resp_18.started,key_resp_18.stopped,text_84.started,text_84.stopped,question1_2.started,question1_2.stopped,question2_2.started,question2_2.stopped,question3_2.started,question3_2.stopped,question4_2.started,question4_2.stopped,question5_2.started,question5_2.stopped,question6_2.started,question6_2.stopped,image_15.started,image_15.stopped,key_resp.keys,key_resp.started,key_resp.stopped,text_59.started,text_59.stopped,key_resp_19.keys,key_resp_19.rt,key_resp_19.started,key_resp_19.stopped,text_85.started,text_85.stopped,text_61.started,text_61.stopped,image_17.started,image_17.stopped,text_63.started,text_63.stopped,key_resp_24.keys,key_resp_24.rt,key_resp_24.started,key_resp_24.stopped,participant,sA,sB,lA,lB,block_struct,play_stories,block,behavioral,random_seed,date,expName,psychopyVersion,frameRate,
0,,,,,,,,,,0,0,0,0,0,0,0,0,,,,,,,,,,,,,,,,,,,,,,,,,,,,,[42 13 22 31 11 44 33 24],[3 4 2 1 4 3 1 2],16.839576352999757,None,equal,30.354738072000146,16.839576352999757,None,30.389566279000064,16.839576352999757,None,16.839576352999757,None,0.0003918749998774729,6.015080197000316,47.228903669999454,None,,,,,,,,,,,,,,,,,,,,,,,,,,,,,,,,,,,,,,,,,,,,,,,,,,,,,,,,,,,,,,,,,,,,,,,,,,,,,,,,,,,,,,092821,2,3,1,3,0,1,2,0,70,2021_Sep_28_1037,listening_fmri,3.2.4,60.03665730225012,
1,parcelated_audio/13/13_1.ogg,,,,,,,,,0,0,0,0,0,1,1,1,0,0,0,0,,,,,,,,,0,0,0,0,0,0,0,0,,,,,,,,,,,,,,,,,,,,,,,,,,53.23907639999925,None,53.23907639999925,None,3,2.9721431349998966,53.23907639999925,None,53.23907639999925,None,56.239317949,None,8,2.8919025919994965,56.239317949,None,11.940164749999894,14.94908186900011,14.954485111000395,26.6445360860007,,,,,,,,,,,,,,,,,,,,,,,,,,,,,,,,,,,,,,,,,,,,,,,,,,,,,,,,,,,,,,,,,,092821,2,3,1,3,0,1,2,0,70,2021_Sep_28_1037,listening_fmri,3.2.4,60.03665730225012,
1,parcelated_audio/13/13_2.ogg,,,,,,,,,0,0,0,0,0,1,1,1,0,0,0,0,,,,,,,,,0,0,0,0,0,1,1,1,,,,,,,,,,,,,,,,,,,,,,,,,,,,,,,,,,,,,,,,,,,,26.64504764100002,32.745739760000106,,,,,,,,,,,,,,,,,,,,,,,,,,,,,,,,,,,,,,,,,,,,,,,,,,,,,,,,,,,,,,,,,,092821,2,3,1,3,0,1,2,0,70,2021_Sep_28_1037,listening_fmri,3.2.4,60.03665730225012,
1,parcelated_audio/13/13_3.ogg,,,,,,,,,0,0,0,0,0,1,1,1,0,0,0,0,,,,,,,,,0,0,0,0,0,2,2,2,,,,,,,,,,,,,,,,,,,,,,,,,,,,,,,,,,,,,,,,,,,,32.74608704500042,41.10581395400004,,,,,,,,,,,,,,,,,,,,,,,,,,,,,,,,,,,,,,,,,,,,,,,,,,,,,,,,,,,,,,,,,,092821,2,3,1,3,0,1,2,0,70,2021_Sep_28_1037,listening_fmri,3.2.4,60.03665730225012,
1,parcelated_audio/13/13_4.ogg,,,,,,,,,0,0,0,0,0,1,1,1,0,0,0,0,,,,,,,,,0,0,0,0,0,3,3,3,,,,,,,,,,,,,,,,,,,,,,,,,,,,,,,,,,,,,,,,,,,,41.106331066000166,51.342799025000204,,,,,,,,,,,,,,,,,,,,,,,,,,,,,,,,,,,,,,,,,,,,,,,,,,,,,,,,,,,,,,,,,,092821,2,3,1,3,0,1,2,0,70,2021_Sep_28_1037,listening_fmri,3.2.4,60.03665730225012,
1,parcelated_audio/13/13_5.ogg,,,,,,,,,0,0,0,0,0,1,1,1,0,0,0,0,,,,,,,,,0,0,0,0,0,4,4,4,,,,,,,,,,,,,,,,,,,,,,,,,,,,,,,,,,,,,,,,,,,,51.34314377300052,57.3856621620007,,,,,,,,,,,,,,,,,,,,,,,,,,,,,,,,,,,,,,,,,,,,,,,,,,,,,,,,,,,,,,,,,,092821,2,3,1,3,0,1,2,0,70,2021_Sep_28_1037,listening_fmri,3.2.4,60.03665730225012,
1,parcelated_audio/13/13_6.ogg,,,,,,,,,0,0,0,0,0,1,1,1,0,0,0,0,,,,,,,,,0,0,0,0,0,5,5,5,,,,,,,,,,,,,,,,,,,,,,,,,,,,,,,,,,,,,,,,,,,,57.38619318700057,62.09401089200037,,,,,,,,,,,,,,,,,,,,,,,,,,,,,,,,,,,,,,,,,,,,,,,,,,,,,,,,,,,,,,,,,,092821,2,3,1,3,0,1,2,0,70,2021_Sep_28_1037,listening_fmri,3.2.4,60.03665730225012,
1,parcelated_audio/13/13_7.ogg,,,,,,,,,0,0,0,0,0,1,1,1,0,0,0,0,,,,,,,,,0,0,0,0,0,6,6,6,,,,,,,,,,,,,,,,,,,,,,,,,,,,,,,,,,,,,,,,,,,,62.09430662500017,69.73762331700073,,,,,,,,,,,,,,,,,,,,,,,,,,,,,,,,,,,,,,,,,,,,,,,,,,,,,,,,,,,,,,,,,,092821,2,3,1,3,0,1,2,0,70,2021_Sep_28_1037,listening_fmri,3.2.4,60.03665730225012,
1,parcelated_audio/13/13_8.ogg,,,,,,,,,0,0,0,0,0,1,1,1,0,0,0,0,,,,,,,,,0,0,0,0,0,7,7,7,,,,,,,,,,,,,,,,,,,,,,,,,,,,,,,,,,,,,,,,,,,,69.73809474000063,75.03865994199987,,,,,,,,,,,,,,,,,,,,,,,,,,,,,,,,,,,,,,,,,,,,,,,,,,,,,,,,,,,,,,,,,,092821,2,3,1,3,0,1,2,0,70,2021_Sep_28_1037,listening_fmri,3.2.4,60.03665730225012,
1,parcelated_audio/13/13_9.ogg,,,,,,,,,0,0,0,0,0,1,1,1,0,0,0,0,,,,,,,,,0,0,0,0,0,8,8,8,,,,,,,,,,,,,,,,,,,,,,,,,,,,,,,,,,,,,,,,,,,,75.03894359700007,79.63875438600007,,,,,,,,,,,,,,,,,,,,,,,,,,,,,,,,,,,,,,,,,,,,,,,,,,,,,,,,,,,,,,,,,,092821,2,3,1,3,0,1,2,0,70,2021_Sep_28_1037,listening_fmri,3.2.4,60.03665730225012,
1,parcelated_audio/13/13_10.ogg,,,,,,,,,0,0,0,0,0,1,1,1,0,0,0,0,,,,,,,,,0,0,0,0,0,9,9,9,,,,,,,,,,,,,,,,,,,,,,,,,,,,,,,,,,,,,,,,,,,,79.6392579379999,85.43747846699989,,,,,,,,,,,,,,,,,,,,,,,,,,,,,,,,,,,,,,,,,,,,,,,,,,,,,,,,,,,,,,,,,,092821,2,3,1,3,0,1,2,0,70,2021_Sep_28_1037,listening_fmri,3.2.4,60.03665730225012,
1,parcelated_audio/13/13_11.ogg,,,,,,,,,0,0,0,0,0,1,1,1,0,0,0,0,,,,,,,,,0,0,0,0,0,10,10,10,,,,,,,,,,,,,,,,,,,,,,,,,,,,,,,,,,,,,,,,,,,,85.43774718200075,90.04744938600015,,,,,,,,,,,,,,,,,,,,,,,,,,,,,,,,,,,,,,,,,,,,,,,,,,,,,,,,,,,,,,,,,,092821,2,3,1,3,0,1,2,0,70,2021_Sep_28_1037,listening_fmri,3.2.4,60.03665730225012,
1,parcelated_audio/13/13_12.ogg,,,,,,,,,0,0,0,0,0,1,1,1,0,0,0,0,,,,,,,,,0,0,0,0,0,11,11,11,,,,,,,,,,,,,,,,,,,,,,,,,,,,,,,,,,,,,,,,,,,,90.04775291500027,98.51475898100034,,,,,,,,,,,,,,,,,,,,,,,,,,,,,,,,,,,,,,,,,,,,,,,,,,,,,,,,,,,,,,,,,,092821,2,3,1,3,0,1,2,0,70,2021_Sep_28_1037,listening_fmri,3.2.4,60.03665730225012,
1,parcelated_audio/13/13_13.ogg,,,,,,,,,0,0,0,0,0,1,1,1,0,0,0,0,,,,,,,,,0,0,0,0,0,12,12,12,,,,,,,,,,,,,,,,,,,,,,,,,,,,,,,,,,,,,,,,,,,,98.51503167100054,108.40956850800012,,,,,,,,,,,,,,,,,,,,,,,,,,,,,,,,,,,,,,,,,,,,,,,,,,,,,,,,,,,,,,,,,,092821,2,3,1,3,0,1,2,0,70,2021_Sep_28_1037,listening_fmri,3.2.4,60.03665730225012,
1,parcelated_audio/13/13_14.ogg,,,,,,,,,0,0,0,0,0,1,1,1,0,0,0,0,,,,,,,,,0,0,0,0,0,13,13,13,,,,,,,,,,,,,,,,,,,,,,,,,,,,,,,,,,,,,,,,,,,,108.40984006100007,116.58810065299986,,,,,,,,,,,,,,,,,,,,,,,,,,,,,,,,,,,,,,,,,,,,,,,,,,,,,,,,,,,,,,,,,,092821,2,3,1,3,0,1,2,0,70,2021_Sep_28_1037,listening_fmri,3.2.4,60.03665730225012,
1,parcelated_audio/13/13_15.ogg,,,,,,,,,0,0,0,0,0,1,1,1,0,0,0,0,,,,,,,,,0,0,0,0,0,14,14,14,,,,,,,,,,,,,,,,,,,,,,,,,,,,,,,,,,,,,,,,,,,,116.58850182100014,125.26305872600005,,,,,,,,,,,,,,,,,,,,,,,,,,,,,,,,,,,,,,,,,,,,,,,,,,,,,,,,,,,,,,,,,,092821,2,3,1,3,0,1,2,0,70,2021_Sep_28_1037,listening_fmri,3.2.4,60.03665730225012,
1,parcelated_audio/13/13_16.ogg,,,,,,,,,0,0,0,0,0,1,1,1,0,0,0,0,,,,,,,,,0,0,0,0,0,15,15,15,,,,,,,,,,,,,,,,,,,,,,,,,,,,,,,,,,,,,,,,,,,,125.26357911000014,127.57219712200003,,,,,,,,,,,,,,,,,,,,,,,,,,,,,,,,,,,,,,,,,,,,,,,,,,,,,,,,,,,,,,,,,,092821,2,3,1,3,0,1,2,0,70,2021_Sep_28_1037,listening_fmri,3.2.4,60.03665730225012,
1,parcelated_audio/13/13_17.ogg,,,,,,,,,0,0,0,0,0,1,1,1,0,0,0,0,,,,,,,,,0,0,0,0,0,16,16,16,,,,,,,,,,,,,,,,,,,,,,,,,,,,,,,,,,,,,,,,,,,,127.5727563800001,135.15338768200036,,,,,,,,,,,,,,,,,,,,,,,,,,,,,,,,,,,,,,,,,,,,,,,,,,,,,,,,,,,,,,,,,,092821,2,3,1,3,0,1,2,0,70,2021_Sep_28_1037,listening_fmri,3.2.4,60.03665730225012,
1,parcelated_audio/13/13_18.ogg,,,,,,,,,0,0,0,0,0,1,1,1,0,0,0,0,,,,,,,,,0,0,0,0,0,17,17,17,,,,,,,,,,,,,,,,,,,,,,,,,,,,,,,,,,,,,,,,,,,,135.15435383800013,145.35191467000004,,,,,,,,,,,,,,,,,,,,,,,,,,,,,,,,,,,,,,,,,,,,,,,,,,,,,,,,,,,,,,,,,,092821,2,3,1,3,0,1,2,0,70,2021_Sep_28_1037,listening_fmri,3.2.4,60.03665730225012,
1,parcelated_audio/13/13_19.ogg,,,,,,,,,0,0,0,0,0,1,1,1,0,0,0,0,,,,,,,,,0,0,0,0,0,18,18,18,,,,,,,,,,,,,,,,,,,,,,,,,,,,,,,,,,,,,,,,,,,,145.35226329299985,153.31348789000003,,,,,,,,,,,,,,,,,,,,,,,,,,,,,,,,,,,,,,,,,,,,,,,,,,,,,,,,,,,,,,,,,,092821,2,3,1,3,0,1,2,0,70,2021_Sep_28_1037,listening_fmri,3.2.4,60.03665730225012,
1,parcelated_audio/13/13_20.ogg,,,,,,,,,0,0,0,0,0,1,1,1,0,0,0,0,,,,,,,,,0,0,0,0,0,19,19,19,,,,,,,,,,,,,,,,,,,,,,,,,,,,,,,,,,,,,,,,,,,,153.31405862800057,158.49239733000013,,,,,,,,,,,,,,,,,,,,,,,,,,,,,,,,,,,,,,,,,,,,,,,,,,,,,,,,,,,,,,,,,,092821,2,3,1,3,0,1,2,0,70,2021_Sep_28_1037,listening_fmri,3.2.4,60.03665730225012,
1,parcelated_audio/13/13_21.ogg,,,,,,,,,0,0,0,0,0,1,1,1,0,0,0,0,,,,,,,,,0,0,0,0,0,20,20,20,,,,,,,,,,,,,,,,,,,,,,,,,,,,,,,,,,,,,,,,,,,,158.49283381900023,161.8093102640005,,,,,,,,,,,,,,,,,,,,,,,,,,,,,,,,,,,,,,,,,,,,,,,,,,,,,,,,,,,,,,,,,,092821,2,3,1,3,0,1,2,0,70,2021_Sep_28_1037,listening_fmri,3.2.4,60.03665730225012,
1,parcelated_audio/13/13_22.ogg,,,,,,,,,0,0,0,0,0,1,1,1,0,0,0,0,,,,,,,,,0,0,0,0,0,21,21,21,,,,,,,,,,,,,,,,,,,,,,,,,,,,,,,,,,,,,,,,,,,,161.80959296000037,165.22805547700045,,,,,,,,,,,,,,,,,,,,,,,,,,,,,,,,,,,,,,,,,,,,,,,,,,,,,,,,,,,,,,,,,,092821,2,3,1,3,0,1,2,0,70,2021_Sep_28_1037,listening_fmri,3.2.4,60.03665730225012,
1,parcelated_audio/13/13_23.ogg,,,,,,,,,0,0,0,0,0,1,1,1,0,0,0,0,,,,,,,,,0,0,0,0,0,22,22,22,,,,,,,,,,,,,,,,,,,,,,,,,,,,,,,,,,,,,,,,,,,,165.22850179299985,170.48753568200027,,,,,,,,,,,,,,,,,,,,,,,,,,,,,,,,,,,,,,,,,,,,,,,,,,,,,,,,,,,,,,,,,,092821,2,3,1,3,0,1,2,0,70,2021_Sep_28_1037,listening_fmri,3.2.4,60.03665730225012,
1,parcelated_audio/13/13_24.ogg,,,,,,,,,0,0,0,0,0,1,1,1,0,0,0,0,,,,,,,,,0,0,0,0,0,23,23,23,,,,,,,,,,,,,,,,,,,,,,,,,,,,,,,,,,,,,,,,,,,,170.4879579920007,180.20943242400062,,,,,,,,,,,,,,,,,,,,,,,,,,,,,,,,,,,,,,,,,,,,,,,,,,,,,,,,,,,,,,,,,,092821,2,3,1,3,0,1,2,0,70,2021_Sep_28_1037,listening_fmri,3.2.4,60.03665730225012,
1,parcelated_audio/13/13_25.ogg,,,,,,,,,0,0,0,0,0,1,1,1,0,0,0,0,,,,,,,,,0,0,0,0,0,24,24,24,,,,,,,,,,,,,,,,,,,,,,,,,,,,,,,,,,,,,,,,,,,,180.20986245200038,187.486798678,,,,,,,,,,,,,,,,,,,,,,,,,,,,,,,,,,,,,,,,,,,,,,,,,,,,,,,,,,,,,,,,,,092821,2,3,1,3,0,1,2,0,70,2021_Sep_28_1037,listening_fmri,3.2.4,60.03665730225012,
1,parcelated_audio/13/13_26.ogg,,,,,,,,,0,0,0,0,0,1,1,1,0,0,0,0,,,,,,,,,0,0,0,0,0,25,25,25,,,,,,,,,,,,,,,,,,,,,,,,,,,,,,,,,,,,,,,,,,,,187.4870657070005,193.6710268550005,,,,,,,,,,,,,,,,,,,,,,,,,,,,,,,,,,,,,,,,,,,,,,,,,,,,,,,,,,,,,,,,,,092821,2,3,1,3,0,1,2,0,70,2021_Sep_28_1037,listening_fmri,3.2.4,60.03665730225012,
1,parcelated_audio/13/13_27.ogg,,,,,,,,,0,0,0,0,0,1,1,1,0,0,0,0,,,,,,,,,0,0,0,0,0,26,26,26,,,,,,,,,,,,,,,,,,,,,,,,,,,,,,,,,,,,,,,,,,,,193.6712727840004,198.90241164300005,,,,,,,,,,,,,,,,,,,,,,,,,,,,,,,,,,,,,,,,,,,,,,,,,,,,,,,,,,,,,,,,,,092821,2,3,1,3,0,1,2,0,70,2021_Sep_28_1037,listening_fmri,3.2.4,60.03665730225012,
1,parcelated_audio/13/13_28.ogg,,,,,,,,,0,0,0,0,0,1,1,1,0,0,0,0,,,,,,,,,0,0,0,0,0,27,27,27,,,,,,,,,,,,,,,,,,,,,,,,,,,,,,,,,,,,,,,,,,,,198.90268477500013,204.3345868160004,,,,,,,,,,,,,,,,,,,,,,,,,,,,,,,,,,,,,,,,,,,,,,,,,,,,,,,,,,,,,,,,,,092821,2,3,1,3,0,1,2,0,70,2021_Sep_28_1037,listening_fmri,3.2.4,60.03665730225012,
1,parcelated_audio/13/13_29.ogg,,,,,,,,,0,0,0,0,0,1,1,1,0,0,0,0,,,,,,,,,0,0,0,0,0,28,28,28,,,,,,,,,,,,,,,,,,,,,,,,,,,,,,,,,,,,,,,,,,,,204.3350327349999,207.61485039499985,,,,,,,,,,,,,,,,,,,,,,,,,,,,,,,,,,,,,,,,,,,,,,,,,,,,,,,,,,,,,,,,,,092821,2,3,1,3,0,1,2,0,70,2021_Sep_28_1037,listening_fmri,3.2.4,60.03665730225012,
1,parcelated_audio/13/13_30.ogg,,,,,,,,,0,0,0,0,0,1,1,1,0,0,0,0,,,,,,,,,0,0,0,0,0,29,29,29,,,,,,,,,,,,,,,,,,,,,,,,,,,,,,,,,,,,,,,,,,,,207.61528261900003,211.07053293199988,,,,,,,,,,,,,,,,,,,,,,,,,,,,,,,,,,,,,,,,,,,,,,,,,,,,,,,,,,,,,,,,,,092821,2,3,1,3,0,1,2,0,70,2021_Sep_28_1037,listening_fmri,3.2.4,60.03665730225012,
1,parcelated_audio/13/13_31.ogg,,,,,,,,,0,0,0,0,0,1,1,1,0,0,0,0,,,,,,,,,0,0,0,0,0,30,30,30,,,,,,,,,,,,,,,,,,,,,,,,,,,,,,,,,,,,,,,,,,,,211.07118679999985,217.0141447470005,,,,,,,,,,,,,,,,,,,,,,,,,,,,,,,,,,,,,,,,,,,,,,,,,,,,,,,,,,,,,,,,,,092821,2,3,1,3,0,1,2,0,70,2021_Sep_28_1037,listening_fmri,3.2.4,60.03665730225012,
1,,,,,,,,,,0,0,0,0,0,1,1,1,0,0,0,0,,,,,,,,,0,0,0,0,,,,,,,,,,,,,,,,,,,,,,,,,,,,,,,,,,,,,,,,,,,,,,,,,,,,,,,,,,,,,,,,,,,,,,,,,,,,,,,,,,,,,,,,,,,,,,,,,,,,,,,,,,,,,,,,,,,092821,2,3,1,3,0,1,2,0,70,2021_Sep_28_1037,listening_fmri,3.2.4,60.03665730225012,
1,,,,,,,,,,0,0,0,0,0,1,1,1,0,0,0,0,,,,,,,,,,,,,,,,,,,,,,,,,,,,,,,,,,,,,,217.01451313500002,223.01601634600047,264.2256866779999,None,,,,,,,,,,,,,,,,,,,,,270.23949013199945,None,270.23949013199945,None,,,,,,,,,,,,,,,,,,,,,,,,,,,,,,,,,,,,,,,,,,,,,,,,,,,,,,,,,,,,,,092821,2,3,1,3,0,1,2,0,70,2021_Sep_28_1037,listening_fmri,3.2.4,60.03665730225012,
1,,,,,,,,,,0,0,0,0,0,1,1,1,,,,,,,,,,,,,,,,,,,,,,,,,,,,,,,,,,,,,,,,,,,,,,,,,,,,,,,,,,,,,,,,,,,,,,,,,,,,,,,,,,,,,,,,,,,,,,,,,,,,,,,,,,,,,,,,,,,,,,,,,,,,,,,,,,,092821,2,3,1,3,0,1,2,0,70,2021_Sep_28_1037,listening_fmri,3.2.4,60.03665730225012,
2,,,,,,,,,,0,0,0,0,0,2,2,2,0,0,0,0,0,0,0,0,,,,,,,,,,,,,,,,,0,0,0,0,,,,,,,,,,,,,,,,,,271.2396126039994,None,271.2396126039994,None,2,2.1585984889998144,271.2396126039994,None,271.2396126039994,None,,,,,,,,,,,,,,,273.42289473299934,None,2,2.8103345070003343,273.42289473299934,None,273.42289473299934,None,276.27264994899997,None,276.27264994899997,None,276.27264994899997,None,2,1.8045763270001771,276.27264994899997,None,278.1060060279997,None,2,2.610189500999695,278.1060060279997,None,278.1060060279997,None,280.82278246399983,None,280.82278246399983,None,280.82278246399983,None,280.82278246399983,None,280.82278246399983,None,280.82278246399983,None,280.82278246399983,None,None,280.82278246399983,None,,,,,,,,,,,,,,,,,,,092821,2,3,1,3,0,1,2,0,70,2021_Sep_28_1037,listening_fmri,3.2.4,60.03665730225012,
2,,,,,,,,,,0,0,0,0,0,2,2,2,0,0,0,0,0,0,0,0,,,,,,,,,,,,,,,,,,,,,,,,,,,,,,,,,,,,,,,,,,,,,,,,,,,,,,,,,,,,,,,,,,,,,,,,,,,,,,,,,,,,,,,,,,,,,,,,,,,,,,,,,308.00608766499954,None,2,6.372101107999697,308.00608766499954,None,308.00608766499954,None,314.42281074199946,None,314.42281074199946,None,314.42281074199946,None,2,0.6512810139993235,314.42281074199946,None,092821,2,3,1,3,0,1,2,0,70,2021_Sep_28_1037,listening_fmri,3.2.4,60.03665730225012,
2,parcelated_audio/22/22_1.ogg,,,,,,,,,0,0,0,0,0,2,2,2,0,0,0,0,,,,,,,,,0,0,0,0,0,0,0,0,,,,,,,,,,,,,,,,,,,,,,,,,,,,,,,,,,,,315.08987190399966,None,2,2.6283448980002504,315.08987190399966,None,270.550484114,273.5658784420002,273.57184267200046,286.6143705479999,,,,,,,,,,,,,,,,,,,,,,,,,,,,,,,,,,,,,,,,,,,,,,,,,,,,,,,,,,,,,,,,,,092821,2,3,1,3,0,1,2,0,70,2021_Sep_28_1037,listening_fmri,3.2.4,60.03665730225012,
2,parcelated_audio/22/22_2.ogg,,,,,,,,,0,0,0,0,0,2,2,2,0,0,0,0,,,,,,,,,0,0,0,0,0,1,1,1,,,,,,,,,,,,,,,,,,,,,,,,,,,,,,,,,,,,,,,,,,,,286.6148211290001,293.00030902900016,,,,,,,,,,,,,,,,,,,,,,,,,,,,,,,,,,,,,,,,,,,,,,,,,,,,,,,,,,,,,,,,,,092821,2,3,1,3,0,1,2,0,70,2021_Sep_28_1037,listening_fmri,3.2.4,60.03665730225012,
2,parcelated_audio/22/22_3.ogg,,,,,,,,,0,0,0,0,0,2,2,2,0,0,0,0,,,,,,,,,0,0,0,0,0,2,2,2,,,,,,,,,,,,,,,,,,,,,,,,,,,,,,,,,,,,,,,,,,,,293.0006658410002,305.9187809920004,,,,,,,,,,,,,,,,,,,,,,,,,,,,,,,,,,,,,,,,,,,,,,,,,,,,,,,,,,,,,,,,,,092821,2,3,1,3,0,1,2,0,70,2021_Sep_28_1037,listening_fmri,3.2.4,60.03665730225012,
2,parcelated_audio/22/22_4.ogg,,,,,,,,,0,0,0,0,0,2,2,2,0,0,0,0,,,,,,,,,0,0,0,0,0,3,3,3,,,,,,,,,,,,,,,,,,,,,,,,,,,,,,,,,,,,,,,,,,,,305.9190488680006,318.32938653400015,,,,,,,,,,,,,,,,,,,,,,,,,,,,,,,,,,,,,,,,,,,,,,,,,,,,,,,,,,,,,,,,,,092821,2,3,1,3,0,1,2,0,70,2021_Sep_28_1037,listening_fmri,3.2.4,60.03665730225012,
2,parcelated_audio/22/22_5.ogg,,,,,,,,,0,0,0,0,0,2,2,2,0,0,0,0,,,,,,,,,0,0,0,0,0,4,4,4,,,,,,,,,,,,,,,,,,,,,,,,,,,,,,,,,,,,,,,,,,,,318.32965450400025,324.25851272100044,,,,,,,,,,,,,,,,,,,,,,,,,,,,,,,,,,,,,,,,,,,,,,,,,,,,,,,,,,,,,,,,,,092821,2,3,1,3,0,1,2,0,70,2021_Sep_28_1037,listening_fmri,3.2.4,60.03665730225012,
2,parcelated_audio/22/22_6.ogg,,,,,,,,,0,0,0,0,0,2,2,2,0,0,0,0,,,,,,,,,0,0,0,0,0,5,5,5,,,,,,,,,,,,,,,,,,,,,,,,,,,,,,,,,,,,,,,,,,,,324.25880047400005,333.4546322010001,,,,,,,,,,,,,,,,,,,,,,,,,,,,,,,,,,,,,,,,,,,,,,,,,,,,,,,,,,,,,,,,,,092821,2,3,1,3,0,1,2,0,70,2021_Sep_28_1037,listening_fmri,3.2.4,60.03665730225012,
2,parcelated_audio/22/22_7.ogg,,,,,,,,,0,0,0,0,0,2,2,2,0,0,0,0,,,,,,,,,0,0,0,0,0,6,6,6,,,,,,,,,,,,,,,,,,,,,,,,,,,,,,,,,,,,,,,,,,,,333.45490718400015,338.43869473799987,,,,,,,,,,,,,,,,,,,,,,,,,,,,,,,,,,,,,,,,,,,,,,,,,,,,,,,,,,,,,,,,,,092821,2,3,1,3,0,1,2,0,70,2021_Sep_28_1037,listening_fmri,3.2.4,60.03665730225012,
2,parcelated_audio/22/22_8.ogg,,,,,,,,,0,0,0,0,0,2,2,2,0,0,0,0,,,,,,,,,0,0,0,0,0,7,7,7,,,,,,,,,,,,,,,,,,,,,,,,,,,,,,,,,,,,,,,,,,,,338.438966144,341.9671874330006,,,,,,,,,,,,,,,,,,,,,,,,,,,,,,,,,,,,,,,,,,,,,,,,,,,,,,,,,,,,,,,,,,092821,2,3,1,3,0,1,2,0,70,2021_Sep_28_1037,listening_fmri,3.2.4,60.03665730225012,
2,parcelated_audio/22/22_9.ogg,,,,,,,,,0,0,0,0,0,2,2,2,0,0,0,0,,,,,,,,,0,0,0,0,0,8,8,8,,,,,,,,,,,,,,,,,,,,,,,,,,,,,,,,,,,,,,,,,,,,341.9681065320001,345.85451222100073,,,,,,,,,,,,,,,,,,,,,,,,,,,,,,,,,,,,,,,,,,,,,,,,,,,,,,,,,,,,,,,,,,092821,2,3,1,3,0,1,2,0,70,2021_Sep_28_1037,listening_fmri,3.2.4,60.03665730225012,
2,parcelated_audio/22/22_10.ogg,,,,,,,,,0,0,0,0,0,2,2,2,0,0,0,0,,,,,,,,,0,0,0,0,0,9,9,9,,,,,,,,,,,,,,,,,,,,,,,,,,,,,,,,,,,,,,,,,,,,345.85480454000026,350.6204320269999,,,,,,,,,,,,,,,,,,,,,,,,,,,,,,,,,,,,,,,,,,,,,,,,,,,,,,,,,,,,,,,,,,092821,2,3,1,3,0,1,2,0,70,2021_Sep_28_1037,listening_fmri,3.2.4,60.03665730225012,
2,parcelated_audio/22/22_11.ogg,,,,,,,,,0,0,0,0,0,2,2,2,0,0,0,0,,,,,,,,,0,0,0,0,0,10,10,10,,,,,,,,,,,,,,,,,,,,,,,,,,,,,,,,,,,,,,,,,,,,350.6207029220004,357.9003041570004,,,,,,,,,,,,,,,,,,,,,,,,,,,,,,,,,,,,,,,,,,,,,,,,,,,,,,,,,,,,,,,,,,092821,2,3,1,3,0,1,2,0,70,2021_Sep_28_1037,listening_fmri,3.2.4,60.03665730225012,
2,parcelated_audio/22/22_12.ogg,,,,,,,,,0,0,0,0,0,2,2,2,0,0,0,0,,,,,,,,,0,0,0,0,0,11,11,11,,,,,,,,,,,,,,,,,,,,,,,,,,,,,,,,,,,,,,,,,,,,357.90057585500017,365.608733905,,,,,,,,,,,,,,,,,,,,,,,,,,,,,,,,,,,,,,,,,,,,,,,,,,,,,,,,,,,,,,,,,,092821,2,3,1,3,0,1,2,0,70,2021_Sep_28_1037,listening_fmri,3.2.4,60.03665730225012,
2,parcelated_audio/22/22_13.ogg,,,,,,,,,0,0,0,0,0,2,2,2,0,0,0,0,,,,,,,,,0,0,0,0,0,12,12,12,,,,,,,,,,,,,,,,,,,,,,,,,,,,,,,,,,,,,,,,,,,,365.6090877679999,372.868470503,,,,,,,,,,,,,,,,,,,,,,,,,,,,,,,,,,,,,,,,,,,,,,,,,,,,,,,,,,,,,,,,,,092821,2,3,1,3,0,1,2,0,70,2021_Sep_28_1037,listening_fmri,3.2.4,60.03665730225012,
2,parcelated_audio/22/22_14.ogg,,,,,,,,,0,0,0,0,0,2,2,2,0,0,0,0,,,,,,,,,0,0,0,0,0,13,13,13,,,,,,,,,,,,,,,,,,,,,,,,,,,,,,,,,,,,,,,,,,,,372.86903768200045,378.48436242800017,,,,,,,,,,,,,,,,,,,,,,,,,,,,,,,,,,,,,,,,,,,,,,,,,,,,,,,,,,,,,,,,,,092821,2,3,1,3,0,1,2,0,70,2021_Sep_28_1037,listening_fmri,3.2.4,60.03665730225012,
2,parcelated_audio/22/22_15.ogg,,,,,,,,,0,0,0,0,0,2,2,2,0,0,0,0,,,,,,,,,0,0,0,0,0,14,14,14,,,,,,,,,,,,,,,,,,,,,,,,,,,,,,,,,,,,,,,,,,,,378.48486091199993,386.26807304400063,,,,,,,,,,,,,,,,,,,,,,,,,,,,,,,,,,,,,,,,,,,,,,,,,,,,,,,,,,,,,,,,,,092821,2,3,1,3,0,1,2,0,70,2021_Sep_28_1037,listening_fmri,3.2.4,60.03665730225012,
2,parcelated_audio/22/22_16.ogg,,,,,,,,,0,0,0,0,0,2,2,2,0,0,0,0,,,,,,,,,0,0,0,0,0,15,15,15,,,,,,,,,,,,,,,,,,,,,,,,,,,,,,,,,,,,,,,,,,,,386.2684191470007,394.96127319600055,,,,,,,,,,,,,,,,,,,,,,,,,,,,,,,,,,,,,,,,,,,,,,,,,,,,,,,,,,,,,,,,,,092821,2,3,1,3,0,1,2,0,70,2021_Sep_28_1037,listening_fmri,3.2.4,60.03665730225012,
2,parcelated_audio/22/22_17.ogg,,,,,,,,,0,0,0,0,0,2,2,2,0,0,0,0,,,,,,,,,0,0,0,0,0,16,16,16,,,,,,,,,,,,,,,,,,,,,,,,,,,,,,,,,,,,,,,,,,,,394.9616263450007,398.1017485800003,,,,,,,,,,,,,,,,,,,,,,,,,,,,,,,,,,,,,,,,,,,,,,,,,,,,,,,,,,,,,,,,,,092821,2,3,1,3,0,1,2,0,70,2021_Sep_28_1037,listening_fmri,3.2.4,60.03665730225012,
2,parcelated_audio/22/22_18.ogg,,,,,,,,,0,0,0,0,0,2,2,2,0,0,0,0,,,,,,,,,0,0,0,0,0,17,17,17,,,,,,,,,,,,,,,,,,,,,,,,,,,,,,,,,,,,,,,,,,,,398.1021041240001,404.82455343499987,,,,,,,,,,,,,,,,,,,,,,,,,,,,,,,,,,,,,,,,,,,,,,,,,,,,,,,,,,,,,,,,,,092821,2,3,1,3,0,1,2,0,70,2021_Sep_28_1037,listening_fmri,3.2.4,60.03665730225012,
2,parcelated_audio/22/22_19.ogg,,,,,,,,,0,0,0,0,0,2,2,2,0,0,0,0,,,,,,,,,0,0,0,0,0,18,18,18,,,,,,,,,,,,,,,,,,,,,,,,,,,,,,,,,,,,,,,,,,,,404.82488504400044,409.7835839440004,,,,,,,,,,,,,,,,,,,,,,,,,,,,,,,,,,,,,,,,,,,,,,,,,,,,,,,,,,,,,,,,,,092821,2,3,1,3,0,1,2,0,70,2021_Sep_28_1037,listening_fmri,3.2.4,60.03665730225012,
2,parcelated_audio/22/22_20.ogg,,,,,,,,,0,0,0,0,0,2,2,2,0,0,0,0,,,,,,,,,0,0,0,0,0,19,19,19,,,,,,,,,,,,,,,,,,,,,,,,,,,,,,,,,,,,,,,,,,,,409.7838699590002,423.89826141400044,,,,,,,,,,,,,,,,,,,,,,,,,,,,,,,,,,,,,,,,,,,,,,,,,,,,,,,,,,,,,,,,,,092821,2,3,1,3,0,1,2,0,70,2021_Sep_28_1037,listening_fmri,3.2.4,60.03665730225012,
2,parcelated_audio/22/22_21.ogg,,,,,,,,,0,0,0,0,0,2,2,2,0,0,0,0,,,,,,,,,0,0,0,0,0,20,20,20,,,,,,,,,,,,,,,,,,,,,,,,,,,,,,,,,,,,,,,,,,,,423.89859133200025,425.89978992500073,,,,,,,,,,,,,,,,,,,,,,,,,,,,,,,,,,,,,,,,,,,,,,,,,,,,,,,,,,,,,,,,,,092821,2,3,1,3,0,1,2,0,70,2021_Sep_28_1037,listening_fmri,3.2.4,60.03665730225012,
2,parcelated_audio/22/22_22.ogg,,,,,,,,,0,0,0,0,0,2,2,2,0,0,0,0,,,,,,,,,0,0,0,0,0,21,21,21,,,,,,,,,,,,,,,,,,,,,,,,,,,,,,,,,,,,,,,,,,,,425.9002239520005,429.04686793200017,,,,,,,,,,,,,,,,,,,,,,,,,,,,,,,,,,,,,,,,,,,,,,,,,,,,,,,,,,,,,,,,,,092821,2,3,1,3,0,1,2,0,70,2021_Sep_28_1037,listening_fmri,3.2.4,60.03665730225012,
2,parcelated_audio/22/22_23.ogg,,,,,,,,,0,0,0,0,0,2,2,2,0,0,0,0,,,,,,,,,0,0,0,0,0,22,22,22,,,,,,,,,,,,,,,,,,,,,,,,,,,,,,,,,,,,,,,,,,,,429.04714557700026,435.56946350900034,,,,,,,,,,,,,,,,,,,,,,,,,,,,,,,,,,,,,,,,,,,,,,,,,,,,,,,,,,,,,,,,,,092821,2,3,1,3,0,1,2,0,70,2021_Sep_28_1037,listening_fmri,3.2.4,60.03665730225012,
2,parcelated_audio/22/22_24.ogg,,,,,,,,,0,0,0,0,0,2,2,2,0,0,0,0,,,,,,,,,0,0,0,0,0,23,23,23,,,,,,,,,,,,,,,,,,,,,,,,,,,,,,,,,,,,,,,,,,,,435.5700289360002,441.3013712210004,,,,,,,,,,,,,,,,,,,,,,,,,,,,,,,,,,,,,,,,,,,,,,,,,,,,,,,,,,,,,,,,,,092821,2,3,1,3,0,1,2,0,70,2021_Sep_28_1037,listening_fmri,3.2.4,60.03665730225012,
2,parcelated_audio/22/22_25.ogg,,,,,,,,,0,0,0,0,0,2,2,2,0,0,0,0,,,,,,,,,0,0,0,0,0,24,24,24,,,,,,,,,,,,,,,,,,,,,,,,,,,,,,,,,,,,,,,,,,,,441.3022466380007,453.9846715390004,,,,,,,,,,,,,,,,,,,,,,,,,,,,,,,,,,,,,,,,,,,,,,,,,,,,,,,,,,,,,,,,,,092821,2,3,1,3,0,1,2,0,70,2021_Sep_28_1037,listening_fmri,3.2.4,60.03665730225012,
2,parcelated_audio/22/22_26.ogg,,,,,,,,,0,0,0,0,0,2,2,2,0,0,0,0,,,,,,,,,0,0,0,0,0,25,25,25,,,,,,,,,,,,,,,,,,,,,,,,,,,,,,,,,,,,,,,,,,,,453.98507643500034,460.71564299200054,,,,,,,,,,,,,,,,,,,,,,,,,,,,,,,,,,,,,,,,,,,,,,,,,,,,,,,,,,,,,,,,,,092821,2,3,1,3,0,1,2,0,70,2021_Sep_28_1037,listening_fmri,3.2.4,60.03665730225012,
2,parcelated_audio/22/22_27.ogg,,,,,,,,,0,0,0,0,0,2,2,2,0,0,0,0,,,,,,,,,0,0,0,0,0,26,26,26,,,,,,,,,,,,,,,,,,,,,,,,,,,,,,,,,,,,,,,,,,,,460.7159414120006,465.10552525599996,,,,,,,,,,,,,,,,,,,,,,,,,,,,,,,,,,,,,,,,,,,,,,,,,,,,,,,,,,,,,,,,,,092821,2,3,1,3,0,1,2,0,70,2021_Sep_28_1037,listening_fmri,3.2.4,60.03665730225012,
2,parcelated_audio/22/22_28.ogg,,,,,,,,,0,0,0,0,0,2,2,2,0,0,0,0,,,,,,,,,0,0,0,0,0,27,27,27,,,,,,,,,,,,,,,,,,,,,,,,,,,,,,,,,,,,,,,,,,,,465.1059463540005,470.8546771420006,,,,,,,,,,,,,,,,,,,,,,,,,,,,,,,,,,,,,,,,,,,,,,,,,,,,,,,,,,,,,,,,,,092821,2,3,1,3,0,1,2,0,70,2021_Sep_28_1037,listening_fmri,3.2.4,60.03665730225012,
2,parcelated_audio/22/22_29.ogg,,,,,,,,,0,0,0,0,0,2,2,2,0,0,0,0,,,,,,,,,0,0,0,0,0,28,28,28,,,,,,,,,,,,,,,,,,,,,,,,,,,,,,,,,,,,,,,,,,,,470.8549486810007,476.5606601650006,,,,,,,,,,,,,,,,,,,,,,,,,,,,,,,,,,,,,,,,,,,,,,,,,,,,,,,,,,,,,,,,,,092821,2,3,1,3,0,1,2,0,70,2021_Sep_28_1037,listening_fmri,3.2.4,60.03665730225012,
2,parcelated_audio/22/22_30.ogg,,,,,,,,,0,0,0,0,0,2,2,2,0,0,0,0,,,,,,,,,0,0,0,0,0,29,29,29,,,,,,,,,,,,,,,,,,,,,,,,,,,,,,,,,,,,,,,,,,,,476.5611121190004,479.28444158300044,,,,,,,,,,,,,,,,,,,,,,,,,,,,,,,,,,,,,,,,,,,,,,,,,,,,,,,,,,,,,,,,,,092821,2,3,1,3,0,1,2,0,70,2021_Sep_28_1037,listening_fmri,3.2.4,60.03665730225012,
2,parcelated_audio/22/22_31.ogg,,,,,,,,,0,0,0,0,0,2,2,2,0,0,0,0,,,,,,,,,0,0,0,0,0,30,30,30,,,,,,,,,,,,,,,,,,,,,,,,,,,,,,,,,,,,,,,,,,,,479.28484481800024,484.43649348000054,,,,,,,,,,,,,,,,,,,,,,,,,,,,,,,,,,,,,,,,,,,,,,,,,,,,,,,,,,,,,,,,,,092821,2,3,1,3,0,1,2,0,70,2021_Sep_28_1037,listening_fmri,3.2.4,60.03665730225012,
2,parcelated_audio/22/22_32.ogg,,,,,,,,,0,0,0,0,0,2,2,2,0,0,0,0,,,,,,,,,0,0,0,0,0,31,31,31,,,,,,,,,,,,,,,,,,,,,,,,,,,,,,,,,,,,,,,,,,,,484.4368575890003,490.75912402799986,,,,,,,,,,,,,,,,,,,,,,,,,,,,,,,,,,,,,,,,,,,,,,,,,,,,,,,,,,,,,,,,,,092821,2,3,1,3,0,1,2,0,70,2021_Sep_28_1037,listening_fmri,3.2.4,60.03665730225012,
2,parcelated_audio/22/22_33.ogg,,,,,,,,,0,0,0,0,0,2,2,2,0,0,0,0,,,,,,,,,0,0,0,0,0,32,32,32,,,,,,,,,,,,,,,,,,,,,,,,,,,,,,,,,,,,,,,,,,,,490.75963281200075,495.2019006979999,,,,,,,,,,,,,,,,,,,,,,,,,,,,,,,,,,,,,,,,,,,,,,,,,,,,,,,,,,,,,,,,,,092821,2,3,1,3,0,1,2,0,70,2021_Sep_28_1037,listening_fmri,3.2.4,60.03665730225012,
2,parcelated_audio/22/22_34.ogg,,,,,,,,,0,0,0,0,0,2,2,2,0,0,0,0,,,,,,,,,0,0,0,0,0,33,33,33,,,,,,,,,,,,,,,,,,,,,,,,,,,,,,,,,,,,,,,,,,,,495.2022519330003,503.2457729730004,,,,,,,,,,,,,,,,,,,,,,,,,,,,,,,,,,,,,,,,,,,,,,,,,,,,,,,,,,,,,,,,,,092821,2,3,1,3,0,1,2,0,70,2021_Sep_28_1037,listening_fmri,3.2.4,60.03665730225012,
2,parcelated_audio/22/22_35.ogg,,,,,,,,,0,0,0,0,0,2,2,2,0,0,0,0,,,,,,,,,0,0,0,0,0,34,34,34,,,,,,,,,,,,,,,,,,,,,,,,,,,,,,,,,,,,,,,,,,,,503.2463024440003,510.74679278200074,,,,,,,,,,,,,,,,,,,,,,,,,,,,,,,,,,,,,,,,,,,,,,,,,,,,,,,,,,,,,,,,,,092821,2,3,1,3,0,1,2,0,70,2021_Sep_28_1037,listening_fmri,3.2.4,60.03665730225012,
2,parcelated_audio/22/22_36.ogg,,,,,,,,,0,0,0,0,0,2,2,2,0,0,0,0,,,,,,,,,0,0,0,0,0,35,35,35,,,,,,,,,,,,,,,,,,,,,,,,,,,,,,,,,,,,,,,,,,,,510.74713838000025,523.4428487920004,,,,,,,,,,,,,,,,,,,,,,,,,,,,,,,,,,,,,,,,,,,,,,,,,,,,,,,,,,,,,,,,,,092821,2,3,1,3,0,1,2,0,70,2021_Sep_28_1037,listening_fmri,3.2.4,60.03665730225012,
2,parcelated_audio/22/22_37.ogg,,,,,,,,,0,0,0,0,0,2,2,2,0,0,0,0,,,,,,,,,0,0,0,0,0,36,36,36,,,,,,,,,,,,,,,,,,,,,,,,,,,,,,,,,,,,,,,,,,,,523.4432006970001,530.6197730029999,,,,,,,,,,,,,,,,,,,,,,,,,,,,,,,,,,,,,,,,,,,,,,,,,,,,,,,,,,,,,,,,,,092821,2,3,1,3,0,1,2,0,70,2021_Sep_28_1037,listening_fmri,3.2.4,60.03665730225012,
2,,,,,,,,,,0,0,0,0,0,2,2,2,0,0,0,0,,,,,,,,,0,0,0,0,,,,,,,,,,,,,,,,,,,,,,,,,,,,,,,,,,,,,,,,,,,,,,,,,,,,,,,,,,,,,,,,,,,,,,,,,,,,,,,,,,,,,,,,,,,,,,,,,,,,,,,,,,,,,,,,,,,092821,2,3,1,3,0,1,2,0,70,2021_Sep_28_1037,listening_fmri,3.2.4,60.03665730225012,
2,,,,,,,,,,0,0,0,0,0,2,2,2,0,0,0,0,,,,,,,,,,,,,,,,,,,,,,,,,,,,,,,,,,,,,,530.620269555,536.6155687440005,577.8378828399991,None,,,,,,,,,,,,,,,,,,,,,583.840192144,None,583.840192144,None,,,,,,,,,,,,,,,,,,,,,,,,,,,,,,,,,,,,,,,,,,,,,,,,,,,,,,,,,,,,,,092821,2,3,1,3,0,1,2,0,70,2021_Sep_28_1037,listening_fmri,3.2.4,60.03665730225012,
2,,,,,,,,,,0,0,0,0,0,2,2,2,,,,,,,,,,,,,,,,,,,,,,,,,,,,,,,,,,,,,,,,,,,,,,,,,,,,,,,,,,,,,,,,,,,,,,,,,,,,,,,,,,,,,,,,,,,,,,,,,,,,,,,,,,,,,,,,,,,,,,,,,,,,,,,,,,,092821,2,3,1,3,0,1,2,0,70,2021_Sep_28_1037,listening_fmri,3.2.4,60.03665730225012,
3,,,,,,,,,,0,0,0,0,0,3,3,3,0,0,0,0,0,0,0,0,,,,,,,,,,,,,,,,,0,0,0,0,,,,,,,,,,,,,,,,,,584.8547908459996,None,584.8547908459996,None,7,2.2174291290002657,584.8547908459996,None,584.8547908459996,None,,,,,,,,,,,,,,,587.089886836,None,7,2.2832382199994754,587.089886836,None,587.089886836,None,589.4061888209999,None,589.4061888209999,None,589.4061888209999,None,7,2.2629907220007226,589.4061888209999,None,591.6902860829996,None,7,4.173915430999841,591.6902860829996,None,591.6902860829996,None,595.9710472909992,None,595.9710472909992,None,595.9710472909992,None,595.9710472909992,None,595.9710472909992,None,595.9710472909992,None,595.9710472909992,None,None,595.9710472909992,None,,,,,,,,,,,,,,,,,,,092821,2,3,1,3,0,1,2,0,70,2021_Sep_28_1037,listening_fmri,3.2.4,60.03665730225012,
3,,,,,,,,,,0,0,0,0,0,3,3,3,0,0,0,0,0,0,0,0,,,,,,,,,,,,,,,,,1,0,1,0,,,,,,,,,,,,,,,,,,,,,,,,,,,,,,,,,,,,,,,,,,,,,,,,,,613.3546684119992,None,613.3546684119992,None,613.3546684119992,None,3,0.8834762730002694,613.3546684119992,None,614.257519969,None,3,0.5957093409997469,614.257519969,None,614.257519969,None,614.9708827519999,None,614.9708827519999,None,614.9708827519999,None,614.9708827519999,None,614.9708827519999,None,614.9708827519999,None,614.9708827519999,None,None,614.9708827519999,None,,,,,,,,,,,,,,,,,,,092821,2,3,1,3,0,1,2,0,70,2021_Sep_28_1037,listening_fmri,3.2.4,60.03665730225012,
3,,,,,,,,,,0,0,0,0,0,3,3,3,0,0,0,0,0,0,0,0,,,,,,,,,,,,,,,,,,,,,,,,,,,,,,,,,,,,,,,,,,,,,,,,,,,,,,,,,,,,,,,,,,,,,,,,,,,,,,,,,,,,,,,,,,,,,,,,,,,,,,,,,643.3045169429997,None,3,3.447693756999797,643.3045169429997,None,643.3045169429997,None,646.7878373799995,None,646.7878373799995,None,646.7878373799995,None,3,2.8753624300006777,646.7878373799995,None,092821,2,3,1,3,0,1,2,0,70,2021_Sep_28_1037,listening_fmri,3.2.4,60.03665730225012,
3,parcelated_audio/31/31_1.ogg,,,,,,,,,0,0,0,0,0,3,3,3,0,0,0,0,,,,,,,,,0,0,0,0,0,0,0,0,,,,,,,,,,,,,,,,,,,,,,,,,,,,,,,,,,,,649.6898901759996,None,3,3.910303051000483,649.6898901759996,None,606.4074976640004,609.4157640150006,609.425488418,618.1081421810004,,,,,,,,,,,,,,,,,,,,,,,,,,,,,,,,,,,,,,,,,,,,,,,,,,,,,,,,,,,,,,,,,,092821,2,3,1,3,0,1,2,0,70,2021_Sep_28_1037,listening_fmri,3.2.4,60.03665730225012,
3,parcelated_audio/31/31_2.ogg,,,,,,,,,0,0,0,0,0,3,3,3,0,0,0,0,,,,,,,,,0,0,0,0,0,1,1,1,,,,,,,,,,,,,,,,,,,,,,,,,,,,,,,,,,,,,,,,,,,,618.1095606950003,622.579970361,,,,,,,,,,,,,,,,,,,,,,,,,,,,,,,,,,,,,,,,,,,,,,,,,,,,,,,,,,,,,,,,,,092821,2,3,1,3,0,1,2,0,70,2021_Sep_28_1037,listening_fmri,3.2.4,60.03665730225012,
3,parcelated_audio/31/31_3.ogg,,,,,,,,,0,0,0,0,0,3,3,3,0,0,0,0,,,,,,,,,0,0,0,0,0,2,2,2,,,,,,,,,,,,,,,,,,,,,,,,,,,,,,,,,,,,,,,,,,,,622.5807843450002,630.8685651790001,,,,,,,,,,,,,,,,,,,,,,,,,,,,,,,,,,,,,,,,,,,,,,,,,,,,,,,,,,,,,,,,,,092821,2,3,1,3,0,1,2,0,70,2021_Sep_28_1037,listening_fmri,3.2.4,60.03665730225012,
3,parcelated_audio/31/31_4.ogg,,,,,,,,,0,0,0,0,0,3,3,3,0,0,0,0,,,,,,,,,0,0,0,0,0,3,3,3,,,,,,,,,,,,,,,,,,,,,,,,,,,,,,,,,,,,,,,,,,,,630.8688904600003,640.9372781640004,,,,,,,,,,,,,,,,,,,,,,,,,,,,,,,,,,,,,,,,,,,,,,,,,,,,,,,,,,,,,,,,,,092821,2,3,1,3,0,1,2,0,70,2021_Sep_28_1037,listening_fmri,3.2.4,60.03665730225012,
3,parcelated_audio/31/31_5.ogg,,,,,,,,,0,0,0,0,0,3,3,3,0,0,0,0,,,,,,,,,0,0,0,0,0,4,4,4,,,,,,,,,,,,,,,,,,,,,,,,,,,,,,,,,,,,,,,,,,,,640.9375516990003,652.0465256450007,,,,,,,,,,,,,,,,,,,,,,,,,,,,,,,,,,,,,,,,,,,,,,,,,,,,,,,,,,,,,,,,,,092821,2,3,1,3,0,1,2,0,70,2021_Sep_28_1037,listening_fmri,3.2.4,60.03665730225012,
3,parcelated_audio/31/31_6.ogg,,,,,,,,,0,0,0,0,0,3,3,3,0,0,0,0,,,,,,,,,0,0,0,0,0,5,5,5,,,,,,,,,,,,,,,,,,,,,,,,,,,,,,,,,,,,,,,,,,,,652.04680104,657.3482422690004,,,,,,,,,,,,,,,,,,,,,,,,,,,,,,,,,,,,,,,,,,,,,,,,,,,,,,,,,,,,,,,,,,092821,2,3,1,3,0,1,2,0,70,2021_Sep_28_1037,listening_fmri,3.2.4,60.03665730225012,
3,parcelated_audio/31/31_7.ogg,,,,,,,,,0,0,0,0,0,3,3,3,0,0,0,0,,,,,,,,,0,0,0,0,0,6,6,6,,,,,,,,,,,,,,,,,,,,,,,,,,,,,,,,,,,,,,,,,,,,657.3486399530002,662.193407621,,,,,,,,,,,,,,,,,,,,,,,,,,,,,,,,,,,,,,,,,,,,,,,,,,,,,,,,,,,,,,,,,,092821,2,3,1,3,0,1,2,0,70,2021_Sep_28_1037,listening_fmri,3.2.4,60.03665730225012,
3,parcelated_audio/31/31_8.ogg,,,,,,,,,0,0,0,0,0,3,3,3,0,0,0,0,,,,,,,,,0,0,0,0,0,7,7,7,,,,,,,,,,,,,,,,,,,,,,,,,,,,,,,,,,,,,,,,,,,,662.193681836,670.6384494710001,,,,,,,,,,,,,,,,,,,,,,,,,,,,,,,,,,,,,,,,,,,,,,,,,,,,,,,,,,,,,,,,,,092821,2,3,1,3,0,1,2,0,70,2021_Sep_28_1037,listening_fmri,3.2.4,60.03665730225012,
3,parcelated_audio/31/31_9.ogg,,,,,,,,,0,0,0,0,0,3,3,3,0,0,0,0,,,,,,,,,0,0,0,0,0,8,8,8,,,,,,,,,,,,,,,,,,,,,,,,,,,,,,,,,,,,,,,,,,,,670.6388509660001,675.7128555830004,,,,,,,,,,,,,,,,,,,,,,,,,,,,,,,,,,,,,,,,,,,,,,,,,,,,,,,,,,,,,,,,,,092821,2,3,1,3,0,1,2,0,70,2021_Sep_28_1037,listening_fmri,3.2.4,60.03665730225012,
3,parcelated_audio/31/31_10.ogg,,,,,,,,,0,0,0,0,0,3,3,3,0,0,0,0,,,,,,,,,0,0,0,0,0,9,9,9,,,,,,,,,,,,,,,,,,,,,,,,,,,,,,,,,,,,,,,,,,,,675.7133803249999,681.2278317500004,,,,,,,,,,,,,,,,,,,,,,,,,,,,,,,,,,,,,,,,,,,,,,,,,,,,,,,,,,,,,,,,,,092821,2,3,1,3,0,1,2,0,70,2021_Sep_28_1037,listening_fmri,3.2.4,60.03665730225012,
3,parcelated_audio/31/31_11.ogg,,,,,,,,,0,0,0,0,0,3,3,3,0,0,0,0,,,,,,,,,0,0,0,0,0,10,10,10,,,,,,,,,,,,,,,,,,,,,,,,,,,,,,,,,,,,,,,,,,,,681.2281856620002,691.4487555270007,,,,,,,,,,,,,,,,,,,,,,,,,,,,,,,,,,,,,,,,,,,,,,,,,,,,,,,,,,,,,,,,,,092821,2,3,1,3,0,1,2,0,70,2021_Sep_28_1037,listening_fmri,3.2.4,60.03665730225012,
3,parcelated_audio/31/31_12.ogg,,,,,,,,,0,0,0,0,0,3,3,3,0,0,0,0,,,,,,,,,0,0,0,0,0,11,11,11,,,,,,,,,,,,,,,,,,,,,,,,,,,,,,,,,,,,,,,,,,,,691.4491104920007,696.241503665,,,,,,,,,,,,,,,,,,,,,,,,,,,,,,,,,,,,,,,,,,,,,,,,,,,,,,,,,,,,,,,,,,092821,2,3,1,3,0,1,2,0,70,2021_Sep_28_1037,listening_fmri,3.2.4,60.03665730225012,
3,parcelated_audio/31/31_13.ogg,,,,,,,,,0,0,0,0,0,3,3,3,0,0,0,0,,,,,,,,,0,0,0,0,0,12,12,12,,,,,,,,,,,,,,,,,,,,,,,,,,,,,,,,,,,,,,,,,,,,696.2420505340006,703.5642020800005,,,,,,,,,,,,,,,,,,,,,,,,,,,,,,,,,,,,,,,,,,,,,,,,,,,,,,,,,,,,,,,,,,092821,2,3,1,3,0,1,2,0,70,2021_Sep_28_1037,listening_fmri,3.2.4,60.03665730225012,
3,parcelated_audio/31/31_14.ogg,,,,,,,,,0,0,0,0,0,3,3,3,0,0,0,0,,,,,,,,,0,0,0,0,0,13,13,13,,,,,,,,,,,,,,,,,,,,,,,,,,,,,,,,,,,,,,,,,,,,703.5645855040002,709.6948672210001,,,,,,,,,,,,,,,,,,,,,,,,,,,,,,,,,,,,,,,,,,,,,,,,,,,,,,,,,,,,,,,,,,092821,2,3,1,3,0,1,2,0,70,2021_Sep_28_1037,listening_fmri,3.2.4,60.03665730225012,
3,parcelated_audio/31/31_15.ogg,,,,,,,,,0,0,0,0,0,3,3,3,0,0,0,0,,,,,,,,,0,0,0,0,0,14,14,14,,,,,,,,,,,,,,,,,,,,,,,,,,,,,,,,,,,,,,,,,,,,709.6953327560004,716.4796935450004,,,,,,,,,,,,,,,,,,,,,,,,,,,,,,,,,,,,,,,,,,,,,,,,,,,,,,,,,,,,,,,,,,092821,2,3,1,3,0,1,2,0,70,2021_Sep_28_1037,listening_fmri,3.2.4,60.03665730225012,
3,parcelated_audio/31/31_16.ogg,,,,,,,,,0,0,0,0,0,3,3,3,0,0,0,0,,,,,,,,,0,0,0,0,0,15,15,15,,,,,,,,,,,,,,,,,,,,,,,,,,,,,,,,,,,,,,,,,,,,716.480039043,722.8904997670006,,,,,,,,,,,,,,,,,,,,,,,,,,,,,,,,,,,,,,,,,,,,,,,,,,,,,,,,,,,,,,,,,,092821,2,3,1,3,0,1,2,0,70,2021_Sep_28_1037,listening_fmri,3.2.4,60.03665730225012,
3,parcelated_audio/31/31_17.ogg,,,,,,,,,0,0,0,0,0,3,3,3,0,0,0,0,,,,,,,,,0,0,0,0,0,16,16,16,,,,,,,,,,,,,,,,,,,,,,,,,,,,,,,,,,,,,,,,,,,,722.8907814560007,726.3305790700006,,,,,,,,,,,,,,,,,,,,,,,,,,,,,,,,,,,,,,,,,,,,,,,,,,,,,,,,,,,,,,,,,,092821,2,3,1,3,0,1,2,0,70,2021_Sep_28_1037,listening_fmri,3.2.4,60.03665730225012,
3,parcelated_audio/31/31_18.ogg,,,,,,,,,0,0,0,0,0,3,3,3,0,0,0,0,,,,,,,,,0,0,0,0,0,17,17,17,,,,,,,,,,,,,,,,,,,,,,,,,,,,,,,,,,,,,,,,,,,,726.3308544370002,730.961569561,,,,,,,,,,,,,,,,,,,,,,,,,,,,,,,,,,,,,,,,,,,,,,,,,,,,,,,,,,,,,,,,,,092821,2,3,1,3,0,1,2,0,70,2021_Sep_28_1037,listening_fmri,3.2.4,60.03665730225012,
3,parcelated_audio/31/31_19.ogg,,,,,,,,,0,0,0,0,0,3,3,3,0,0,0,0,,,,,,,,,0,0,0,0,0,18,18,18,,,,,,,,,,,,,,,,,,,,,,,,,,,,,,,,,,,,,,,,,,,,730.9619438850004,739.1505730480003,,,,,,,,,,,,,,,,,,,,,,,,,,,,,,,,,,,,,,,,,,,,,,,,,,,,,,,,,,,,,,,,,,092821,2,3,1,3,0,1,2,0,70,2021_Sep_28_1037,listening_fmri,3.2.4,60.03665730225012,
3,parcelated_audio/31/31_20.ogg,,,,,,,,,0,0,0,0,0,3,3,3,0,0,0,0,,,,,,,,,0,0,0,0,0,19,19,19,,,,,,,,,,,,,,,,,,,,,,,,,,,,,,,,,,,,,,,,,,,,739.1508413950005,756.9932059070006,,,,,,,,,,,,,,,,,,,,,,,,,,,,,,,,,,,,,,,,,,,,,,,,,,,,,,,,,,,,,,,,,,092821,2,3,1,3,0,1,2,0,70,2021_Sep_28_1037,listening_fmri,3.2.4,60.03665730225012,
3,parcelated_audio/31/31_21.ogg,,,,,,,,,0,0,0,0,0,3,3,3,0,0,0,0,,,,,,,,,0,0,0,0,0,20,20,20,,,,,,,,,,,,,,,,,,,,,,,,,,,,,,,,,,,,,,,,,,,,756.9934755849999,767.2413623729999,,,,,,,,,,,,,,,,,,,,,,,,,,,,,,,,,,,,,,,,,,,,,,,,,,,,,,,,,,,,,,,,,,092821,2,3,1,3,0,1,2,0,70,2021_Sep_28_1037,listening_fmri,3.2.4,60.03665730225012,
3,parcelated_audio/31/31_22.ogg,,,,,,,,,0,0,0,0,0,3,3,3,0,0,0,0,,,,,,,,,0,0,0,0,0,21,21,21,,,,,,,,,,,,,,,,,,,,,,,,,,,,,,,,,,,,,,,,,,,,767.241637778,772.9561273449999,,,,,,,,,,,,,,,,,,,,,,,,,,,,,,,,,,,,,,,,,,,,,,,,,,,,,,,,,,,,,,,,,,092821,2,3,1,3,0,1,2,0,70,2021_Sep_28_1037,listening_fmri,3.2.4,60.03665730225012,
3,parcelated_audio/31/31_23.ogg,,,,,,,,,0,0,0,0,0,3,3,3,0,0,0,0,,,,,,,,,0,0,0,0,0,22,22,22,,,,,,,,,,,,,,,,,,,,,,,,,,,,,,,,,,,,,,,,,,,,772.9564071370005,777.5663792160003,,,,,,,,,,,,,,,,,,,,,,,,,,,,,,,,,,,,,,,,,,,,,,,,,,,,,,,,,,,,,,,,,,092821,2,3,1,3,0,1,2,0,70,2021_Sep_28_1037,listening_fmri,3.2.4,60.03665730225012,
3,parcelated_audio/31/31_24.ogg,,,,,,,,,0,0,0,0,0,3,3,3,0,0,0,0,,,,,,,,,0,0,0,0,0,23,23,23,,,,,,,,,,,,,,,,,,,,,,,,,,,,,,,,,,,,,,,,,,,,777.5667760050001,784.4500438969999,,,,,,,,,,,,,,,,,,,,,,,,,,,,,,,,,,,,,,,,,,,,,,,,,,,,,,,,,,,,,,,,,,092821,2,3,1,3,0,1,2,0,70,2021_Sep_28_1037,listening_fmri,3.2.4,60.03665730225012,
3,parcelated_audio/31/31_25.ogg,,,,,,,,,0,0,0,0,0,3,3,3,0,0,0,0,,,,,,,,,0,0,0,0,0,24,24,24,,,,,,,,,,,,,,,,,,,,,,,,,,,,,,,,,,,,,,,,,,,,784.4503169039999,796.4358611739999,,,,,,,,,,,,,,,,,,,,,,,,,,,,,,,,,,,,,,,,,,,,,,,,,,,,,,,,,,,,,,,,,,092821,2,3,1,3,0,1,2,0,70,2021_Sep_28_1037,listening_fmri,3.2.4,60.03665730225012,
3,parcelated_audio/31/31_26.ogg,,,,,,,,,0,0,0,0,0,3,3,3,0,0,0,0,,,,,,,,,0,0,0,0,0,25,25,25,,,,,,,,,,,,,,,,,,,,,,,,,,,,,,,,,,,,,,,,,,,,796.43619373,803.9554081659999,,,,,,,,,,,,,,,,,,,,,,,,,,,,,,,,,,,,,,,,,,,,,,,,,,,,,,,,,,,,,,,,,,092821,2,3,1,3,0,1,2,0,70,2021_Sep_28_1037,listening_fmri,3.2.4,60.03665730225012,
3,parcelated_audio/31/31_27.ogg,,,,,,,,,0,0,0,0,0,3,3,3,0,0,0,0,,,,,,,,,0,0,0,0,0,26,26,26,,,,,,,,,,,,,,,,,,,,,,,,,,,,,,,,,,,,,,,,,,,,803.9557064190003,808.4628700960002,,,,,,,,,,,,,,,,,,,,,,,,,,,,,,,,,,,,,,,,,,,,,,,,,,,,,,,,,,,,,,,,,,092821,2,3,1,3,0,1,2,0,70,2021_Sep_28_1037,listening_fmri,3.2.4,60.03665730225012,
3,parcelated_audio/31/31_28.ogg,,,,,,,,,0,0,0,0,0,3,3,3,0,0,0,0,,,,,,,,,0,0,0,0,0,27,27,27,,,,,,,,,,,,,,,,,,,,,,,,,,,,,,,,,,,,,,,,,,,,808.4637365950002,813.4841786420002,,,,,,,,,,,,,,,,,,,,,,,,,,,,,,,,,,,,,,,,,,,,,,,,,,,,,,,,,,,,,,,,,,092821,2,3,1,3,0,1,2,0,70,2021_Sep_28_1037,listening_fmri,3.2.4,60.03665730225012,
3,parcelated_audio/31/31_29.ogg,,,,,,,,,0,0,0,0,0,3,3,3,0,0,0,0,,,,,,,,,0,0,0,0,0,28,28,28,,,,,,,,,,,,,,,,,,,,,,,,,,,,,,,,,,,,,,,,,,,,813.4851495010007,817.8386924650003,,,,,,,,,,,,,,,,,,,,,,,,,,,,,,,,,,,,,,,,,,,,,,,,,,,,,,,,,,,,,,,,,,092821,2,3,1,3,0,1,2,0,70,2021_Sep_28_1037,listening_fmri,3.2.4,60.03665730225012,
3,parcelated_audio/31/31_30.ogg,,,,,,,,,0,0,0,0,0,3,3,3,0,0,0,0,,,,,,,,,0,0,0,0,0,29,29,29,,,,,,,,,,,,,,,,,,,,,,,,,,,,,,,,,,,,,,,,,,,,817.8389672530002,821.6014882220006,,,,,,,,,,,,,,,,,,,,,,,,,,,,,,,,,,,,,,,,,,,,,,,,,,,,,,,,,,,,,,,,,,092821,2,3,1,3,0,1,2,0,70,2021_Sep_28_1037,listening_fmri,3.2.4,60.03665730225012,
3,parcelated_audio/31/31_31.ogg,,,,,,,,,0,0,0,0,0,3,3,3,0,0,0,0,,,,,,,,,0,0,0,0,0,30,30,30,,,,,,,,,,,,,,,,,,,,,,,,,,,,,,,,,,,,,,,,,,,,821.6018090460002,827.5645062920003,,,,,,,,,,,,,,,,,,,,,,,,,,,,,,,,,,,,,,,,,,,,,,,,,,,,,,,,,,,,,,,,,,092821,2,3,1,3,0,1,2,0,70,2021_Sep_28_1037,listening_fmri,3.2.4,60.03665730225012,
3,parcelated_audio/31/31_32.ogg,,,,,,,,,0,0,0,0,0,3,3,3,0,0,0,0,,,,,,,,,0,0,0,0,0,31,31,31,,,,,,,,,,,,,,,,,,,,,,,,,,,,,,,,,,,,,,,,,,,,827.5655276810003,837.5315072500007,,,,,,,,,,,,,,,,,,,,,,,,,,,,,,,,,,,,,,,,,,,,,,,,,,,,,,,,,,,,,,,,,,092821,2,3,1,3,0,1,2,0,70,2021_Sep_28_1037,listening_fmri,3.2.4,60.03665730225012,
3,parcelated_audio/31/31_33.ogg,,,,,,,,,0,0,0,0,0,3,3,3,0,0,0,0,,,,,,,,,0,0,0,0,0,32,32,32,,,,,,,,,,,,,,,,,,,,,,,,,,,,,,,,,,,,,,,,,,,,837.5318104830003,845.8939869599999,,,,,,,,,,,,,,,,,,,,,,,,,,,,,,,,,,,,,,,,,,,,,,,,,,,,,,,,,,,,,,,,,,092821,2,3,1,3,0,1,2,0,70,2021_Sep_28_1037,listening_fmri,3.2.4,60.03665730225012,
3,parcelated_audio/31/31_34.ogg,,,,,,,,,0,0,0,0,0,3,3,3,0,0,0,0,,,,,,,,,0,0,0,0,0,33,33,33,,,,,,,,,,,,,,,,,,,,,,,,,,,,,,,,,,,,,,,,,,,,845.8942388330006,850.2737922340002,,,,,,,,,,,,,,,,,,,,,,,,,,,,,,,,,,,,,,,,,,,,,,,,,,,,,,,,,,,,,,,,,,092821,2,3,1,3,0,1,2,0,70,2021_Sep_28_1037,listening_fmri,3.2.4,60.03665730225012,
3,parcelated_audio/31/31_35.ogg,,,,,,,,,0,0,0,0,0,3,3,3,0,0,0,0,,,,,,,,,0,0,0,0,0,34,34,34,,,,,,,,,,,,,,,,,,,,,,,,,,,,,,,,,,,,,,,,,,,,850.2742312580003,856.0377706550007,,,,,,,,,,,,,,,,,,,,,,,,,,,,,,,,,,,,,,,,,,,,,,,,,,,,,,,,,,,,,,,,,,092821,2,3,1,3,0,1,2,0,70,2021_Sep_28_1037,listening_fmri,3.2.4,60.03665730225012,
3,parcelated_audio/31/31_36.ogg,,,,,,,,,0,0,0,0,0,3,3,3,0,0,0,0,,,,,,,,,0,0,0,0,0,35,35,35,,,,,,,,,,,,,,,,,,,,,,,,,,,,,,,,,,,,,,,,,,,,856.0381938340006,862.3591111570004,,,,,,,,,,,,,,,,,,,,,,,,,,,,,,,,,,,,,,,,,,,,,,,,,,,,,,,,,,,,,,,,,,092821,2,3,1,3,0,1,2,0,70,2021_Sep_28_1037,listening_fmri,3.2.4,60.03665730225012,
3,,,,,,,,,,0,0,0,0,0,3,3,3,0,0,0,0,,,,,,,,,0,0,0,0,,,,,,,,,,,,,,,,,,,,,,,,,,,,,,,,,,,,,,,,,,,,,,,,,,,,,,,,,,,,,,,,,,,,,,,,,,,,,,,,,,,,,,,,,,,,,,,,,,,,,,,,,,,,,,,,,,,092821,2,3,1,3,0,1,2,0,70,2021_Sep_28_1037,listening_fmri,3.2.4,60.03665730225012,
,,,,,,,,,,,,,,,,,,,,,,,,,,,,,,,,,,,,,,,,,,,,,,,,,,,,,,,,,,,862.3597107840005,868.3502868300002,909.5736729779992,None,,,,,,,,,,,,,,,,,,,,,915.5747862599992,None,915.5747862599992,None,,,,,,,,,,,,,,,,,,,,,,,,,,,,,,,,,,,,,,,,,,,,,,,,,,,,,,,,,,,,,,,,,,,,,,,,,,,,
﻿count,audio,trials_14.thisRepN,trials_14.thisTrialN,trials_14.thisN,trials_14.thisIndex,trials_3.thisRepN,trials_3.thisTrialN,trials_3.thisN,trials_3.thisIndex,trials_4.thisRepN,trials_4.thisTrialN,trials_4.thisN,trials_4.thisIndex,trials_6.thisRepN,trials_6.thisTrialN,trials_6.thisN,trials_6.thisIndex,trials_9.thisRepN,trials_9.thisTrialN,trials_9.thisN,trials_9.thisIndex,trials_10.thisRepN,trials_10.thisTrialN,trials_10.thisN,trials_10.thisIndex,trials_12.thisRepN,trials_12.thisTrialN,trials_12.thisN,trials_12.thisIndex,trials_25.thisRepN,trials_25.thisTrialN,trials_25.thisN,trials_25.thisIndex,trials_15.thisRepN,trials_15.thisTrialN,trials_15.thisN,trials_15.thisIndex,trials_26.thisRepN,trials_26.thisTrialN,trials_26.thisN,trials_26.thisIndex,trials_11.thisRepN,trials_11.thisTrialN,trials_11.thisN,trials_11.thisIndex,story_list_block2,action_list_block2,textTrigger.started,textTrigger.stopped,getTrigger.keys,getTrigger.rt,getTrigger.started,getTrigger.stopped,triggerTime,text_76.started,text_76.stopped,text_77.started,text_77.stopped,startWait,endWait,image_23.started,image_23.stopped,text_55.started,text_55.stopped,text_56.started,text_56.stopped,key_resp_2.keys,key_resp_2.rt,key_resp_2.started,key_resp_2.stopped,text_82.started,text_82.stopped,text_64.started,text_64.stopped,key_resp_20.keys,key_resp_20.rt,key_resp_20.started,key_resp_20.stopped,storyImage_StartTime,storyImage_EndTime,clip_StartTime,clip_EndTime,text_67.started,text_67.stopped,text_68.started,text_68.stopped,text_57.started,text_57.stopped,key_resp_17.keys,key_resp_17.rt,key_resp_17.started,key_resp_17.stopped,text_83.started,text_83.stopped,text_60.started,text_60.stopped,image_2.started,image_2.stopped,text_58.started,text_58.stopped,key_resp_23.keys,key_resp_23.rt,key_resp_23.started,key_resp_23.stopped,text_62.started,text_62.stopped,key_resp_18.keys,key_resp_18.rt,key_resp_18.started,key_resp_18.stopped,text_84.started,text_84.stopped,question1_2.started,question1_2.stopped,question2_2.started,question2_2.stopped,question3_2.started,question3_2.stopped,question4_2.started,question4_2.stopped,question5_2.started,question5_2.stopped,question6_2.started,question6_2.stopped,image_15.started,image_15.stopped,key_resp.keys,key_resp.started,key_resp.stopped,text_59.started,text_59.stopped,key_resp_19.keys,key_resp_19.rt,key_resp_19.started,key_resp_19.stopped,text_85.started,text_85.stopped,text_61.started,text_61.stopped,image_17.started,image_17.stopped,text_63.started,text_63.stopped,key_resp_24.keys,key_resp_24.rt,key_resp_24.started,key_resp_24.stopped,participant,sA,sB,lA,lB,block_struct,play_stories,block,behavioral,random_seed,date,expName,psychopyVersion,frameRate,
0,,,,,,,,,,0,0,0,0,0,0,0,0,,,,,,,,,,,,,,,,,,,,,,,,,,,,,[42 13 22 31 11 44 33 24],[3 4 2 1 4 3 1 2],16.839576352999757,None,equal,30.354738072000146,16.839576352999757,None,30.389566279000064,16.839576352999757,None,16.839576352999757,None,0.0003918749998774729,6.015080197000316,47.228903669999454,None,,,,,,,,,,,,,,,,,,,,,,,,,,,,,,,,,,,,,,,,,,,,,,,,,,,,,,,,,,,,,,,,,,,,,,,,,,,,,,,,,,,,,,092821,2,3,1,3,0,1,2,0,70,2021_Sep_28_1037,listening_fmri,3.2.4,60.03665730225012,
1,parcelated_audio/13/13_1.ogg,,,,,,,,,0,0,0,0,0,1,1,1,0,0,0,0,,,,,,,,,0,0,0,0,0,0,0,0,,,,,,,,,,,,,,,,,,,,,,,,,,53.23907639999925,None,53.23907639999925,None,3,2.9721431349998966,53.23907639999925,None,53.23907639999925,None,56.239317949,None,8,2.8919025919994965,56.239317949,None,11.940164749999894,14.94908186900011,14.954485111000395,26.6445360860007,,,,,,,,,,,,,,,,,,,,,,,,,,,,,,,,,,,,,,,,,,,,,,,,,,,,,,,,,,,,,,,,,,092821,2,3,1,3,0,1,2,0,70,2021_Sep_28_1037,listening_fmri,3.2.4,60.03665730225012,
1,parcelated_audio/13/13_2.ogg,,,,,,,,,0,0,0,0,0,1,1,1,0,0,0,0,,,,,,,,,0,0,0,0,0,1,1,1,,,,,,,,,,,,,,,,,,,,,,,,,,,,,,,,,,,,,,,,,,,,26.64504764100002,32.745739760000106,,,,,,,,,,,,,,,,,,,,,,,,,,,,,,,,,,,,,,,,,,,,,,,,,,,,,,,,,,,,,,,,,,092821,2,3,1,3,0,1,2,0,70,2021_Sep_28_1037,listening_fmri,3.2.4,60.03665730225012,
1,parcelated_audio/13/13_3.ogg,,,,,,,,,0,0,0,0,0,1,1,1,0,0,0,0,,,,,,,,,0,0,0,0,0,2,2,2,,,,,,,,,,,,,,,,,,,,,,,,,,,,,,,,,,,,,,,,,,,,32.74608704500042,41.10581395400004,,,,,,,,,,,,,,,,,,,,,,,,,,,,,,,,,,,,,,,,,,,,,,,,,,,,,,,,,,,,,,,,,,092821,2,3,1,3,0,1,2,0,70,2021_Sep_28_1037,listening_fmri,3.2.4,60.03665730225012,
1,parcelated_audio/13/13_4.ogg,,,,,,,,,0,0,0,0,0,1,1,1,0,0,0,0,,,,,,,,,0,0,0,0,0,3,3,3,,,,,,,,,,,,,,,,,,,,,,,,,,,,,,,,,,,,,,,,,,,,41.106331066000166,51.342799025000204,,,,,,,,,,,,,,,,,,,,,,,,,,,,,,,,,,,,,,,,,,,,,,,,,,,,,,,,,,,,,,,,,,092821,2,3,1,3,0,1,2,0,70,2021_Sep_28_1037,listening_fmri,3.2.4,60.03665730225012,
1,parcelated_audio/13/13_5.ogg,,,,,,,,,0,0,0,0,0,1,1,1,0,0,0,0,,,,,,,,,0,0,0,0,0,4,4,4,,,,,,,,,,,,,,,,,,,,,,,,,,,,,,,,,,,,,,,,,,,,51.34314377300052,57.3856621620007,,,,,,,,,,,,,,,,,,,,,,,,,,,,,,,,,,,,,,,,,,,,,,,,,,,,,,,,,,,,,,,,,,092821,2,3,1,3,0,1,2,0,70,2021_Sep_28_1037,listening_fmri,3.2.4,60.03665730225012,
1,parcelated_audio/13/13_6.ogg,,,,,,,,,0,0,0,0,0,1,1,1,0,0,0,0,,,,,,,,,0,0,0,0,0,5,5,5,,,,,,,,,,,,,,,,,,,,,,,,,,,,,,,,,,,,,,,,,,,,57.38619318700057,62.09401089200037,,,,,,,,,,,,,,,,,,,,,,,,,,,,,,,,,,,,,,,,,,,,,,,,,,,,,,,,,,,,,,,,,,092821,2,3,1,3,0,1,2,0,70,2021_Sep_28_1037,listening_fmri,3.2.4,60.03665730225012,
1,parcelated_audio/13/13_7.ogg,,,,,,,,,0,0,0,0,0,1,1,1,0,0,0,0,,,,,,,,,0,0,0,0,0,6,6,6,,,,,,,,,,,,,,,,,,,,,,,,,,,,,,,,,,,,,,,,,,,,62.09430662500017,69.73762331700073,,,,,,,,,,,,,,,,,,,,,,,,,,,,,,,,,,,,,,,,,,,,,,,,,,,,,,,,,,,,,,,,,,092821,2,3,1,3,0,1,2,0,70,2021_Sep_28_1037,listening_fmri,3.2.4,60.03665730225012,
1,parcelated_audio/13/13_8.ogg,,,,,,,,,0,0,0,0,0,1,1,1,0,0,0,0,,,,,,,,,0,0,0,0,0,7,7,7,,,,,,,,,,,,,,,,,,,,,,,,,,,,,,,,,,,,,,,,,,,,69.73809474000063,75.03865994199987,,,,,,,,,,,,,,,,,,,,,,,,,,,,,,,,,,,,,,,,,,,,,,,,,,,,,,,,,,,,,,,,,,092821,2,3,1,3,0,1,2,0,70,2021_Sep_28_1037,listening_fmri,3.2.4,60.03665730225012,
1,parcelated_audio/13/13_9.ogg,,,,,,,,,0,0,0,0,0,1,1,1,0,0,0,0,,,,,,,,,0,0,0,0,0,8,8,8,,,,,,,,,,,,,,,,,,,,,,,,,,,,,,,,,,,,,,,,,,,,75.03894359700007,79.63875438600007,,,,,,,,,,,,,,,,,,,,,,,,,,,,,,,,,,,,,,,,,,,,,,,,,,,,,,,,,,,,,,,,,,092821,2,3,1,3,0,1,2,0,70,2021_Sep_28_1037,listening_fmri,3.2.4,60.03665730225012,
1,parcelated_audio/13/13_10.ogg,,,,,,,,,0,0,0,0,0,1,1,1,0,0,0,0,,,,,,,,,0,0,0,0,0,9,9,9,,,,,,,,,,,,,,,,,,,,,,,,,,,,,,,,,,,,,,,,,,,,79.6392579379999,85.43747846699989,,,,,,,,,,,,,,,,,,,,,,,,,,,,,,,,,,,,,,,,,,,,,,,,,,,,,,,,,,,,,,,,,,092821,2,3,1,3,0,1,2,0,70,2021_Sep_28_1037,listening_fmri,3.2.4,60.03665730225012,
1,parcelated_audio/13/13_11.ogg,,,,,,,,,0,0,0,0,0,1,1,1,0,0,0,0,,,,,,,,,0,0,0,0,0,10,10,10,,,,,,,,,,,,,,,,,,,,,,,,,,,,,,,,,,,,,,,,,,,,85.43774718200075,90.04744938600015,,,,,,,,,,,,,,,,,,,,,,,,,,,,,,,,,,,,,,,,,,,,,,,,,,,,,,,,,,,,,,,,,,092821,2,3,1,3,0,1,2,0,70,2021_Sep_28_1037,listening_fmri,3.2.4,60.03665730225012,
1,parcelated_audio/13/13_12.ogg,,,,,,,,,0,0,0,0,0,1,1,1,0,0,0,0,,,,,,,,,0,0,0,0,0,11,11,11,,,,,,,,,,,,,,,,,,,,,,,,,,,,,,,,,,,,,,,,,,,,90.04775291500027,98.51475898100034,,,,,,,,,,,,,,,,,,,,,,,,,,,,,,,,,,,,,,,,,,,,,,,,,,,,,,,,,,,,,,,,,,092821,2,3,1,3,0,1,2,0,70,2021_Sep_28_1037,listening_fmri,3.2.4,60.03665730225012,
1,parcelated_audio/13/13_13.ogg,,,,,,,,,0,0,0,0,0,1,1,1,0,0,0,0,,,,,,,,,0,0,0,0,0,12,12,12,,,,,,,,,,,,,,,,,,,,,,,,,,,,,,,,,,,,,,,,,,,,98.51503167100054,108.40956850800012,,,,,,,,,,,,,,,,,,,,,,,,,,,,,,,,,,,,,,,,,,,,,,,,,,,,,,,,,,,,,,,,,,092821,2,3,1,3,0,1,2,0,70,2021_Sep_28_1037,listening_fmri,3.2.4,60.03665730225012,
1,parcelated_audio/13/13_14.ogg,,,,,,,,,0,0,0,0,0,1,1,1,0,0,0,0,,,,,,,,,0,0,0,0,0,13,13,13,,,,,,,,,,,,,,,,,,,,,,,,,,,,,,,,,,,,,,,,,,,,108.40984006100007,116.58810065299986,,,,,,,,,,,,,,,,,,,,,,,,,,,,,,,,,,,,,,,,,,,,,,,,,,,,,,,,,,,,,,,,,,092821,2,3,1,3,0,1,2,0,70,2021_Sep_28_1037,listening_fmri,3.2.4,60.03665730225012,
1,parcelated_audio/13/13_15.ogg,,,,,,,,,0,0,0,0,0,1,1,1,0,0,0,0,,,,,,,,,0,0,0,0,0,14,14,14,,,,,,,,,,,,,,,,,,,,,,,,,,,,,,,,,,,,,,,,,,,,116.58850182100014,125.26305872600005,,,,,,,,,,,,,,,,,,,,,,,,,,,,,,,,,,,,,,,,,,,,,,,,,,,,,,,,,,,,,,,,,,092821,2,3,1,3,0,1,2,0,70,2021_Sep_28_1037,listening_fmri,3.2.4,60.03665730225012,
1,parcelated_audio/13/13_16.ogg,,,,,,,,,0,0,0,0,0,1,1,1,0,0,0,0,,,,,,,,,0,0,0,0,0,15,15,15,,,,,,,,,,,,,,,,,,,,,,,,,,,,,,,,,,,,,,,,,,,,125.26357911000014,127.57219712200003,,,,,,,,,,,,,,,,,,,,,,,,,,,,,,,,,,,,,,,,,,,,,,,,,,,,,,,,,,,,,,,,,,092821,2,3,1,3,0,1,2,0,70,2021_Sep_28_1037,listening_fmri,3.2.4,60.03665730225012,
1,parcelated_audio/13/13_17.ogg,,,,,,,,,0,0,0,0,0,1,1,1,0,0,0,0,,,,,,,,,0,0,0,0,0,16,16,16,,,,,,,,,,,,,,,,,,,,,,,,,,,,,,,,,,,,,,,,,,,,127.5727563800001,135.15338768200036,,,,,,,,,,,,,,,,,,,,,,,,,,,,,,,,,,,,,,,,,,,,,,,,,,,,,,,,,,,,,,,,,,092821,2,3,1,3,0,1,2,0,70,2021_Sep_28_1037,listening_fmri,3.2.4,60.03665730225012,
1,parcelated_audio/13/13_18.ogg,,,,,,,,,0,0,0,0,0,1,1,1,0,0,0,0,,,,,,,,,0,0,0,0,0,17,17,17,,,,,,,,,,,,,,,,,,,,,,,,,,,,,,,,,,,,,,,,,,,,135.15435383800013,145.35191467000004,,,,,,,,,,,,,,,,,,,,,,,,,,,,,,,,,,,,,,,,,,,,,,,,,,,,,,,,,,,,,,,,,,092821,2,3,1,3,0,1,2,0,70,2021_Sep_28_1037,listening_fmri,3.2.4,60.03665730225012,
1,parcelated_audio/13/13_19.ogg,,,,,,,,,0,0,0,0,0,1,1,1,0,0,0,0,,,,,,,,,0,0,0,0,0,18,18,18,,,,,,,,,,,,,,,,,,,,,,,,,,,,,,,,,,,,,,,,,,,,145.35226329299985,153.31348789000003,,,,,,,,,,,,,,,,,,,,,,,,,,,,,,,,,,,,,,,,,,,,,,,,,,,,,,,,,,,,,,,,,,092821,2,3,1,3,0,1,2,0,70,2021_Sep_28_1037,listening_fmri,3.2.4,60.03665730225012,
1,parcelated_audio/13/13_20.ogg,,,,,,,,,0,0,0,0,0,1,1,1,0,0,0,0,,,,,,,,,0,0,0,0,0,19,19,19,,,,,,,,,,,,,,,,,,,,,,,,,,,,,,,,,,,,,,,,,,,,153.31405862800057,158.49239733000013,,,,,,,,,,,,,,,,,,,,,,,,,,,,,,,,,,,,,,,,,,,,,,,,,,,,,,,,,,,,,,,,,,092821,2,3,1,3,0,1,2,0,70,2021_Sep_28_1037,listening_fmri,3.2.4,60.03665730225012,
1,parcelated_audio/13/13_21.ogg,,,,,,,,,0,0,0,0,0,1,1,1,0,0,0,0,,,,,,,,,0,0,0,0,0,20,20,20,,,,,,,,,,,,,,,,,,,,,,,,,,,,,,,,,,,,,,,,,,,,158.49283381900023,161.8093102640005,,,,,,,,,,,,,,,,,,,,,,,,,,,,,,,,,,,,,,,,,,,,,,,,,,,,,,,,,,,,,,,,,,092821,2,3,1,3,0,1,2,0,70,2021_Sep_28_1037,listening_fmri,3.2.4,60.03665730225012,
1,parcelated_audio/13/13_22.ogg,,,,,,,,,0,0,0,0,0,1,1,1,0,0,0,0,,,,,,,,,0,0,0,0,0,21,21,21,,,,,,,,,,,,,,,,,,,,,,,,,,,,,,,,,,,,,,,,,,,,161.80959296000037,165.22805547700045,,,,,,,,,,,,,,,,,,,,,,,,,,,,,,,,,,,,,,,,,,,,,,,,,,,,,,,,,,,,,,,,,,092821,2,3,1,3,0,1,2,0,70,2021_Sep_28_1037,listening_fmri,3.2.4,60.03665730225012,
1,parcelated_audio/13/13_23.ogg,,,,,,,,,0,0,0,0,0,1,1,1,0,0,0,0,,,,,,,,,0,0,0,0,0,22,22,22,,,,,,,,,,,,,,,,,,,,,,,,,,,,,,,,,,,,,,,,,,,,165.22850179299985,170.48753568200027,,,,,,,,,,,,,,,,,,,,,,,,,,,,,,,,,,,,,,,,,,,,,,,,,,,,,,,,,,,,,,,,,,092821,2,3,1,3,0,1,2,0,70,2021_Sep_28_1037,listening_fmri,3.2.4,60.03665730225012,
1,parcelated_audio/13/13_24.ogg,,,,,,,,,0,0,0,0,0,1,1,1,0,0,0,0,,,,,,,,,0,0,0,0,0,23,23,23,,,,,,,,,,,,,,,,,,,,,,,,,,,,,,,,,,,,,,,,,,,,170.4879579920007,180.20943242400062,,,,,,,,,,,,,,,,,,,,,,,,,,,,,,,,,,,,,,,,,,,,,,,,,,,,,,,,,,,,,,,,,,092821,2,3,1,3,0,1,2,0,70,2021_Sep_28_1037,listening_fmri,3.2.4,60.03665730225012,
1,parcelated_audio/13/13_25.ogg,,,,,,,,,0,0,0,0,0,1,1,1,0,0,0,0,,,,,,,,,0,0,0,0,0,24,24,24,,,,,,,,,,,,,,,,,,,,,,,,,,,,,,,,,,,,,,,,,,,,180.20986245200038,187.486798678,,,,,,,,,,,,,,,,,,,,,,,,,,,,,,,,,,,,,,,,,,,,,,,,,,,,,,,,,,,,,,,,,,092821,2,3,1,3,0,1,2,0,70,2021_Sep_28_1037,listening_fmri,3.2.4,60.03665730225012,
1,parcelated_audio/13/13_26.ogg,,,,,,,,,0,0,0,0,0,1,1,1,0,0,0,0,,,,,,,,,0,0,0,0,0,25,25,25,,,,,,,,,,,,,,,,,,,,,,,,,,,,,,,,,,,,,,,,,,,,187.4870657070005,193.6710268550005,,,,,,,,,,,,,,,,,,,,,,,,,,,,,,,,,,,,,,,,,,,,,,,,,,,,,,,,,,,,,,,,,,092821,2,3,1,3,0,1,2,0,70,2021_Sep_28_1037,listening_fmri,3.2.4,60.03665730225012,
1,parcelated_audio/13/13_27.ogg,,,,,,,,,0,0,0,0,0,1,1,1,0,0,0,0,,,,,,,,,0,0,0,0,0,26,26,26,,,,,,,,,,,,,,,,,,,,,,,,,,,,,,,,,,,,,,,,,,,,193.6712727840004,198.90241164300005,,,,,,,,,,,,,,,,,,,,,,,,,,,,,,,,,,,,,,,,,,,,,,,,,,,,,,,,,,,,,,,,,,092821,2,3,1,3,0,1,2,0,70,2021_Sep_28_1037,listening_fmri,3.2.4,60.03665730225012,
1,parcelated_audio/13/13_28.ogg,,,,,,,,,0,0,0,0,0,1,1,1,0,0,0,0,,,,,,,,,0,0,0,0,0,27,27,27,,,,,,,,,,,,,,,,,,,,,,,,,,,,,,,,,,,,,,,,,,,,198.90268477500013,204.3345868160004,,,,,,,,,,,,,,,,,,,,,,,,,,,,,,,,,,,,,,,,,,,,,,,,,,,,,,,,,,,,,,,,,,092821,2,3,1,3,0,1,2,0,70,2021_Sep_28_1037,listening_fmri,3.2.4,60.03665730225012,
1,parcelated_audio/13/13_29.ogg,,,,,,,,,0,0,0,0,0,1,1,1,0,0,0,0,,,,,,,,,0,0,0,0,0,28,28,28,,,,,,,,,,,,,,,,,,,,,,,,,,,,,,,,,,,,,,,,,,,,204.3350327349999,207.61485039499985,,,,,,,,,,,,,,,,,,,,,,,,,,,,,,,,,,,,,,,,,,,,,,,,,,,,,,,,,,,,,,,,,,092821,2,3,1,3,0,1,2,0,70,2021_Sep_28_1037,listening_fmri,3.2.4,60.03665730225012,
1,parcelated_audio/13/13_30.ogg,,,,,,,,,0,0,0,0,0,1,1,1,0,0,0,0,,,,,,,,,0,0,0,0,0,29,29,29,,,,,,,,,,,,,,,,,,,,,,,,,,,,,,,,,,,,,,,,,,,,207.61528261900003,211.07053293199988,,,,,,,,,,,,,,,,,,,,,,,,,,,,,,,,,,,,,,,,,,,,,,,,,,,,,,,,,,,,,,,,,,092821,2,3,1,3,0,1,2,0,70,2021_Sep_28_1037,listening_fmri,3.2.4,60.03665730225012,
1,parcelated_audio/13/13_31.ogg,,,,,,,,,0,0,0,0,0,1,1,1,0,0,0,0,,,,,,,,,0,0,0,0,0,30,30,30,,,,,,,,,,,,,,,,,,,,,,,,,,,,,,,,,,,,,,,,,,,,211.07118679999985,217.0141447470005,,,,,,,,,,,,,,,,,,,,,,,,,,,,,,,,,,,,,,,,,,,,,,,,,,,,,,,,,,,,,,,,,,092821,2,3,1,3,0,1,2,0,70,2021_Sep_28_1037,listening_fmri,3.2.4,60.03665730225012,
1,,,,,,,,,,0,0,0,0,0,1,1,1,0,0,0,0,,,,,,,,,0,0,0,0,,,,,,,,,,,,,,,,,,,,,,,,,,,,,,,,,,,,,,,,,,,,,,,,,,,,,,,,,,,,,,,,,,,,,,,,,,,,,,,,,,,,,,,,,,,,,,,,,,,,,,,,,,,,,,,,,,,092821,2,3,1,3,0,1,2,0,70,2021_Sep_28_1037,listening_fmri,3.2.4,60.03665730225012,
1,,,,,,,,,,0,0,0,0,0,1,1,1,0,0,0,0,,,,,,,,,,,,,,,,,,,,,,,,,,,,,,,,,,,,,,217.01451313500002,223.01601634600047,264.2256866779999,None,,,,,,,,,,,,,,,,,,,,,270.23949013199945,None,270.23949013199945,None,,,,,,,,,,,,,,,,,,,,,,,,,,,,,,,,,,,,,,,,,,,,,,,,,,,,,,,,,,,,,,092821,2,3,1,3,0,1,2,0,70,2021_Sep_28_1037,listening_fmri,3.2.4,60.03665730225012,
1,,,,,,,,,,0,0,0,0,0,1,1,1,,,,,,,,,,,,,,,,,,,,,,,,,,,,,,,,,,,,,,,,,,,,,,,,,,,,,,,,,,,,,,,,,,,,,,,,,,,,,,,,,,,,,,,,,,,,,,,,,,,,,,,,,,,,,,,,,,,,,,,,,,,,,,,,,,,092821,2,3,1,3,0,1,2,0,70,2021_Sep_28_1037,listening_fmri,3.2.4,60.03665730225012,
2,,,,,,,,,,0,0,0,0,0,2,2,2,0,0,0,0,0,0,0,0,,,,,,,,,,,,,,,,,0,0,0,0,,,,,,,,,,,,,,,,,,271.2396126039994,None,271.2396126039994,None,2,2.1585984889998144,271.2396126039994,None,271.2396126039994,None,,,,,,,,,,,,,,,273.42289473299934,None,2,2.8103345070003343,273.42289473299934,None,273.42289473299934,None,276.27264994899997,None,276.27264994899997,None,276.27264994899997,None,2,1.8045763270001771,276.27264994899997,None,278.1060060279997,None,2,2.610189500999695,278.1060060279997,None,278.1060060279997,None,280.82278246399983,None,280.82278246399983,None,280.82278246399983,None,280.82278246399983,None,280.82278246399983,None,280.82278246399983,None,280.82278246399983,None,None,280.82278246399983,None,,,,,,,,,,,,,,,,,,,092821,2,3,1,3,0,1,2,0,70,2021_Sep_28_1037,listening_fmri,3.2.4,60.03665730225012,
2,,,,,,,,,,0,0,0,0,0,2,2,2,0,0,0,0,0,0,0,0,,,,,,,,,,,,,,,,,,,,,,,,,,,,,,,,,,,,,,,,,,,,,,,,,,,,,,,,,,,,,,,,,,,,,,,,,,,,,,,,,,,,,,,,,,,,,,,,,,,,,,,,,308.00608766499954,None,2,6.372101107999697,308.00608766499954,None,308.00608766499954,None,314.42281074199946,None,314.42281074199946,None,314.42281074199946,None,2,0.6512810139993235,314.42281074199946,None,092821,2,3,1,3,0,1,2,0,70,2021_Sep_28_1037,listening_fmri,3.2.4,60.03665730225012,
2,parcelated_audio/22/22_1.ogg,,,,,,,,,0,0,0,0,0,2,2,2,0,0,0,0,,,,,,,,,0,0,0,0,0,0,0,0,,,,,,,,,,,,,,,,,,,,,,,,,,,,,,,,,,,,315.08987190399966,None,2,2.6283448980002504,315.08987190399966,None,270.550484114,273.5658784420002,273.57184267200046,286.6143705479999,,,,,,,,,,,,,,,,,,,,,,,,,,,,,,,,,,,,,,,,,,,,,,,,,,,,,,,,,,,,,,,,,,092821,2,3,1,3,0,1,2,0,70,2021_Sep_28_1037,listening_fmri,3.2.4,60.03665730225012,
2,parcelated_audio/22/22_2.ogg,,,,,,,,,0,0,0,0,0,2,2,2,0,0,0,0,,,,,,,,,0,0,0,0,0,1,1,1,,,,,,,,,,,,,,,,,,,,,,,,,,,,,,,,,,,,,,,,,,,,286.6148211290001,293.00030902900016,,,,,,,,,,,,,,,,,,,,,,,,,,,,,,,,,,,,,,,,,,,,,,,,,,,,,,,,,,,,,,,,,,092821,2,3,1,3,0,1,2,0,70,2021_Sep_28_1037,listening_fmri,3.2.4,60.03665730225012,
2,parcelated_audio/22/22_3.ogg,,,,,,,,,0,0,0,0,0,2,2,2,0,0,0,0,,,,,,,,,0,0,0,0,0,2,2,2,,,,,,,,,,,,,,,,,,,,,,,,,,,,,,,,,,,,,,,,,,,,293.0006658410002,305.9187809920004,,,,,,,,,,,,,,,,,,,,,,,,,,,,,,,,,,,,,,,,,,,,,,,,,,,,,,,,,,,,,,,,,,092821,2,3,1,3,0,1,2,0,70,2021_Sep_28_1037,listening_fmri,3.2.4,60.03665730225012,
2,parcelated_audio/22/22_4.ogg,,,,,,,,,0,0,0,0,0,2,2,2,0,0,0,0,,,,,,,,,0,0,0,0,0,3,3,3,,,,,,,,,,,,,,,,,,,,,,,,,,,,,,,,,,,,,,,,,,,,305.9190488680006,318.32938653400015,,,,,,,,,,,,,,,,,,,,,,,,,,,,,,,,,,,,,,,,,,,,,,,,,,,,,,,,,,,,,,,,,,092821,2,3,1,3,0,1,2,0,70,2021_Sep_28_1037,listening_fmri,3.2.4,60.03665730225012,
2,parcelated_audio/22/22_5.ogg,,,,,,,,,0,0,0,0,0,2,2,2,0,0,0,0,,,,,,,,,0,0,0,0,0,4,4,4,,,,,,,,,,,,,,,,,,,,,,,,,,,,,,,,,,,,,,,,,,,,318.32965450400025,324.25851272100044,,,,,,,,,,,,,,,,,,,,,,,,,,,,,,,,,,,,,,,,,,,,,,,,,,,,,,,,,,,,,,,,,,092821,2,3,1,3,0,1,2,0,70,2021_Sep_28_1037,listening_fmri,3.2.4,60.03665730225012,
2,parcelated_audio/22/22_6.ogg,,,,,,,,,0,0,0,0,0,2,2,2,0,0,0,0,,,,,,,,,0,0,0,0,0,5,5,5,,,,,,,,,,,,,,,,,,,,,,,,,,,,,,,,,,,,,,,,,,,,324.25880047400005,333.4546322010001,,,,,,,,,,,,,,,,,,,,,,,,,,,,,,,,,,,,,,,,,,,,,,,,,,,,,,,,,,,,,,,,,,092821,2,3,1,3,0,1,2,0,70,2021_Sep_28_1037,listening_fmri,3.2.4,60.03665730225012,
2,parcelated_audio/22/22_7.ogg,,,,,,,,,0,0,0,0,0,2,2,2,0,0,0,0,,,,,,,,,0,0,0,0,0,6,6,6,,,,,,,,,,,,,,,,,,,,,,,,,,,,,,,,,,,,,,,,,,,,333.45490718400015,338.43869473799987,,,,,,,,,,,,,,,,,,,,,,,,,,,,,,,,,,,,,,,,,,,,,,,,,,,,,,,,,,,,,,,,,,092821,2,3,1,3,0,1,2,0,70,2021_Sep_28_1037,listening_fmri,3.2.4,60.03665730225012,
2,parcelated_audio/22/22_8.ogg,,,,,,,,,0,0,0,0,0,2,2,2,0,0,0,0,,,,,,,,,0,0,0,0,0,7,7,7,,,,,,,,,,,,,,,,,,,,,,,,,,,,,,,,,,,,,,,,,,,,338.438966144,341.9671874330006,,,,,,,,,,,,,,,,,,,,,,,,,,,,,,,,,,,,,,,,,,,,,,,,,,,,,,,,,,,,,,,,,,092821,2,3,1,3,0,1,2,0,70,2021_Sep_28_1037,listening_fmri,3.2.4,60.03665730225012,
2,parcelated_audio/22/22_9.ogg,,,,,,,,,0,0,0,0,0,2,2,2,0,0,0,0,,,,,,,,,0,0,0,0,0,8,8,8,,,,,,,,,,,,,,,,,,,,,,,,,,,,,,,,,,,,,,,,,,,,341.9681065320001,345.85451222100073,,,,,,,,,,,,,,,,,,,,,,,,,,,,,,,,,,,,,,,,,,,,,,,,,,,,,,,,,,,,,,,,,,092821,2,3,1,3,0,1,2,0,70,2021_Sep_28_1037,listening_fmri,3.2.4,60.03665730225012,
2,parcelated_audio/22/22_10.ogg,,,,,,,,,0,0,0,0,0,2,2,2,0,0,0,0,,,,,,,,,0,0,0,0,0,9,9,9,,,,,,,,,,,,,,,,,,,,,,,,,,,,,,,,,,,,,,,,,,,,345.85480454000026,350.6204320269999,,,,,,,,,,,,,,,,,,,,,,,,,,,,,,,,,,,,,,,,,,,,,,,,,,,,,,,,,,,,,,,,,,092821,2,3,1,3,0,1,2,0,70,2021_Sep_28_1037,listening_fmri,3.2.4,60.03665730225012,
2,parcelated_audio/22/22_11.ogg,,,,,,,,,0,0,0,0,0,2,2,2,0,0,0,0,,,,,,,,,0,0,0,0,0,10,10,10,,,,,,,,,,,,,,,,,,,,,,,,,,,,,,,,,,,,,,,,,,,,350.6207029220004,357.9003041570004,,,,,,,,,,,,,,,,,,,,,,,,,,,,,,,,,,,,,,,,,,,,,,,,,,,,,,,,,,,,,,,,,,092821,2,3,1,3,0,1,2,0,70,2021_Sep_28_1037,listening_fmri,3.2.4,60.03665730225012,
2,parcelated_audio/22/22_12.ogg,,,,,,,,,0,0,0,0,0,2,2,2,0,0,0,0,,,,,,,,,0,0,0,0,0,11,11,11,,,,,,,,,,,,,,,,,,,,,,,,,,,,,,,,,,,,,,,,,,,,357.90057585500017,365.608733905,,,,,,,,,,,,,,,,,,,,,,,,,,,,,,,,,,,,,,,,,,,,,,,,,,,,,,,,,,,,,,,,,,092821,2,3,1,3,0,1,2,0,70,2021_Sep_28_1037,listening_fmri,3.2.4,60.03665730225012,
2,parcelated_audio/22/22_13.ogg,,,,,,,,,0,0,0,0,0,2,2,2,0,0,0,0,,,,,,,,,0,0,0,0,0,12,12,12,,,,,,,,,,,,,,,,,,,,,,,,,,,,,,,,,,,,,,,,,,,,365.6090877679999,372.868470503,,,,,,,,,,,,,,,,,,,,,,,,,,,,,,,,,,,,,,,,,,,,,,,,,,,,,,,,,,,,,,,,,,092821,2,3,1,3,0,1,2,0,70,2021_Sep_28_1037,listening_fmri,3.2.4,60.03665730225012,
2,parcelated_audio/22/22_14.ogg,,,,,,,,,0,0,0,0,0,2,2,2,0,0,0,0,,,,,,,,,0,0,0,0,0,13,13,13,,,,,,,,,,,,,,,,,,,,,,,,,,,,,,,,,,,,,,,,,,,,372.86903768200045,378.48436242800017,,,,,,,,,,,,,,,,,,,,,,,,,,,,,,,,,,,,,,,,,,,,,,,,,,,,,,,,,,,,,,,,,,092821,2,3,1,3,0,1,2,0,70,2021_Sep_28_1037,listening_fmri,3.2.4,60.03665730225012,
2,parcelated_audio/22/22_15.ogg,,,,,,,,,0,0,0,0,0,2,2,2,0,0,0,0,,,,,,,,,0,0,0,0,0,14,14,14,,,,,,,,,,,,,,,,,,,,,,,,,,,,,,,,,,,,,,,,,,,,378.48486091199993,386.26807304400063,,,,,,,,,,,,,,,,,,,,,,,,,,,,,,,,,,,,,,,,,,,,,,,,,,,,,,,,,,,,,,,,,,092821,2,3,1,3,0,1,2,0,70,2021_Sep_28_1037,listening_fmri,3.2.4,60.03665730225012,
