count,audio,trials_14.thisRepN,trials_14.thisTrialN,trials_14.thisN,trials_14.thisIndex,trials_3.thisRepN,trials_3.thisTrialN,trials_3.thisN,trials_3.thisIndex,trials_4.thisRepN,trials_4.thisTrialN,trials_4.thisN,trials_4.thisIndex,trials_6.thisRepN,trials_6.thisTrialN,trials_6.thisN,trials_6.thisIndex,trials_9.thisRepN,trials_9.thisTrialN,trials_9.thisN,trials_9.thisIndex,trials_10.thisRepN,trials_10.thisTrialN,trials_10.thisN,trials_10.thisIndex,trials_12.thisRepN,trials_12.thisTrialN,trials_12.thisN,trials_12.thisIndex,trials_25.thisRepN,trials_25.thisTrialN,trials_25.thisN,trials_25.thisIndex,trials_15.thisRepN,trials_15.thisTrialN,trials_15.thisN,trials_15.thisIndex,trials_26.thisRepN,trials_26.thisTrialN,trials_26.thisN,trials_26.thisIndex,story_list_block2,action_list_block2,textTrigger.started,textTrigger.stopped,getTrigger.keys,getTrigger.rt,getTrigger.started,getTrigger.stopped,triggerTime,text_76.started,text_76.stopped,text_77.started,text_77.stopped,startWait,endWait,image_23.started,image_23.stopped,text_55.started,text_55.stopped,text_56.started,text_56.stopped,key_resp_2.keys,key_resp_2.rt,key_resp_2.started,key_resp_2.stopped,text_82.started,text_82.stopped,text_64.started,text_64.stopped,key_resp_20.keys,key_resp_20.rt,key_resp_20.started,key_resp_20.stopped,storyImage_StartTime,storyImage_EndTime,clip_StartTime,clip_EndTime,text_67.started,text_67.stopped,text_68.started,text_68.stopped,participant,sA,sB,lA,lB,block_struct,play_stories,block,behavioral,random_seed,date,expName,psychopyVersion,frameRate,
0,parcelated_audio/44/44_1.ogg,,,,,,,,,0,0,0,0,0,0,0,0,0,0,0,0,,,,,,,,,0,0,0,0,0,0,0,0,,,,,[44 13 22 24 11 33 31 42],[4 3 3 1 1 2 4 2],12.460082747999877,None,equal,82.6575950409997,12.460082747999877,None,82.68745656400006,12.460082747999877,None,12.460082747999877,None,0.00038231500002439134,6.006814878000114,95.14134674400066,None,101.150335929,None,101.150335929,None,5,0.9672447869997995,101.150335929,None,101.150335929,None,102.13385864600059,None,5,0.9837778520004576,102.13385864600059,None,7.998131607000687,10.99862540200047,11.003637020000497,18.934127419000106,,,,,112020,0,1,1,2,0,1,2,0,8,2020_Nov_20_1132,listening_fmri,3.2.4,59.89440257473096,
0,parcelated_audio/44/44_2.ogg,,,,,,,,,0,0,0,0,0,0,0,0,0,0,0,0,,,,,,,,,0,0,0,0,0,1,1,1,,,,,,,,,,,,,,,,,,,,,,,,,,,,,,,,,,,,,,,,18.934395342000244,28.06205131600018,,,,,112020,0,1,1,2,0,1,2,0,8,2020_Nov_20_1132,listening_fmri,3.2.4,59.89440257473096,
0,parcelated_audio/44/44_3.ogg,,,,,,,,,0,0,0,0,0,0,0,0,0,0,0,0,,,,,,,,,0,0,0,0,0,2,2,2,,,,,,,,,,,,,,,,,,,,,,,,,,,,,,,,,,,,,,,,28.06317791299989,33.50174544499987,,,,,112020,0,1,1,2,0,1,2,0,8,2020_Nov_20_1132,listening_fmri,3.2.4,59.89440257473096,
0,parcelated_audio/44/44_4.ogg,,,,,,,,,0,0,0,0,0,0,0,0,0,0,0,0,,,,,,,,,0,0,0,0,0,3,3,3,,,,,,,,,,,,,,,,,,,,,,,,,,,,,,,,,,,,,,,,33.50201424700026,38.610468427999876,,,,,112020,0,1,1,2,0,1,2,0,8,2020_Nov_20_1132,listening_fmri,3.2.4,59.89440257473096,
0,parcelated_audio/44/44_5.ogg,,,,,,,,,0,0,0,0,0,0,0,0,0,0,0,0,,,,,,,,,0,0,0,0,0,4,4,4,,,,,,,,,,,,,,,,,,,,,,,,,,,,,,,,,,,,,,,,38.61083744200005,44.84548207100033,,,,,112020,0,1,1,2,0,1,2,0,8,2020_Nov_20_1132,listening_fmri,3.2.4,59.89440257473096,
0,parcelated_audio/44/44_6.ogg,,,,,,,,,0,0,0,0,0,0,0,0,0,0,0,0,,,,,,,,,0,0,0,0,0,5,5,5,,,,,,,,,,,,,,,,,,,,,,,,,,,,,,,,,,,,,,,,44.84575134900024,51.78624997600036,,,,,112020,0,1,1,2,0,1,2,0,8,2020_Nov_20_1132,listening_fmri,3.2.4,59.89440257473096,
0,parcelated_audio/44/44_7.ogg,,,,,,,,,0,0,0,0,0,0,0,0,0,0,0,0,,,,,,,,,0,0,0,0,0,6,6,6,,,,,,,,,,,,,,,,,,,,,,,,,,,,,,,,,,,,,,,,51.78662209400045,57.79723361500055,,,,,112020,0,1,1,2,0,1,2,0,8,2020_Nov_20_1132,listening_fmri,3.2.4,59.89440257473096,
0,parcelated_audio/44/44_8.ogg,,,,,,,,,0,0,0,0,0,0,0,0,0,0,0,0,,,,,,,,,0,0,0,0,0,7,7,7,,,,,,,,,,,,,,,,,,,,,,,,,,,,,,,,,,,,,,,,57.797754393000105,62.05359568699987,,,,,112020,0,1,1,2,0,1,2,0,8,2020_Nov_20_1132,listening_fmri,3.2.4,59.89440257473096,
0,parcelated_audio/44/44_9.ogg,,,,,,,,,0,0,0,0,0,0,0,0,0,0,0,0,,,,,,,,,0,0,0,0,0,8,8,8,,,,,,,,,,,,,,,,,,,,,,,,,,,,,,,,,,,,,,,,62.05406762600069,65.75460611400013,,,,,112020,0,1,1,2,0,1,2,0,8,2020_Nov_20_1132,listening_fmri,3.2.4,59.89440257473096,
0,parcelated_audio/44/44_10.ogg,,,,,,,,,0,0,0,0,0,0,0,0,0,0,0,0,,,,,,,,,0,0,0,0,0,9,9,9,,,,,,,,,,,,,,,,,,,,,,,,,,,,,,,,,,,,,,,,65.75487211500058,75.86903355200047,,,,,112020,0,1,1,2,0,1,2,0,8,2020_Nov_20_1132,listening_fmri,3.2.4,59.89440257473096,
0,parcelated_audio/44/44_11.ogg,,,,,,,,,0,0,0,0,0,0,0,0,0,0,0,0,,,,,,,,,0,0,0,0,0,10,10,10,,,,,,,,,,,,,,,,,,,,,,,,,,,,,,,,,,,,,,,,75.8693066550004,79.40482104300008,,,,,112020,0,1,1,2,0,1,2,0,8,2020_Nov_20_1132,listening_fmri,3.2.4,59.89440257473096,
0,parcelated_audio/44/44_12.ogg,,,,,,,,,0,0,0,0,0,0,0,0,0,0,0,0,,,,,,,,,0,0,0,0,0,11,11,11,,,,,,,,,,,,,,,,,,,,,,,,,,,,,,,,,,,,,,,,79.40508806900016,89.99650134900003,,,,,112020,0,1,1,2,0,1,2,0,8,2020_Nov_20_1132,listening_fmri,3.2.4,59.89440257473096,
0,parcelated_audio/44/44_13.ogg,,,,,,,,,0,0,0,0,0,0,0,0,0,0,0,0,,,,,,,,,0,0,0,0,0,12,12,12,,,,,,,,,,,,,,,,,,,,,,,,,,,,,,,,,,,,,,,,89.99683438100055,97.15903029200035,,,,,112020,0,1,1,2,0,1,2,0,8,2020_Nov_20_1132,listening_fmri,3.2.4,59.89440257473096,
0,parcelated_audio/44/44_14.ogg,,,,,,,,,0,0,0,0,0,0,0,0,0,0,0,0,,,,,,,,,0,0,0,0,0,13,13,13,,,,,,,,,,,,,,,,,,,,,,,,,,,,,,,,,,,,,,,,97.15976990699983,103.48640619700018,,,,,112020,0,1,1,2,0,1,2,0,8,2020_Nov_20_1132,listening_fmri,3.2.4,59.89440257473096,
0,parcelated_audio/44/44_15.ogg,,,,,,,,,0,0,0,0,0,0,0,0,0,0,0,0,,,,,,,,,0,0,0,0,0,14,14,14,,,,,,,,,,,,,,,,,,,,,,,,,,,,,,,,,,,,,,,,103.48695393800062,107.57216123099988,,,,,112020,0,1,1,2,0,1,2,0,8,2020_Nov_20_1132,listening_fmri,3.2.4,59.89440257473096,
0,parcelated_audio/44/44_16.ogg,,,,,,,,,0,0,0,0,0,0,0,0,0,0,0,0,,,,,,,,,0,0,0,0,0,15,15,15,,,,,,,,,,,,,,,,,,,,,,,,,,,,,,,,,,,,,,,,107.5724725300006,111.59307481900032,,,,,112020,0,1,1,2,0,1,2,0,8,2020_Nov_20_1132,listening_fmri,3.2.4,59.89440257473096,
0,parcelated_audio/44/44_17.ogg,,,,,,,,,0,0,0,0,0,0,0,0,0,0,0,0,,,,,,,,,0,0,0,0,0,16,16,16,,,,,,,,,,,,,,,,,,,,,,,,,,,,,,,,,,,,,,,,111.59334029300044,120.05969547899986,,,,,112020,0,1,1,2,0,1,2,0,8,2020_Nov_20_1132,listening_fmri,3.2.4,59.89440257473096,
0,parcelated_audio/44/44_18.ogg,,,,,,,,,0,0,0,0,0,0,0,0,0,0,0,0,,,,,,,,,0,0,0,0,0,17,17,17,,,,,,,,,,,,,,,,,,,,,,,,,,,,,,,,,,,,,,,,120.05995728500056,129.88901447700027,,,,,112020,0,1,1,2,0,1,2,0,8,2020_Nov_20_1132,listening_fmri,3.2.4,59.89440257473096,
0,parcelated_audio/44/44_19.ogg,,,,,,,,,0,0,0,0,0,0,0,0,0,0,0,0,,,,,,,,,0,0,0,0,0,18,18,18,,,,,,,,,,,,,,,,,,,,,,,,,,,,,,,,,,,,,,,,129.88927923200026,140.85442558700015,,,,,112020,0,1,1,2,0,1,2,0,8,2020_Nov_20_1132,listening_fmri,3.2.4,59.89440257473096,
0,parcelated_audio/44/44_20.ogg,,,,,,,,,0,0,0,0,0,0,0,0,0,0,0,0,,,,,,,,,0,0,0,0,0,19,19,19,,,,,,,,,,,,,,,,,,,,,,,,,,,,,,,,,,,,,,,,140.85469290899982,149.05977414300014,,,,,112020,0,1,1,2,0,1,2,0,8,2020_Nov_20_1132,listening_fmri,3.2.4,59.89440257473096,
0,parcelated_audio/44/44_21.ogg,,,,,,,,,0,0,0,0,0,0,0,0,0,0,0,0,,,,,,,,,0,0,0,0,0,20,20,20,,,,,,,,,,,,,,,,,,,,,,,,,,,,,,,,,,,,,,,,149.0601504770002,157.98731726999995,,,,,112020,0,1,1,2,0,1,2,0,8,2020_Nov_20_1132,listening_fmri,3.2.4,59.89440257473096,
0,parcelated_audio/44/44_22.ogg,,,,,,,,,0,0,0,0,0,0,0,0,0,0,0,0,,,,,,,,,0,0,0,0,0,21,21,21,,,,,,,,,,,,,,,,,,,,,,,,,,,,,,,,,,,,,,,,157.98972923300062,162.91796510299991,,,,,112020,0,1,1,2,0,1,2,0,8,2020_Nov_20_1132,listening_fmri,3.2.4,59.89440257473096,
0,parcelated_audio/44/44_23.ogg,,,,,,,,,0,0,0,0,0,0,0,0,0,0,0,0,,,,,,,,,0,0,0,0,0,22,22,22,,,,,,,,,,,,,,,,,,,,,,,,,,,,,,,,,,,,,,,,162.9186810430001,169.5544625980001,,,,,112020,0,1,1,2,0,1,2,0,8,2020_Nov_20_1132,listening_fmri,3.2.4,59.89440257473096,
0,parcelated_audio/44/44_24.ogg,,,,,,,,,0,0,0,0,0,0,0,0,0,0,0,0,,,,,,,,,0,0,0,0,0,23,23,23,,,,,,,,,,,,,,,,,,,,,,,,,,,,,,,,,,,,,,,,169.55473022200022,178.28546877600002,,,,,112020,0,1,1,2,0,1,2,0,8,2020_Nov_20_1132,listening_fmri,3.2.4,59.89440257473096,
0,parcelated_audio/44/44_25.ogg,,,,,,,,,0,0,0,0,0,0,0,0,0,0,0,0,,,,,,,,,0,0,0,0,0,24,24,24,,,,,,,,,,,,,,,,,,,,,,,,,,,,,,,,,,,,,,,,178.28577577000033,184.58610605400008,,,,,112020,0,1,1,2,0,1,2,0,8,2020_Nov_20_1132,listening_fmri,3.2.4,59.89440257473096,
0,parcelated_audio/44/44_26.ogg,,,,,,,,,0,0,0,0,0,0,0,0,0,0,0,0,,,,,,,,,0,0,0,0,0,25,25,25,,,,,,,,,,,,,,,,,,,,,,,,,,,,,,,,,,,,,,,,184.58646019700063,189.448165109,,,,,112020,0,1,1,2,0,1,2,0,8,2020_Nov_20_1132,listening_fmri,3.2.4,59.89440257473096,
0,parcelated_audio/44/44_27.ogg,,,,,,,,,0,0,0,0,0,0,0,0,0,0,0,0,,,,,,,,,0,0,0,0,0,26,26,26,,,,,,,,,,,,,,,,,,,,,,,,,,,,,,,,,,,,,,,,189.44852285400066,196.43841432200043,,,,,112020,0,1,1,2,0,1,2,0,8,2020_Nov_20_1132,listening_fmri,3.2.4,59.89440257473096,
0,parcelated_audio/44/44_28.ogg,,,,,,,,,0,0,0,0,0,0,0,0,0,0,0,0,,,,,,,,,0,0,0,0,0,27,27,27,,,,,,,,,,,,,,,,,,,,,,,,,,,,,,,,,,,,,,,,196.43876971700047,207.72356776200013,,,,,112020,0,1,1,2,0,1,2,0,8,2020_Nov_20_1132,listening_fmri,3.2.4,59.89440257473096,
0,,,,,,,,,,0,0,0,0,0,0,0,0,0,0,0,0,,,,,,,,,0,0,0,0,,,,,,,,,,,,,,,,,,,,,,,,,,,,,,,,,,,,,,,,,,,,,,,,,,112020,0,1,1,2,0,1,2,0,8,2020_Nov_20_1132,listening_fmri,3.2.4,59.89440257473096,
,,,,,,,,,,,,,,,,,,,,,,,,,,,,,,,,,,,,,,,,,,,,,,,,,,,,,,,207.72393996500068,213.72927767000056,302.8567621580005,None,,,,,,,,,,,,,,,,,,,,,308.8721072879998,None,308.8721072879998,None,,,,,,,,,,,,,,,
﻿count,audio,trials_14.thisRepN,trials_14.thisTrialN,trials_14.thisN,trials_14.thisIndex,trials_3.thisRepN,trials_3.thisTrialN,trials_3.thisN,trials_3.thisIndex,trials_4.thisRepN,trials_4.thisTrialN,trials_4.thisN,trials_4.thisIndex,trials_6.thisRepN,trials_6.thisTrialN,trials_6.thisN,trials_6.thisIndex,trials_9.thisRepN,trials_9.thisTrialN,trials_9.thisN,trials_9.thisIndex,trials_10.thisRepN,trials_10.thisTrialN,trials_10.thisN,trials_10.thisIndex,trials_12.thisRepN,trials_12.thisTrialN,trials_12.thisN,trials_12.thisIndex,trials_25.thisRepN,trials_25.thisTrialN,trials_25.thisN,trials_25.thisIndex,trials_15.thisRepN,trials_15.thisTrialN,trials_15.thisN,trials_15.thisIndex,trials_26.thisRepN,trials_26.thisTrialN,trials_26.thisN,trials_26.thisIndex,trials_11.thisRepN,trials_11.thisTrialN,trials_11.thisN,trials_11.thisIndex,story_list_block2,action_list_block2,textTrigger.started,textTrigger.stopped,getTrigger.keys,getTrigger.rt,getTrigger.started,getTrigger.stopped,triggerTime,text_76.started,text_76.stopped,text_77.started,text_77.stopped,startWait,endWait,image_23.started,image_23.stopped,text_55.started,text_55.stopped,text_56.started,text_56.stopped,key_resp_2.keys,key_resp_2.rt,key_resp_2.started,key_resp_2.stopped,text_82.started,text_82.stopped,text_64.started,text_64.stopped,key_resp_20.keys,key_resp_20.rt,key_resp_20.started,key_resp_20.stopped,storyImage_StartTime,storyImage_EndTime,clip_StartTime,clip_EndTime,text_67.started,text_67.stopped,text_68.started,text_68.stopped,text_57.started,text_57.stopped,key_resp_17.keys,key_resp_17.rt,key_resp_17.started,key_resp_17.stopped,text_83.started,text_83.stopped,text_60.started,text_60.stopped,image_2.started,image_2.stopped,text_58.started,text_58.stopped,key_resp_23.keys,key_resp_23.rt,key_resp_23.started,key_resp_23.stopped,text_62.started,text_62.stopped,key_resp_18.keys,key_resp_18.rt,key_resp_18.started,key_resp_18.stopped,text_84.started,text_84.stopped,question1_2.started,question1_2.stopped,question2_2.started,question2_2.stopped,question3_2.started,question3_2.stopped,question4_2.started,question4_2.stopped,question5_2.started,question5_2.stopped,question6_2.started,question6_2.stopped,image_15.started,image_15.stopped,text_59.started,text_59.stopped,key_resp_19.keys,key_resp_19.rt,key_resp_19.started,key_resp_19.stopped,text_85.started,text_85.stopped,text_61.started,text_61.stopped,image_17.started,image_17.stopped,text_63.started,text_63.stopped,key_resp_24.keys,key_resp_24.rt,key_resp_24.started,key_resp_24.stopped,participant,sA,sB,lA,lB,block_struct,play_stories,block,behavioral,random_seed,date,expName,psychopyVersion,frameRate,
0,parcelated_audio/44/44_1.ogg,,,,,,,,,0,0,0,0,0,0,0,0,0,0,0,0,,,,,,,,,0,0,0,0,0,0,0,0,,,,,,,,,[44 13 22 24 11 33 31 42],[4 3 3 1 1 2 4 2],12.460082747999877,None,equal,82.6575950409997,12.460082747999877,None,82.68745656400006,12.460082747999877,None,12.460082747999877,None,0.00038231500002439134,6.006814878000114,95.14134674400066,None,101.150335929,None,101.150335929,None,5,0.9672447869997995,101.150335929,None,101.150335929,None,102.13385864600059,None,5,0.9837778520004576,102.13385864600059,None,7.998131607000687,10.99862540200047,11.003637020000497,18.934127419000106,,,,,,,,,,,,,,,,,,,,,,,,,,,,,,,,,,,,,,,,,,,,,,,,,,,,,,,,,,,,,,,112020,0,1,1,2,0,1,2,0,8,2020_Nov_20_1132,listening_fmri,3.2.4,59.89440257473096,
0,parcelated_audio/44/44_2.ogg,,,,,,,,,0,0,0,0,0,0,0,0,0,0,0,0,,,,,,,,,0,0,0,0,0,1,1,1,,,,,,,,,,,,,,,,,,,,,,,,,,,,,,,,,,,,,,,,,,,,18.934395342000244,28.06205131600018,,,,,,,,,,,,,,,,,,,,,,,,,,,,,,,,,,,,,,,,,,,,,,,,,,,,,,,,,,,,,,,112020,0,1,1,2,0,1,2,0,8,2020_Nov_20_1132,listening_fmri,3.2.4,59.89440257473096,
0,parcelated_audio/44/44_3.ogg,,,,,,,,,0,0,0,0,0,0,0,0,0,0,0,0,,,,,,,,,0,0,0,0,0,2,2,2,,,,,,,,,,,,,,,,,,,,,,,,,,,,,,,,,,,,,,,,,,,,28.06317791299989,33.50174544499987,,,,,,,,,,,,,,,,,,,,,,,,,,,,,,,,,,,,,,,,,,,,,,,,,,,,,,,,,,,,,,,112020,0,1,1,2,0,1,2,0,8,2020_Nov_20_1132,listening_fmri,3.2.4,59.89440257473096,
0,parcelated_audio/44/44_4.ogg,,,,,,,,,0,0,0,0,0,0,0,0,0,0,0,0,,,,,,,,,0,0,0,0,0,3,3,3,,,,,,,,,,,,,,,,,,,,,,,,,,,,,,,,,,,,,,,,,,,,33.50201424700026,38.610468427999876,,,,,,,,,,,,,,,,,,,,,,,,,,,,,,,,,,,,,,,,,,,,,,,,,,,,,,,,,,,,,,,112020,0,1,1,2,0,1,2,0,8,2020_Nov_20_1132,listening_fmri,3.2.4,59.89440257473096,
0,parcelated_audio/44/44_5.ogg,,,,,,,,,0,0,0,0,0,0,0,0,0,0,0,0,,,,,,,,,0,0,0,0,0,4,4,4,,,,,,,,,,,,,,,,,,,,,,,,,,,,,,,,,,,,,,,,,,,,38.61083744200005,44.84548207100033,,,,,,,,,,,,,,,,,,,,,,,,,,,,,,,,,,,,,,,,,,,,,,,,,,,,,,,,,,,,,,,112020,0,1,1,2,0,1,2,0,8,2020_Nov_20_1132,listening_fmri,3.2.4,59.89440257473096,
0,parcelated_audio/44/44_6.ogg,,,,,,,,,0,0,0,0,0,0,0,0,0,0,0,0,,,,,,,,,0,0,0,0,0,5,5,5,,,,,,,,,,,,,,,,,,,,,,,,,,,,,,,,,,,,,,,,,,,,44.84575134900024,51.78624997600036,,,,,,,,,,,,,,,,,,,,,,,,,,,,,,,,,,,,,,,,,,,,,,,,,,,,,,,,,,,,,,,112020,0,1,1,2,0,1,2,0,8,2020_Nov_20_1132,listening_fmri,3.2.4,59.89440257473096,
0,parcelated_audio/44/44_7.ogg,,,,,,,,,0,0,0,0,0,0,0,0,0,0,0,0,,,,,,,,,0,0,0,0,0,6,6,6,,,,,,,,,,,,,,,,,,,,,,,,,,,,,,,,,,,,,,,,,,,,51.78662209400045,57.79723361500055,,,,,,,,,,,,,,,,,,,,,,,,,,,,,,,,,,,,,,,,,,,,,,,,,,,,,,,,,,,,,,,112020,0,1,1,2,0,1,2,0,8,2020_Nov_20_1132,listening_fmri,3.2.4,59.89440257473096,
0,parcelated_audio/44/44_8.ogg,,,,,,,,,0,0,0,0,0,0,0,0,0,0,0,0,,,,,,,,,0,0,0,0,0,7,7,7,,,,,,,,,,,,,,,,,,,,,,,,,,,,,,,,,,,,,,,,,,,,57.797754393000105,62.05359568699987,,,,,,,,,,,,,,,,,,,,,,,,,,,,,,,,,,,,,,,,,,,,,,,,,,,,,,,,,,,,,,,112020,0,1,1,2,0,1,2,0,8,2020_Nov_20_1132,listening_fmri,3.2.4,59.89440257473096,
0,parcelated_audio/44/44_9.ogg,,,,,,,,,0,0,0,0,0,0,0,0,0,0,0,0,,,,,,,,,0,0,0,0,0,8,8,8,,,,,,,,,,,,,,,,,,,,,,,,,,,,,,,,,,,,,,,,,,,,62.05406762600069,65.75460611400013,,,,,,,,,,,,,,,,,,,,,,,,,,,,,,,,,,,,,,,,,,,,,,,,,,,,,,,,,,,,,,,112020,0,1,1,2,0,1,2,0,8,2020_Nov_20_1132,listening_fmri,3.2.4,59.89440257473096,
0,parcelated_audio/44/44_10.ogg,,,,,,,,,0,0,0,0,0,0,0,0,0,0,0,0,,,,,,,,,0,0,0,0,0,9,9,9,,,,,,,,,,,,,,,,,,,,,,,,,,,,,,,,,,,,,,,,,,,,65.75487211500058,75.86903355200047,,,,,,,,,,,,,,,,,,,,,,,,,,,,,,,,,,,,,,,,,,,,,,,,,,,,,,,,,,,,,,,112020,0,1,1,2,0,1,2,0,8,2020_Nov_20_1132,listening_fmri,3.2.4,59.89440257473096,
0,parcelated_audio/44/44_11.ogg,,,,,,,,,0,0,0,0,0,0,0,0,0,0,0,0,,,,,,,,,0,0,0,0,0,10,10,10,,,,,,,,,,,,,,,,,,,,,,,,,,,,,,,,,,,,,,,,,,,,75.8693066550004,79.40482104300008,,,,,,,,,,,,,,,,,,,,,,,,,,,,,,,,,,,,,,,,,,,,,,,,,,,,,,,,,,,,,,,112020,0,1,1,2,0,1,2,0,8,2020_Nov_20_1132,listening_fmri,3.2.4,59.89440257473096,
0,parcelated_audio/44/44_12.ogg,,,,,,,,,0,0,0,0,0,0,0,0,0,0,0,0,,,,,,,,,0,0,0,0,0,11,11,11,,,,,,,,,,,,,,,,,,,,,,,,,,,,,,,,,,,,,,,,,,,,79.40508806900016,89.99650134900003,,,,,,,,,,,,,,,,,,,,,,,,,,,,,,,,,,,,,,,,,,,,,,,,,,,,,,,,,,,,,,,112020,0,1,1,2,0,1,2,0,8,2020_Nov_20_1132,listening_fmri,3.2.4,59.89440257473096,
0,parcelated_audio/44/44_13.ogg,,,,,,,,,0,0,0,0,0,0,0,0,0,0,0,0,,,,,,,,,0,0,0,0,0,12,12,12,,,,,,,,,,,,,,,,,,,,,,,,,,,,,,,,,,,,,,,,,,,,89.99683438100055,97.15903029200035,,,,,,,,,,,,,,,,,,,,,,,,,,,,,,,,,,,,,,,,,,,,,,,,,,,,,,,,,,,,,,,112020,0,1,1,2,0,1,2,0,8,2020_Nov_20_1132,listening_fmri,3.2.4,59.89440257473096,
0,parcelated_audio/44/44_14.ogg,,,,,,,,,0,0,0,0,0,0,0,0,0,0,0,0,,,,,,,,,0,0,0,0,0,13,13,13,,,,,,,,,,,,,,,,,,,,,,,,,,,,,,,,,,,,,,,,,,,,97.15976990699983,103.48640619700018,,,,,,,,,,,,,,,,,,,,,,,,,,,,,,,,,,,,,,,,,,,,,,,,,,,,,,,,,,,,,,,112020,0,1,1,2,0,1,2,0,8,2020_Nov_20_1132,listening_fmri,3.2.4,59.89440257473096,
0,parcelated_audio/44/44_15.ogg,,,,,,,,,0,0,0,0,0,0,0,0,0,0,0,0,,,,,,,,,0,0,0,0,0,14,14,14,,,,,,,,,,,,,,,,,,,,,,,,,,,,,,,,,,,,,,,,,,,,103.48695393800062,107.57216123099988,,,,,,,,,,,,,,,,,,,,,,,,,,,,,,,,,,,,,,,,,,,,,,,,,,,,,,,,,,,,,,,112020,0,1,1,2,0,1,2,0,8,2020_Nov_20_1132,listening_fmri,3.2.4,59.89440257473096,
0,parcelated_audio/44/44_16.ogg,,,,,,,,,0,0,0,0,0,0,0,0,0,0,0,0,,,,,,,,,0,0,0,0,0,15,15,15,,,,,,,,,,,,,,,,,,,,,,,,,,,,,,,,,,,,,,,,,,,,107.5724725300006,111.59307481900032,,,,,,,,,,,,,,,,,,,,,,,,,,,,,,,,,,,,,,,,,,,,,,,,,,,,,,,,,,,,,,,112020,0,1,1,2,0,1,2,0,8,2020_Nov_20_1132,listening_fmri,3.2.4,59.89440257473096,
0,parcelated_audio/44/44_17.ogg,,,,,,,,,0,0,0,0,0,0,0,0,0,0,0,0,,,,,,,,,0,0,0,0,0,16,16,16,,,,,,,,,,,,,,,,,,,,,,,,,,,,,,,,,,,,,,,,,,,,111.59334029300044,120.05969547899986,,,,,,,,,,,,,,,,,,,,,,,,,,,,,,,,,,,,,,,,,,,,,,,,,,,,,,,,,,,,,,,112020,0,1,1,2,0,1,2,0,8,2020_Nov_20_1132,listening_fmri,3.2.4,59.89440257473096,
0,parcelated_audio/44/44_18.ogg,,,,,,,,,0,0,0,0,0,0,0,0,0,0,0,0,,,,,,,,,0,0,0,0,0,17,17,17,,,,,,,,,,,,,,,,,,,,,,,,,,,,,,,,,,,,,,,,,,,,120.05995728500056,129.88901447700027,,,,,,,,,,,,,,,,,,,,,,,,,,,,,,,,,,,,,,,,,,,,,,,,,,,,,,,,,,,,,,,112020,0,1,1,2,0,1,2,0,8,2020_Nov_20_1132,listening_fmri,3.2.4,59.89440257473096,
0,parcelated_audio/44/44_19.ogg,,,,,,,,,0,0,0,0,0,0,0,0,0,0,0,0,,,,,,,,,0,0,0,0,0,18,18,18,,,,,,,,,,,,,,,,,,,,,,,,,,,,,,,,,,,,,,,,,,,,129.88927923200026,140.85442558700015,,,,,,,,,,,,,,,,,,,,,,,,,,,,,,,,,,,,,,,,,,,,,,,,,,,,,,,,,,,,,,,112020,0,1,1,2,0,1,2,0,8,2020_Nov_20_1132,listening_fmri,3.2.4,59.89440257473096,
0,parcelated_audio/44/44_20.ogg,,,,,,,,,0,0,0,0,0,0,0,0,0,0,0,0,,,,,,,,,0,0,0,0,0,19,19,19,,,,,,,,,,,,,,,,,,,,,,,,,,,,,,,,,,,,,,,,,,,,140.85469290899982,149.05977414300014,,,,,,,,,,,,,,,,,,,,,,,,,,,,,,,,,,,,,,,,,,,,,,,,,,,,,,,,,,,,,,,112020,0,1,1,2,0,1,2,0,8,2020_Nov_20_1132,listening_fmri,3.2.4,59.89440257473096,
0,parcelated_audio/44/44_21.ogg,,,,,,,,,0,0,0,0,0,0,0,0,0,0,0,0,,,,,,,,,0,0,0,0,0,20,20,20,,,,,,,,,,,,,,,,,,,,,,,,,,,,,,,,,,,,,,,,,,,,149.0601504770002,157.98731726999995,,,,,,,,,,,,,,,,,,,,,,,,,,,,,,,,,,,,,,,,,,,,,,,,,,,,,,,,,,,,,,,112020,0,1,1,2,0,1,2,0,8,2020_Nov_20_1132,listening_fmri,3.2.4,59.89440257473096,
0,parcelated_audio/44/44_22.ogg,,,,,,,,,0,0,0,0,0,0,0,0,0,0,0,0,,,,,,,,,0,0,0,0,0,21,21,21,,,,,,,,,,,,,,,,,,,,,,,,,,,,,,,,,,,,,,,,,,,,157.98972923300062,162.91796510299991,,,,,,,,,,,,,,,,,,,,,,,,,,,,,,,,,,,,,,,,,,,,,,,,,,,,,,,,,,,,,,,112020,0,1,1,2,0,1,2,0,8,2020_Nov_20_1132,listening_fmri,3.2.4,59.89440257473096,
0,parcelated_audio/44/44_23.ogg,,,,,,,,,0,0,0,0,0,0,0,0,0,0,0,0,,,,,,,,,0,0,0,0,0,22,22,22,,,,,,,,,,,,,,,,,,,,,,,,,,,,,,,,,,,,,,,,,,,,162.9186810430001,169.5544625980001,,,,,,,,,,,,,,,,,,,,,,,,,,,,,,,,,,,,,,,,,,,,,,,,,,,,,,,,,,,,,,,112020,0,1,1,2,0,1,2,0,8,2020_Nov_20_1132,listening_fmri,3.2.4,59.89440257473096,
0,parcelated_audio/44/44_24.ogg,,,,,,,,,0,0,0,0,0,0,0,0,0,0,0,0,,,,,,,,,0,0,0,0,0,23,23,23,,,,,,,,,,,,,,,,,,,,,,,,,,,,,,,,,,,,,,,,,,,,169.55473022200022,178.28546877600002,,,,,,,,,,,,,,,,,,,,,,,,,,,,,,,,,,,,,,,,,,,,,,,,,,,,,,,,,,,,,,,112020,0,1,1,2,0,1,2,0,8,2020_Nov_20_1132,listening_fmri,3.2.4,59.89440257473096,
0,parcelated_audio/44/44_25.ogg,,,,,,,,,0,0,0,0,0,0,0,0,0,0,0,0,,,,,,,,,0,0,0,0,0,24,24,24,,,,,,,,,,,,,,,,,,,,,,,,,,,,,,,,,,,,,,,,,,,,178.28577577000033,184.58610605400008,,,,,,,,,,,,,,,,,,,,,,,,,,,,,,,,,,,,,,,,,,,,,,,,,,,,,,,,,,,,,,,112020,0,1,1,2,0,1,2,0,8,2020_Nov_20_1132,listening_fmri,3.2.4,59.89440257473096,
0,parcelated_audio/44/44_26.ogg,,,,,,,,,0,0,0,0,0,0,0,0,0,0,0,0,,,,,,,,,0,0,0,0,0,25,25,25,,,,,,,,,,,,,,,,,,,,,,,,,,,,,,,,,,,,,,,,,,,,184.58646019700063,189.448165109,,,,,,,,,,,,,,,,,,,,,,,,,,,,,,,,,,,,,,,,,,,,,,,,,,,,,,,,,,,,,,,112020,0,1,1,2,0,1,2,0,8,2020_Nov_20_1132,listening_fmri,3.2.4,59.89440257473096,
0,parcelated_audio/44/44_27.ogg,,,,,,,,,0,0,0,0,0,0,0,0,0,0,0,0,,,,,,,,,0,0,0,0,0,26,26,26,,,,,,,,,,,,,,,,,,,,,,,,,,,,,,,,,,,,,,,,,,,,189.44852285400066,196.43841432200043,,,,,,,,,,,,,,,,,,,,,,,,,,,,,,,,,,,,,,,,,,,,,,,,,,,,,,,,,,,,,,,112020,0,1,1,2,0,1,2,0,8,2020_Nov_20_1132,listening_fmri,3.2.4,59.89440257473096,
0,parcelated_audio/44/44_28.ogg,,,,,,,,,0,0,0,0,0,0,0,0,0,0,0,0,,,,,,,,,0,0,0,0,0,27,27,27,,,,,,,,,,,,,,,,,,,,,,,,,,,,,,,,,,,,,,,,,,,,196.43876971700047,207.72356776200013,,,,,,,,,,,,,,,,,,,,,,,,,,,,,,,,,,,,,,,,,,,,,,,,,,,,,,,,,,,,,,,112020,0,1,1,2,0,1,2,0,8,2020_Nov_20_1132,listening_fmri,3.2.4,59.89440257473096,
0,,,,,,,,,,0,0,0,0,0,0,0,0,0,0,0,0,,,,,,,,,0,0,0,0,,,,,,,,,,,,,,,,,,,,,,,,,,,,,,,,,,,,,,,,,,,,,,,,,,,,,,,,,,,,,,,,,,,,,,,,,,,,,,,,,,,,,,,,,,,,,,,,,,,,,,,,,,,,,,,,112020,0,1,1,2,0,1,2,0,8,2020_Nov_20_1132,listening_fmri,3.2.4,59.89440257473096,
0,,,,,,,,,,0,0,0,0,0,0,0,0,0,0,0,0,,,,,,,,,,,,,,,,,,,,,,,,,,,,,,,,,,,,,,207.72393996500068,213.72927767000056,302.8567621580005,None,,,,,,,,,,,,,,,,,,,,,308.8721072879998,None,308.8721072879998,None,,,,,,,,,,,,,,,,,,,,,,,,,,,,,,,,,,,,,,,,,,,,,,,,,,,,,,,,,,,112020,0,1,1,2,0,1,2,0,8,2020_Nov_20_1132,listening_fmri,3.2.4,59.89440257473096,
0,,,,,,,,,,0,0,0,0,0,0,0,0,,,,,,,,,,,,,,,,,,,,,,,,,,,,,,,,,,,,,,,,,,,,,,,,,,,,,,,,,,,,,,,,,,,,,,,,,,,,,,,,,,,,,,,,,,,,,,,,,,,,,,,,,,,,,,,,,,,,,,,,,,,,,,,,112020,0,1,1,2,0,1,2,0,8,2020_Nov_20_1132,listening_fmri,3.2.4,59.89440257473096,
1,,,,,,,,,,0,0,0,0,0,1,1,1,,,,,,,,,,,,,,,,,,,,,,,,,,,,,,,,,,,,,,,,,,,,,,,,,,,,,,,,,,,,,,,,,,,,,,,,,,,,,,,,,,,,,,,,,,,,,,,,,,,,,,,,,,,,,,,,,,,,,,,,,,,,,,,,112020,0,1,1,2,0,1,2,0,8,2020_Nov_20_1132,listening_fmri,3.2.4,59.89440257473096,
2,,,,,,,,,,0,0,0,0,0,2,2,2,,,,,,,,,,,,,,,,,,,,,,,,,,,,,,,,,,,,,,,,,,,,,,,,,,,,,,,,,,,,,,,,,,,,,,,,,,,,,,,,,,,,,,,,,,,,,,,,,,,,,,,,,,,,,,,,,,,,,,,,,,,,,,,,112020,0,1,1,2,0,1,2,0,8,2020_Nov_20_1132,listening_fmri,3.2.4,59.89440257473096,
3,,,,,,,,,,0,0,0,0,0,3,3,3,0,0,0,0,0,0,0,0,,,,,,,,,,,,,,,,,0,0,0,0,,,,,,,,,,,,,,,,,,309.87279527600003,None,309.87279527600003,None,5,0.24290188499981014,309.87279527600003,None,309.87279527600003,None,,,,,,,,,,,,,,,310.1341558740005,None,5,0.9815618549991996,310.1341558740005,None,310.1341558740005,None,311.15513828500025,None,311.15513828500025,None,311.15513828500025,None,5,0.9605842969995138,311.15513828500025,None,312.13385707900034,None,5,0.9818687269998918,312.13385707900034,None,312.13385707900034,None,313.20579184800044,None,313.20579184800044,None,313.20579184800044,None,313.20579184800044,None,313.20579184800044,None,313.20579184800044,None,313.20579184800044,None,,,,,,,,,,,,,,,,,,,112020,0,1,1,2,0,1,2,0,8,2020_Nov_20_1132,listening_fmri,3.2.4,59.89440257473096,
3,,,,,,,,,,0,0,0,0,0,3,3,3,0,0,0,0,0,0,0,0,,,,,,,,,,,,,,,,,,,,,,,,,,,,,,,,,,,,,,,,,,,,,,,,,,,,,,,,,,,,,,,,,,,,,,,,,,,,,,,,,,,,,,,,,,,,,,,,,,,,,,336.4009800949998,None,5,0.7136591710004723,336.4009800949998,None,336.4009800949998,None,337.1505712140006,None,337.1505712140006,None,337.1505712140006,None,5,0.9640801140003532,337.1505712140006,None,112020,0,1,1,2,0,1,2,0,8,2020_Nov_20_1132,listening_fmri,3.2.4,59.89440257473096,
3,parcelated_audio/24/24_1.ogg,,,,,,,,,0,0,0,0,0,3,3,3,0,0,0,0,,,,,,,,,0,0,0,0,0,0,0,0,,,,,,,,,,,,,,,,,,,,,,,,,,,,,,,,,,,,338.1345355370004,None,5,0.980102686000464,338.1345355370004,None,243.99658979300057,247.00770371700037,247.02014206700005,257.44488499199997,,,,,,,,,,,,,,,,,,,,,,,,,,,,,,,,,,,,,,,,,,,,,,,,,,,,,,,,,,,,,,,112020,0,1,1,2,0,1,2,0,8,2020_Nov_20_1132,listening_fmri,3.2.4,59.89440257473096,
3,parcelated_audio/24/24_2.ogg,,,,,,,,,0,0,0,0,0,3,3,3,0,0,0,0,,,,,,,,,0,0,0,0,0,1,1,1,,,,,,,,,,,,,,,,,,,,,,,,,,,,,,,,,,,,,,,,,,,,257.445155335,263.7576123210001,,,,,,,,,,,,,,,,,,,,,,,,,,,,,,,,,,,,,,,,,,,,,,,,,,,,,,,,,,,,,,,112020,0,1,1,2,0,1,2,0,8,2020_Nov_20_1132,listening_fmri,3.2.4,59.89440257473096,
3,parcelated_audio/24/24_3.ogg,,,,,,,,,0,0,0,0,0,3,3,3,0,0,0,0,,,,,,,,,0,0,0,0,0,2,2,2,,,,,,,,,,,,,,,,,,,,,,,,,,,,,,,,,,,,,,,,,,,,263.75786184500066,275.37161688300057,,,,,,,,,,,,,,,,,,,,,,,,,,,,,,,,,,,,,,,,,,,,,,,,,,,,,,,,,,,,,,,112020,0,1,1,2,0,1,2,0,8,2020_Nov_20_1132,listening_fmri,3.2.4,59.89440257473096,
3,parcelated_audio/24/24_4.ogg,,,,,,,,,0,0,0,0,0,3,3,3,0,0,0,0,,,,,,,,,0,0,0,0,0,3,3,3,,,,,,,,,,,,,,,,,,,,,,,,,,,,,,,,,,,,,,,,,,,,275.37188275600056,282.25698070399994,,,,,,,,,,,,,,,,,,,,,,,,,,,,,,,,,,,,,,,,,,,,,,,,,,,,,,,,,,,,,,,112020,0,1,1,2,0,1,2,0,8,2020_Nov_20_1132,listening_fmri,3.2.4,59.89440257473096,
3,parcelated_audio/24/24_5.ogg,,,,,,,,,0,0,0,0,0,3,3,3,0,0,0,0,,,,,,,,,0,0,0,0,0,4,4,4,,,,,,,,,,,,,,,,,,,,,,,,,,,,,,,,,,,,,,,,,,,,282.2574071300005,287.22998448399994,,,,,,,,,,,,,,,,,,,,,,,,,,,,,,,,,,,,,,,,,,,,,,,,,,,,,,,,,,,,,,,112020,0,1,1,2,0,1,2,0,8,2020_Nov_20_1132,listening_fmri,3.2.4,59.89440257473096,
3,parcelated_audio/24/24_6.ogg,,,,,,,,,0,0,0,0,0,3,3,3,0,0,0,0,,,,,,,,,0,0,0,0,0,5,5,5,,,,,,,,,,,,,,,,,,,,,,,,,,,,,,,,,,,,,,,,,,,,287.23046783300015,294.70676993899997,,,,,,,,,,,,,,,,,,,,,,,,,,,,,,,,,,,,,,,,,,,,,,,,,,,,,,,,,,,,,,,112020,0,1,1,2,0,1,2,0,8,2020_Nov_20_1132,listening_fmri,3.2.4,59.89440257473096,
3,parcelated_audio/24/24_7.ogg,,,,,,,,,0,0,0,0,0,3,3,3,0,0,0,0,,,,,,,,,0,0,0,0,0,6,6,6,,,,,,,,,,,,,,,,,,,,,,,,,,,,,,,,,,,,,,,,,,,,294.7071610110006,299.0953560500002,,,,,,,,,,,,,,,,,,,,,,,,,,,,,,,,,,,,,,,,,,,,,,,,,,,,,,,,,,,,,,,112020,0,1,1,2,0,1,2,0,8,2020_Nov_20_1132,listening_fmri,3.2.4,59.89440257473096,
3,parcelated_audio/24/24_8.ogg,,,,,,,,,0,0,0,0,0,3,3,3,0,0,0,0,,,,,,,,,0,0,0,0,0,7,7,7,,,,,,,,,,,,,,,,,,,,,,,,,,,,,,,,,,,,,,,,,,,,299.09562563500003,305.14069993700014,,,,,,,,,,,,,,,,,,,,,,,,,,,,,,,,,,,,,,,,,,,,,,,,,,,,,,,,,,,,,,,112020,0,1,1,2,0,1,2,0,8,2020_Nov_20_1132,listening_fmri,3.2.4,59.89440257473096,
3,parcelated_audio/24/24_9.ogg,,,,,,,,,0,0,0,0,0,3,3,3,0,0,0,0,,,,,,,,,0,0,0,0,0,8,8,8,,,,,,,,,,,,,,,,,,,,,,,,,,,,,,,,,,,,,,,,,,,,305.14109695000025,309.4801554270007,,,,,,,,,,,,,,,,,,,,,,,,,,,,,,,,,,,,,,,,,,,,,,,,,,,,,,,,,,,,,,,112020,0,1,1,2,0,1,2,0,8,2020_Nov_20_1132,listening_fmri,3.2.4,59.89440257473096,
3,parcelated_audio/24/24_10.ogg,,,,,,,,,0,0,0,0,0,3,3,3,0,0,0,0,,,,,,,,,0,0,0,0,0,9,9,9,,,,,,,,,,,,,,,,,,,,,,,,,,,,,,,,,,,,,,,,,,,,309.4804292810004,313.2242498650003,,,,,,,,,,,,,,,,,,,,,,,,,,,,,,,,,,,,,,,,,,,,,,,,,,,,,,,,,,,,,,,112020,0,1,1,2,0,1,2,0,8,2020_Nov_20_1132,listening_fmri,3.2.4,59.89440257473096,
3,parcelated_audio/24/24_11.ogg,,,,,,,,,0,0,0,0,0,3,3,3,0,0,0,0,,,,,,,,,0,0,0,0,0,10,10,10,,,,,,,,,,,,,,,,,,,,,,,,,,,,,,,,,,,,,,,,,,,,313.22465599000043,323.3390238150005,,,,,,,,,,,,,,,,,,,,,,,,,,,,,,,,,,,,,,,,,,,,,,,,,,,,,,,,,,,,,,,112020,0,1,1,2,0,1,2,0,8,2020_Nov_20_1132,listening_fmri,3.2.4,59.89440257473096,
3,parcelated_audio/24/24_12.ogg,,,,,,,,,0,0,0,0,0,3,3,3,0,0,0,0,,,,,,,,,0,0,0,0,0,11,11,11,,,,,,,,,,,,,,,,,,,,,,,,,,,,,,,,,,,,,,,,,,,,323.34268568600055,332.42148057600025,,,,,,,,,,,,,,,,,,,,,,,,,,,,,,,,,,,,,,,,,,,,,,,,,,,,,,,,,,,,,,,112020,0,1,1,2,0,1,2,0,8,2020_Nov_20_1132,listening_fmri,3.2.4,59.89440257473096,
3,parcelated_audio/24/24_13.ogg,,,,,,,,,0,0,0,0,0,3,3,3,0,0,0,0,,,,,,,,,0,0,0,0,0,12,12,12,,,,,,,,,,,,,,,,,,,,,,,,,,,,,,,,,,,,,,,,,,,,332.4218059650002,336.39122196800054,,,,,,,,,,,,,,,,,,,,,,,,,,,,,,,,,,,,,,,,,,,,,,,,,,,,,,,,,,,,,,,112020,0,1,1,2,0,1,2,0,8,2020_Nov_20_1132,listening_fmri,3.2.4,59.89440257473096,
3,parcelated_audio/24/24_14.ogg,,,,,,,,,0,0,0,0,0,3,3,3,0,0,0,0,,,,,,,,,0,0,0,0,0,13,13,13,,,,,,,,,,,,,,,,,,,,,,,,,,,,,,,,,,,,,,,,,,,,336.3936882349999,343.7704623509999,,,,,,,,,,,,,,,,,,,,,,,,,,,,,,,,,,,,,,,,,,,,,,,,,,,,,,,,,,,,,,,112020,0,1,1,2,0,1,2,0,8,2020_Nov_20_1132,listening_fmri,3.2.4,59.89440257473096,
3,parcelated_audio/24/24_15.ogg,,,,,,,,,0,0,0,0,0,3,3,3,0,0,0,0,,,,,,,,,0,0,0,0,0,14,14,14,,,,,,,,,,,,,,,,,,,,,,,,,,,,,,,,,,,,,,,,,,,,343.77072662000046,350.30897633600034,,,,,,,,,,,,,,,,,,,,,,,,,,,,,,,,,,,,,,,,,,,,,,,,,,,,,,,,,,,,,,,112020,0,1,1,2,0,1,2,0,8,2020_Nov_20_1132,listening_fmri,3.2.4,59.89440257473096,
3,parcelated_audio/24/24_16.ogg,,,,,,,,,0,0,0,0,0,3,3,3,0,0,0,0,,,,,,,,,0,0,0,0,0,15,15,15,,,,,,,,,,,,,,,,,,,,,,,,,,,,,,,,,,,,,,,,,,,,350.30929919200025,357.50402717,,,,,,,,,,,,,,,,,,,,,,,,,,,,,,,,,,,,,,,,,,,,,,,,,,,,,,,,,,,,,,,112020,0,1,1,2,0,1,2,0,8,2020_Nov_20_1132,listening_fmri,3.2.4,59.89440257473096,
3,parcelated_audio/24/24_17.ogg,,,,,,,,,0,0,0,0,0,3,3,3,0,0,0,0,,,,,,,,,0,0,0,0,0,16,16,16,,,,,,,,,,,,,,,,,,,,,,,,,,,,,,,,,,,,,,,,,,,,357.5044279800004,363.4980179670001,,,,,,,,,,,,,,,,,,,,,,,,,,,,,,,,,,,,,,,,,,,,,,,,,,,,,,,,,,,,,,,112020,0,1,1,2,0,1,2,0,8,2020_Nov_20_1132,listening_fmri,3.2.4,59.89440257473096,
3,parcelated_audio/24/24_18.ogg,,,,,,,,,0,0,0,0,0,3,3,3,0,0,0,0,,,,,,,,,0,0,0,0,0,17,17,17,,,,,,,,,,,,,,,,,,,,,,,,,,,,,,,,,,,,,,,,,,,,363.49828862100003,371.96580220800024,,,,,,,,,,,,,,,,,,,,,,,,,,,,,,,,,,,,,,,,,,,,,,,,,,,,,,,,,,,,,,,112020,0,1,1,2,0,1,2,0,8,2020_Nov_20_1132,listening_fmri,3.2.4,59.89440257473096,
3,parcelated_audio/24/24_19.ogg,,,,,,,,,0,0,0,0,0,3,3,3,0,0,0,0,,,,,,,,,0,0,0,0,0,18,18,18,,,,,,,,,,,,,,,,,,,,,,,,,,,,,,,,,,,,,,,,,,,,371.9663148310001,381.60766526800035,,,,,,,,,,,,,,,,,,,,,,,,,,,,,,,,,,,,,,,,,,,,,,,,,,,,,,,,,,,,,,,112020,0,1,1,2,0,1,2,0,8,2020_Nov_20_1132,listening_fmri,3.2.4,59.89440257473096,
3,parcelated_audio/24/24_20.ogg,,,,,,,,,0,0,0,0,0,3,3,3,0,0,0,0,,,,,,,,,0,0,0,0,0,19,19,19,,,,,,,,,,,,,,,,,,,,,,,,,,,,,,,,,,,,,,,,,,,,381.60843075699995,386.0633489210004,,,,,,,,,,,,,,,,,,,,,,,,,,,,,,,,,,,,,,,,,,,,,,,,,,,,,,,,,,,,,,,112020,0,1,1,2,0,1,2,0,8,2020_Nov_20_1132,listening_fmri,3.2.4,59.89440257473096,
3,parcelated_audio/24/24_21.ogg,,,,,,,,,0,0,0,0,0,3,3,3,0,0,0,0,,,,,,,,,0,0,0,0,0,20,20,20,,,,,,,,,,,,,,,,,,,,,,,,,,,,,,,,,,,,,,,,,,,,386.06364381599997,394.0887125019999,,,,,,,,,,,,,,,,,,,,,,,,,,,,,,,,,,,,,,,,,,,,,,,,,,,,,,,,,,,,,,,112020,0,1,1,2,0,1,2,0,8,2020_Nov_20_1132,listening_fmri,3.2.4,59.89440257473096,
3,parcelated_audio/24/24_22.ogg,,,,,,,,,0,0,0,0,0,3,3,3,0,0,0,0,,,,,,,,,0,0,0,0,0,21,21,21,,,,,,,,,,,,,,,,,,,,,,,,,,,,,,,,,,,,,,,,,,,,394.0890852500006,404.5825330080006,,,,,,,,,,,,,,,,,,,,,,,,,,,,,,,,,,,,,,,,,,,,,,,,,,,,,,,,,,,,,,,112020,0,1,1,2,0,1,2,0,8,2020_Nov_20_1132,listening_fmri,3.2.4,59.89440257473096,
3,parcelated_audio/24/24_23.ogg,,,,,,,,,0,0,0,0,0,3,3,3,0,0,0,0,,,,,,,,,0,0,0,0,0,22,22,22,,,,,,,,,,,,,,,,,,,,,,,,,,,,,,,,,,,,,,,,,,,,404.58280109099996,414.7986330620006,,,,,,,,,,,,,,,,,,,,,,,,,,,,,,,,,,,,,,,,,,,,,,,,,,,,,,,,,,,,,,,112020,0,1,1,2,0,1,2,0,8,2020_Nov_20_1132,listening_fmri,3.2.4,59.89440257473096,
3,parcelated_audio/24/24_24.ogg,,,,,,,,,0,0,0,0,0,3,3,3,0,0,0,0,,,,,,,,,0,0,0,0,0,23,23,23,,,,,,,,,,,,,,,,,,,,,,,,,,,,,,,,,,,,,,,,,,,,414.79889900299986,421.36637394900026,,,,,,,,,,,,,,,,,,,,,,,,,,,,,,,,,,,,,,,,,,,,,,,,,,,,,,,,,,,,,,,112020,0,1,1,2,0,1,2,0,8,2020_Nov_20_1132,listening_fmri,3.2.4,59.89440257473096,
3,parcelated_audio/24/24_25.ogg,,,,,,,,,0,0,0,0,0,3,3,3,0,0,0,0,,,,,,,,,0,0,0,0,0,24,24,24,,,,,,,,,,,,,,,,,,,,,,,,,,,,,,,,,,,,,,,,,,,,421.366809999,430.1148402130002,,,,,,,,,,,,,,,,,,,,,,,,,,,,,,,,,,,,,,,,,,,,,,,,,,,,,,,,,,,,,,,112020,0,1,1,2,0,1,2,0,8,2020_Nov_20_1132,listening_fmri,3.2.4,59.89440257473096,
3,parcelated_audio/24/24_26.ogg,,,,,,,,,0,0,0,0,0,3,3,3,0,0,0,0,,,,,,,,,0,0,0,0,0,25,25,25,,,,,,,,,,,,,,,,,,,,,,,,,,,,,,,,,,,,,,,,,,,,430.1151974280001,436.6858754120003,,,,,,,,,,,,,,,,,,,,,,,,,,,,,,,,,,,,,,,,,,,,,,,,,,,,,,,,,,,,,,,112020,0,1,1,2,0,1,2,0,8,2020_Nov_20_1132,listening_fmri,3.2.4,59.89440257473096,
3,parcelated_audio/24/24_27.ogg,,,,,,,,,0,0,0,0,0,3,3,3,0,0,0,0,,,,,,,,,0,0,0,0,0,26,26,26,,,,,,,,,,,,,,,,,,,,,,,,,,,,,,,,,,,,,,,,,,,,436.6861464929998,442.763348036,,,,,,,,,,,,,,,,,,,,,,,,,,,,,,,,,,,,,,,,,,,,,,,,,,,,,,,,,,,,,,,112020,0,1,1,2,0,1,2,0,8,2020_Nov_20_1132,listening_fmri,3.2.4,59.89440257473096,
3,parcelated_audio/24/24_28.ogg,,,,,,,,,0,0,0,0,0,3,3,3,0,0,0,0,,,,,,,,,0,0,0,0,0,27,27,27,,,,,,,,,,,,,,,,,,,,,,,,,,,,,,,,,,,,,,,,,,,,442.7636993410006,447.28132843500043,,,,,,,,,,,,,,,,,,,,,,,,,,,,,,,,,,,,,,,,,,,,,,,,,,,,,,,,,,,,,,,112020,0,1,1,2,0,1,2,0,8,2020_Nov_20_1132,listening_fmri,3.2.4,59.89440257473096,
3,parcelated_audio/24/24_29.ogg,,,,,,,,,0,0,0,0,0,3,3,3,0,0,0,0,,,,,,,,,0,0,0,0,0,28,28,28,,,,,,,,,,,,,,,,,,,,,,,,,,,,,,,,,,,,,,,,,,,,447.2815917930002,453.5704552750003,,,,,,,,,,,,,,,,,,,,,,,,,,,,,,,,,,,,,,,,,,,,,,,,,,,,,,,,,,,,,,,112020,0,1,1,2,0,1,2,0,8,2020_Nov_20_1132,listening_fmri,3.2.4,59.89440257473096,
3,parcelated_audio/24/24_30.ogg,,,,,,,,,0,0,0,0,0,3,3,3,0,0,0,0,,,,,,,,,0,0,0,0,0,29,29,29,,,,,,,,,,,,,,,,,,,,,,,,,,,,,,,,,,,,,,,,,,,,453.5707210239998,459.81623793000017,,,,,,,,,,,,,,,,,,,,,,,,,,,,,,,,,,,,,,,,,,,,,,,,,,,,,,,,,,,,,,,112020,0,1,1,2,0,1,2,0,8,2020_Nov_20_1132,listening_fmri,3.2.4,59.89440257473096,
3,parcelated_audio/24/24_31.ogg,,,,,,,,,0,0,0,0,0,3,3,3,0,0,0,0,,,,,,,,,0,0,0,0,0,30,30,30,,,,,,,,,,,,,,,,,,,,,,,,,,,,,,,,,,,,,,,,,,,,459.8165566880007,466.4800487749999,,,,,,,,,,,,,,,,,,,,,,,,,,,,,,,,,,,,,,,,,,,,,,,,,,,,,,,,,,,,,,,112020,0,1,1,2,0,1,2,0,8,2020_Nov_20_1132,listening_fmri,3.2.4,59.89440257473096,
3,parcelated_audio/24/24_32.ogg,,,,,,,,,0,0,0,0,0,3,3,3,0,0,0,0,,,,,,,,,0,0,0,0,0,31,31,31,,,,,,,,,,,,,,,,,,,,,,,,,,,,,,,,,,,,,,,,,,,,466.4805978020004,477.2743518699999,,,,,,,,,,,,,,,,,,,,,,,,,,,,,,,,,,,,,,,,,,,,,,,,,,,,,,,,,,,,,,,112020,0,1,1,2,0,1,2,0,8,2020_Nov_20_1132,listening_fmri,3.2.4,59.89440257473096,
3,,,,,,,,,,0,0,0,0,0,3,3,3,0,0,0,0,,,,,,,,,0,0,0,0,,,,,,,,,,,,,,,,,,,,,,,,,,,,,,,,,,,,,,,,,,,,,,,,,,,,,,,,,,,,,,,,,,,,,,,,,,,,,,,,,,,,,,,,,,,,,,,,,,,,,,,,,,,,,,,,112020,0,1,1,2,0,1,2,0,8,2020_Nov_20_1132,listening_fmri,3.2.4,59.89440257473096,
,,,,,,,,,,,,,,,,,,,,,,,,,,,,,,,,,,,,,,,,,,,,,,,,,,,,,,,,,,,477.27472438899986,483.27426130300046,572.4178053220003,None,,,,,,,,,,,,,,,,,,,,,578.4175331300003,None,578.4175331300003,None,,,,,,,,,,,,,,,,,,,,,,,,,,,,,,,,,,,,,,,,,,,,,,,,,,,,,,,,,,,,,,,,,,,,,,,,,
﻿count,audio,trials_14.thisRepN,trials_14.thisTrialN,trials_14.thisN,trials_14.thisIndex,trials_3.thisRepN,trials_3.thisTrialN,trials_3.thisN,trials_3.thisIndex,trials_4.thisRepN,trials_4.thisTrialN,trials_4.thisN,trials_4.thisIndex,trials_6.thisRepN,trials_6.thisTrialN,trials_6.thisN,trials_6.thisIndex,trials_9.thisRepN,trials_9.thisTrialN,trials_9.thisN,trials_9.thisIndex,trials_10.thisRepN,trials_10.thisTrialN,trials_10.thisN,trials_10.thisIndex,trials_12.thisRepN,trials_12.thisTrialN,trials_12.thisN,trials_12.thisIndex,trials_25.thisRepN,trials_25.thisTrialN,trials_25.thisN,trials_25.thisIndex,trials_15.thisRepN,trials_15.thisTrialN,trials_15.thisN,trials_15.thisIndex,trials_26.thisRepN,trials_26.thisTrialN,trials_26.thisN,trials_26.thisIndex,trials_11.thisRepN,trials_11.thisTrialN,trials_11.thisN,trials_11.thisIndex,story_list_block2,action_list_block2,textTrigger.started,textTrigger.stopped,getTrigger.keys,getTrigger.rt,getTrigger.started,getTrigger.stopped,triggerTime,text_76.started,text_76.stopped,text_77.started,text_77.stopped,startWait,endWait,image_23.started,image_23.stopped,text_55.started,text_55.stopped,text_56.started,text_56.stopped,key_resp_2.keys,key_resp_2.rt,key_resp_2.started,key_resp_2.stopped,text_82.started,text_82.stopped,text_64.started,text_64.stopped,key_resp_20.keys,key_resp_20.rt,key_resp_20.started,key_resp_20.stopped,storyImage_StartTime,storyImage_EndTime,clip_StartTime,clip_EndTime,text_67.started,text_67.stopped,text_68.started,text_68.stopped,text_57.started,text_57.stopped,key_resp_17.keys,key_resp_17.rt,key_resp_17.started,key_resp_17.stopped,text_83.started,text_83.stopped,text_60.started,text_60.stopped,image_2.started,image_2.stopped,text_58.started,text_58.stopped,key_resp_23.keys,key_resp_23.rt,key_resp_23.started,key_resp_23.stopped,text_62.started,text_62.stopped,key_resp_18.keys,key_resp_18.rt,key_resp_18.started,key_resp_18.stopped,text_84.started,text_84.stopped,question1_2.started,question1_2.stopped,question2_2.started,question2_2.stopped,question3_2.started,question3_2.stopped,question4_2.started,question4_2.stopped,question5_2.started,question5_2.stopped,question6_2.started,question6_2.stopped,image_15.started,image_15.stopped,text_59.started,text_59.stopped,key_resp_19.keys,key_resp_19.rt,key_resp_19.started,key_resp_19.stopped,text_85.started,text_85.stopped,text_61.started,text_61.stopped,image_17.started,image_17.stopped,text_63.started,text_63.stopped,key_resp_24.keys,key_resp_24.rt,key_resp_24.started,key_resp_24.stopped,participant,sA,sB,lA,lB,block_struct,play_stories,block,behavioral,random_seed,date,expName,psychopyVersion,frameRate,
0,parcelated_audio/44/44_1.ogg,,,,,,,,,0,0,0,0,0,0,0,0,0,0,0,0,,,,,,,,,0,0,0,0,0,0,0,0,,,,,,,,,[44 13 22 24 11 33 31 42],[4 3 3 1 1 2 4 2],12.460082747999877,None,equal,82.6575950409997,12.460082747999877,None,82.68745656400006,12.460082747999877,None,12.460082747999877,None,0.00038231500002439134,6.006814878000114,95.14134674400066,None,101.150335929,None,101.150335929,None,5,0.9672447869997995,101.150335929,None,101.150335929,None,102.13385864600059,None,5,0.9837778520004576,102.13385864600059,None,7.998131607000687,10.99862540200047,11.003637020000497,18.934127419000106,,,,,,,,,,,,,,,,,,,,,,,,,,,,,,,,,,,,,,,,,,,,,,,,,,,,,,,,,,,,,,,112020,0,1,1,2,0,1,2,0,8,2020_Nov_20_1132,listening_fmri,3.2.4,59.89440257473096,
0,parcelated_audio/44/44_2.ogg,,,,,,,,,0,0,0,0,0,0,0,0,0,0,0,0,,,,,,,,,0,0,0,0,0,1,1,1,,,,,,,,,,,,,,,,,,,,,,,,,,,,,,,,,,,,,,,,,,,,18.934395342000244,28.06205131600018,,,,,,,,,,,,,,,,,,,,,,,,,,,,,,,,,,,,,,,,,,,,,,,,,,,,,,,,,,,,,,,112020,0,1,1,2,0,1,2,0,8,2020_Nov_20_1132,listening_fmri,3.2.4,59.89440257473096,
0,parcelated_audio/44/44_3.ogg,,,,,,,,,0,0,0,0,0,0,0,0,0,0,0,0,,,,,,,,,0,0,0,0,0,2,2,2,,,,,,,,,,,,,,,,,,,,,,,,,,,,,,,,,,,,,,,,,,,,28.06317791299989,33.50174544499987,,,,,,,,,,,,,,,,,,,,,,,,,,,,,,,,,,,,,,,,,,,,,,,,,,,,,,,,,,,,,,,112020,0,1,1,2,0,1,2,0,8,2020_Nov_20_1132,listening_fmri,3.2.4,59.89440257473096,
0,parcelated_audio/44/44_4.ogg,,,,,,,,,0,0,0,0,0,0,0,0,0,0,0,0,,,,,,,,,0,0,0,0,0,3,3,3,,,,,,,,,,,,,,,,,,,,,,,,,,,,,,,,,,,,,,,,,,,,33.50201424700026,38.610468427999876,,,,,,,,,,,,,,,,,,,,,,,,,,,,,,,,,,,,,,,,,,,,,,,,,,,,,,,,,,,,,,,112020,0,1,1,2,0,1,2,0,8,2020_Nov_20_1132,listening_fmri,3.2.4,59.89440257473096,
0,parcelated_audio/44/44_5.ogg,,,,,,,,,0,0,0,0,0,0,0,0,0,0,0,0,,,,,,,,,0,0,0,0,0,4,4,4,,,,,,,,,,,,,,,,,,,,,,,,,,,,,,,,,,,,,,,,,,,,38.61083744200005,44.84548207100033,,,,,,,,,,,,,,,,,,,,,,,,,,,,,,,,,,,,,,,,,,,,,,,,,,,,,,,,,,,,,,,112020,0,1,1,2,0,1,2,0,8,2020_Nov_20_1132,listening_fmri,3.2.4,59.89440257473096,
0,parcelated_audio/44/44_6.ogg,,,,,,,,,0,0,0,0,0,0,0,0,0,0,0,0,,,,,,,,,0,0,0,0,0,5,5,5,,,,,,,,,,,,,,,,,,,,,,,,,,,,,,,,,,,,,,,,,,,,44.84575134900024,51.78624997600036,,,,,,,,,,,,,,,,,,,,,,,,,,,,,,,,,,,,,,,,,,,,,,,,,,,,,,,,,,,,,,,112020,0,1,1,2,0,1,2,0,8,2020_Nov_20_1132,listening_fmri,3.2.4,59.89440257473096,
0,parcelated_audio/44/44_7.ogg,,,,,,,,,0,0,0,0,0,0,0,0,0,0,0,0,,,,,,,,,0,0,0,0,0,6,6,6,,,,,,,,,,,,,,,,,,,,,,,,,,,,,,,,,,,,,,,,,,,,51.78662209400045,57.79723361500055,,,,,,,,,,,,,,,,,,,,,,,,,,,,,,,,,,,,,,,,,,,,,,,,,,,,,,,,,,,,,,,112020,0,1,1,2,0,1,2,0,8,2020_Nov_20_1132,listening_fmri,3.2.4,59.89440257473096,
0,parcelated_audio/44/44_8.ogg,,,,,,,,,0,0,0,0,0,0,0,0,0,0,0,0,,,,,,,,,0,0,0,0,0,7,7,7,,,,,,,,,,,,,,,,,,,,,,,,,,,,,,,,,,,,,,,,,,,,57.797754393000105,62.05359568699987,,,,,,,,,,,,,,,,,,,,,,,,,,,,,,,,,,,,,,,,,,,,,,,,,,,,,,,,,,,,,,,112020,0,1,1,2,0,1,2,0,8,2020_Nov_20_1132,listening_fmri,3.2.4,59.89440257473096,
0,parcelated_audio/44/44_9.ogg,,,,,,,,,0,0,0,0,0,0,0,0,0,0,0,0,,,,,,,,,0,0,0,0,0,8,8,8,,,,,,,,,,,,,,,,,,,,,,,,,,,,,,,,,,,,,,,,,,,,62.05406762600069,65.75460611400013,,,,,,,,,,,,,,,,,,,,,,,,,,,,,,,,,,,,,,,,,,,,,,,,,,,,,,,,,,,,,,,112020,0,1,1,2,0,1,2,0,8,2020_Nov_20_1132,listening_fmri,3.2.4,59.89440257473096,
0,parcelated_audio/44/44_10.ogg,,,,,,,,,0,0,0,0,0,0,0,0,0,0,0,0,,,,,,,,,0,0,0,0,0,9,9,9,,,,,,,,,,,,,,,,,,,,,,,,,,,,,,,,,,,,,,,,,,,,65.75487211500058,75.86903355200047,,,,,,,,,,,,,,,,,,,,,,,,,,,,,,,,,,,,,,,,,,,,,,,,,,,,,,,,,,,,,,,112020,0,1,1,2,0,1,2,0,8,2020_Nov_20_1132,listening_fmri,3.2.4,59.89440257473096,
0,parcelated_audio/44/44_11.ogg,,,,,,,,,0,0,0,0,0,0,0,0,0,0,0,0,,,,,,,,,0,0,0,0,0,10,10,10,,,,,,,,,,,,,,,,,,,,,,,,,,,,,,,,,,,,,,,,,,,,75.8693066550004,79.40482104300008,,,,,,,,,,,,,,,,,,,,,,,,,,,,,,,,,,,,,,,,,,,,,,,,,,,,,,,,,,,,,,,112020,0,1,1,2,0,1,2,0,8,2020_Nov_20_1132,listening_fmri,3.2.4,59.89440257473096,
0,parcelated_audio/44/44_12.ogg,,,,,,,,,0,0,0,0,0,0,0,0,0,0,0,0,,,,,,,,,0,0,0,0,0,11,11,11,,,,,,,,,,,,,,,,,,,,,,,,,,,,,,,,,,,,,,,,,,,,79.40508806900016,89.99650134900003,,,,,,,,,,,,,,,,,,,,,,,,,,,,,,,,,,,,,,,,,,,,,,,,,,,,,,,,,,,,,,,112020,0,1,1,2,0,1,2,0,8,2020_Nov_20_1132,listening_fmri,3.2.4,59.89440257473096,
0,parcelated_audio/44/44_13.ogg,,,,,,,,,0,0,0,0,0,0,0,0,0,0,0,0,,,,,,,,,0,0,0,0,0,12,12,12,,,,,,,,,,,,,,,,,,,,,,,,,,,,,,,,,,,,,,,,,,,,89.99683438100055,97.15903029200035,,,,,,,,,,,,,,,,,,,,,,,,,,,,,,,,,,,,,,,,,,,,,,,,,,,,,,,,,,,,,,,112020,0,1,1,2,0,1,2,0,8,2020_Nov_20_1132,listening_fmri,3.2.4,59.89440257473096,
0,parcelated_audio/44/44_14.ogg,,,,,,,,,0,0,0,0,0,0,0,0,0,0,0,0,,,,,,,,,0,0,0,0,0,13,13,13,,,,,,,,,,,,,,,,,,,,,,,,,,,,,,,,,,,,,,,,,,,,97.15976990699983,103.48640619700018,,,,,,,,,,,,,,,,,,,,,,,,,,,,,,,,,,,,,,,,,,,,,,,,,,,,,,,,,,,,,,,112020,0,1,1,2,0,1,2,0,8,2020_Nov_20_1132,listening_fmri,3.2.4,59.89440257473096,
0,parcelated_audio/44/44_15.ogg,,,,,,,,,0,0,0,0,0,0,0,0,0,0,0,0,,,,,,,,,0,0,0,0,0,14,14,14,,,,,,,,,,,,,,,,,,,,,,,,,,,,,,,,,,,,,,,,,,,,103.48695393800062,107.57216123099988,,,,,,,,,,,,,,,,,,,,,,,,,,,,,,,,,,,,,,,,,,,,,,,,,,,,,,,,,,,,,,,112020,0,1,1,2,0,1,2,0,8,2020_Nov_20_1132,listening_fmri,3.2.4,59.89440257473096,
0,parcelated_audio/44/44_16.ogg,,,,,,,,,0,0,0,0,0,0,0,0,0,0,0,0,,,,,,,,,0,0,0,0,0,15,15,15,,,,,,,,,,,,,,,,,,,,,,,,,,,,,,,,,,,,,,,,,,,,107.5724725300006,111.59307481900032,,,,,,,,,,,,,,,,,,,,,,,,,,,,,,,,,,,,,,,,,,,,,,,,,,,,,,,,,,,,,,,112020,0,1,1,2,0,1,2,0,8,2020_Nov_20_1132,listening_fmri,3.2.4,59.89440257473096,
0,parcelated_audio/44/44_17.ogg,,,,,,,,,0,0,0,0,0,0,0,0,0,0,0,0,,,,,,,,,0,0,0,0,0,16,16,16,,,,,,,,,,,,,,,,,,,,,,,,,,,,,,,,,,,,,,,,,,,,111.59334029300044,120.05969547899986,,,,,,,,,,,,,,,,,,,,,,,,,,,,,,,,,,,,,,,,,,,,,,,,,,,,,,,,,,,,,,,112020,0,1,1,2,0,1,2,0,8,2020_Nov_20_1132,listening_fmri,3.2.4,59.89440257473096,
0,parcelated_audio/44/44_18.ogg,,,,,,,,,0,0,0,0,0,0,0,0,0,0,0,0,,,,,,,,,0,0,0,0,0,17,17,17,,,,,,,,,,,,,,,,,,,,,,,,,,,,,,,,,,,,,,,,,,,,120.05995728500056,129.88901447700027,,,,,,,,,,,,,,,,,,,,,,,,,,,,,,,,,,,,,,,,,,,,,,,,,,,,,,,,,,,,,,,112020,0,1,1,2,0,1,2,0,8,2020_Nov_20_1132,listening_fmri,3.2.4,59.89440257473096,
0,parcelated_audio/44/44_19.ogg,,,,,,,,,0,0,0,0,0,0,0,0,0,0,0,0,,,,,,,,,0,0,0,0,0,18,18,18,,,,,,,,,,,,,,,,,,,,,,,,,,,,,,,,,,,,,,,,,,,,129.88927923200026,140.85442558700015,,,,,,,,,,,,,,,,,,,,,,,,,,,,,,,,,,,,,,,,,,,,,,,,,,,,,,,,,,,,,,,112020,0,1,1,2,0,1,2,0,8,2020_Nov_20_1132,listening_fmri,3.2.4,59.89440257473096,
0,parcelated_audio/44/44_20.ogg,,,,,,,,,0,0,0,0,0,0,0,0,0,0,0,0,,,,,,,,,0,0,0,0,0,19,19,19,,,,,,,,,,,,,,,,,,,,,,,,,,,,,,,,,,,,,,,,,,,,140.85469290899982,149.05977414300014,,,,,,,,,,,,,,,,,,,,,,,,,,,,,,,,,,,,,,,,,,,,,,,,,,,,,,,,,,,,,,,112020,0,1,1,2,0,1,2,0,8,2020_Nov_20_1132,listening_fmri,3.2.4,59.89440257473096,
0,parcelated_audio/44/44_21.ogg,,,,,,,,,0,0,0,0,0,0,0,0,0,0,0,0,,,,,,,,,0,0,0,0,0,20,20,20,,,,,,,,,,,,,,,,,,,,,,,,,,,,,,,,,,,,,,,,,,,,149.0601504770002,157.98731726999995,,,,,,,,,,,,,,,,,,,,,,,,,,,,,,,,,,,,,,,,,,,,,,,,,,,,,,,,,,,,,,,112020,0,1,1,2,0,1,2,0,8,2020_Nov_20_1132,listening_fmri,3.2.4,59.89440257473096,
0,parcelated_audio/44/44_22.ogg,,,,,,,,,0,0,0,0,0,0,0,0,0,0,0,0,,,,,,,,,0,0,0,0,0,21,21,21,,,,,,,,,,,,,,,,,,,,,,,,,,,,,,,,,,,,,,,,,,,,157.98972923300062,162.91796510299991,,,,,,,,,,,,,,,,,,,,,,,,,,,,,,,,,,,,,,,,,,,,,,,,,,,,,,,,,,,,,,,112020,0,1,1,2,0,1,2,0,8,2020_Nov_20_1132,listening_fmri,3.2.4,59.89440257473096,
0,parcelated_audio/44/44_23.ogg,,,,,,,,,0,0,0,0,0,0,0,0,0,0,0,0,,,,,,,,,0,0,0,0,0,22,22,22,,,,,,,,,,,,,,,,,,,,,,,,,,,,,,,,,,,,,,,,,,,,162.9186810430001,169.5544625980001,,,,,,,,,,,,,,,,,,,,,,,,,,,,,,,,,,,,,,,,,,,,,,,,,,,,,,,,,,,,,,,112020,0,1,1,2,0,1,2,0,8,2020_Nov_20_1132,listening_fmri,3.2.4,59.89440257473096,
0,parcelated_audio/44/44_24.ogg,,,,,,,,,0,0,0,0,0,0,0,0,0,0,0,0,,,,,,,,,0,0,0,0,0,23,23,23,,,,,,,,,,,,,,,,,,,,,,,,,,,,,,,,,,,,,,,,,,,,169.55473022200022,178.28546877600002,,,,,,,,,,,,,,,,,,,,,,,,,,,,,,,,,,,,,,,,,,,,,,,,,,,,,,,,,,,,,,,112020,0,1,1,2,0,1,2,0,8,2020_Nov_20_1132,listening_fmri,3.2.4,59.89440257473096,
0,parcelated_audio/44/44_25.ogg,,,,,,,,,0,0,0,0,0,0,0,0,0,0,0,0,,,,,,,,,0,0,0,0,0,24,24,24,,,,,,,,,,,,,,,,,,,,,,,,,,,,,,,,,,,,,,,,,,,,178.28577577000033,184.58610605400008,,,,,,,,,,,,,,,,,,,,,,,,,,,,,,,,,,,,,,,,,,,,,,,,,,,,,,,,,,,,,,,112020,0,1,1,2,0,1,2,0,8,2020_Nov_20_1132,listening_fmri,3.2.4,59.89440257473096,
0,parcelated_audio/44/44_26.ogg,,,,,,,,,0,0,0,0,0,0,0,0,0,0,0,0,,,,,,,,,0,0,0,0,0,25,25,25,,,,,,,,,,,,,,,,,,,,,,,,,,,,,,,,,,,,,,,,,,,,184.58646019700063,189.448165109,,,,,,,,,,,,,,,,,,,,,,,,,,,,,,,,,,,,,,,,,,,,,,,,,,,,,,,,,,,,,,,112020,0,1,1,2,0,1,2,0,8,2020_Nov_20_1132,listening_fmri,3.2.4,59.89440257473096,
0,parcelated_audio/44/44_27.ogg,,,,,,,,,0,0,0,0,0,0,0,0,0,0,0,0,,,,,,,,,0,0,0,0,0,26,26,26,,,,,,,,,,,,,,,,,,,,,,,,,,,,,,,,,,,,,,,,,,,,189.44852285400066,196.43841432200043,,,,,,,,,,,,,,,,,,,,,,,,,,,,,,,,,,,,,,,,,,,,,,,,,,,,,,,,,,,,,,,112020,0,1,1,2,0,1,2,0,8,2020_Nov_20_1132,listening_fmri,3.2.4,59.89440257473096,
0,parcelated_audio/44/44_28.ogg,,,,,,,,,0,0,0,0,0,0,0,0,0,0,0,0,,,,,,,,,0,0,0,0,0,27,27,27,,,,,,,,,,,,,,,,,,,,,,,,,,,,,,,,,,,,,,,,,,,,196.43876971700047,207.72356776200013,,,,,,,,,,,,,,,,,,,,,,,,,,,,,,,,,,,,,,,,,,,,,,,,,,,,,,,,,,,,,,,112020,0,1,1,2,0,1,2,0,8,2020_Nov_20_1132,listening_fmri,3.2.4,59.89440257473096,
0,,,,,,,,,,0,0,0,0,0,0,0,0,0,0,0,0,,,,,,,,,0,0,0,0,,,,,,,,,,,,,,,,,,,,,,,,,,,,,,,,,,,,,,,,,,,,,,,,,,,,,,,,,,,,,,,,,,,,,,,,,,,,,,,,,,,,,,,,,,,,,,,,,,,,,,,,,,,,,,,,112020,0,1,1,2,0,1,2,0,8,2020_Nov_20_1132,listening_fmri,3.2.4,59.89440257473096,
0,,,,,,,,,,0,0,0,0,0,0,0,0,0,0,0,0,,,,,,,,,,,,,,,,,,,,,,,,,,,,,,,,,,,,,,207.72393996500068,213.72927767000056,302.8567621580005,None,,,,,,,,,,,,,,,,,,,,,308.8721072879998,None,308.8721072879998,None,,,,,,,,,,,,,,,,,,,,,,,,,,,,,,,,,,,,,,,,,,,,,,,,,,,,,,,,,,,112020,0,1,1,2,0,1,2,0,8,2020_Nov_20_1132,listening_fmri,3.2.4,59.89440257473096,
0,,,,,,,,,,0,0,0,0,0,0,0,0,,,,,,,,,,,,,,,,,,,,,,,,,,,,,,,,,,,,,,,,,,,,,,,,,,,,,,,,,,,,,,,,,,,,,,,,,,,,,,,,,,,,,,,,,,,,,,,,,,,,,,,,,,,,,,,,,,,,,,,,,,,,,,,,112020,0,1,1,2,0,1,2,0,8,2020_Nov_20_1132,listening_fmri,3.2.4,59.89440257473096,
1,,,,,,,,,,0,0,0,0,0,1,1,1,,,,,,,,,,,,,,,,,,,,,,,,,,,,,,,,,,,,,,,,,,,,,,,,,,,,,,,,,,,,,,,,,,,,,,,,,,,,,,,,,,,,,,,,,,,,,,,,,,,,,,,,,,,,,,,,,,,,,,,,,,,,,,,,112020,0,1,1,2,0,1,2,0,8,2020_Nov_20_1132,listening_fmri,3.2.4,59.89440257473096,
2,,,,,,,,,,0,0,0,0,0,2,2,2,,,,,,,,,,,,,,,,,,,,,,,,,,,,,,,,,,,,,,,,,,,,,,,,,,,,,,,,,,,,,,,,,,,,,,,,,,,,,,,,,,,,,,,,,,,,,,,,,,,,,,,,,,,,,,,,,,,,,,,,,,,,,,,,112020,0,1,1,2,0,1,2,0,8,2020_Nov_20_1132,listening_fmri,3.2.4,59.89440257473096,
3,,,,,,,,,,0,0,0,0,0,3,3,3,0,0,0,0,0,0,0,0,,,,,,,,,,,,,,,,,0,0,0,0,,,,,,,,,,,,,,,,,,309.87279527600003,None,309.87279527600003,None,5,0.24290188499981014,309.87279527600003,None,309.87279527600003,None,,,,,,,,,,,,,,,310.1341558740005,None,5,0.9815618549991996,310.1341558740005,None,310.1341558740005,None,311.15513828500025,None,311.15513828500025,None,311.15513828500025,None,5,0.9605842969995138,311.15513828500025,None,312.13385707900034,None,5,0.9818687269998918,312.13385707900034,None,312.13385707900034,None,313.20579184800044,None,313.20579184800044,None,313.20579184800044,None,313.20579184800044,None,313.20579184800044,None,313.20579184800044,None,313.20579184800044,None,,,,,,,,,,,,,,,,,,,112020,0,1,1,2,0,1,2,0,8,2020_Nov_20_1132,listening_fmri,3.2.4,59.89440257473096,
3,,,,,,,,,,0,0,0,0,0,3,3,3,0,0,0,0,0,0,0,0,,,,,,,,,,,,,,,,,,,,,,,,,,,,,,,,,,,,,,,,,,,,,,,,,,,,,,,,,,,,,,,,,,,,,,,,,,,,,,,,,,,,,,,,,,,,,,,,,,,,,,336.4009800949998,None,5,0.7136591710004723,336.4009800949998,None,336.4009800949998,None,337.1505712140006,None,337.1505712140006,None,337.1505712140006,None,5,0.9640801140003532,337.1505712140006,None,112020,0,1,1,2,0,1,2,0,8,2020_Nov_20_1132,listening_fmri,3.2.4,59.89440257473096,
3,parcelated_audio/24/24_1.ogg,,,,,,,,,0,0,0,0,0,3,3,3,0,0,0,0,,,,,,,,,0,0,0,0,0,0,0,0,,,,,,,,,,,,,,,,,,,,,,,,,,,,,,,,,,,,338.1345355370004,None,5,0.980102686000464,338.1345355370004,None,243.99658979300057,247.00770371700037,247.02014206700005,257.44488499199997,,,,,,,,,,,,,,,,,,,,,,,,,,,,,,,,,,,,,,,,,,,,,,,,,,,,,,,,,,,,,,,112020,0,1,1,2,0,1,2,0,8,2020_Nov_20_1132,listening_fmri,3.2.4,59.89440257473096,
3,parcelated_audio/24/24_2.ogg,,,,,,,,,0,0,0,0,0,3,3,3,0,0,0,0,,,,,,,,,0,0,0,0,0,1,1,1,,,,,,,,,,,,,,,,,,,,,,,,,,,,,,,,,,,,,,,,,,,,257.445155335,263.7576123210001,,,,,,,,,,,,,,,,,,,,,,,,,,,,,,,,,,,,,,,,,,,,,,,,,,,,,,,,,,,,,,,112020,0,1,1,2,0,1,2,0,8,2020_Nov_20_1132,listening_fmri,3.2.4,59.89440257473096,
3,parcelated_audio/24/24_3.ogg,,,,,,,,,0,0,0,0,0,3,3,3,0,0,0,0,,,,,,,,,0,0,0,0,0,2,2,2,,,,,,,,,,,,,,,,,,,,,,,,,,,,,,,,,,,,,,,,,,,,263.75786184500066,275.37161688300057,,,,,,,,,,,,,,,,,,,,,,,,,,,,,,,,,,,,,,,,,,,,,,,,,,,,,,,,,,,,,,,112020,0,1,1,2,0,1,2,0,8,2020_Nov_20_1132,listening_fmri,3.2.4,59.89440257473096,
3,parcelated_audio/24/24_4.ogg,,,,,,,,,0,0,0,0,0,3,3,3,0,0,0,0,,,,,,,,,0,0,0,0,0,3,3,3,,,,,,,,,,,,,,,,,,,,,,,,,,,,,,,,,,,,,,,,,,,,275.37188275600056,282.25698070399994,,,,,,,,,,,,,,,,,,,,,,,,,,,,,,,,,,,,,,,,,,,,,,,,,,,,,,,,,,,,,,,112020,0,1,1,2,0,1,2,0,8,2020_Nov_20_1132,listening_fmri,3.2.4,59.89440257473096,
3,parcelated_audio/24/24_5.ogg,,,,,,,,,0,0,0,0,0,3,3,3,0,0,0,0,,,,,,,,,0,0,0,0,0,4,4,4,,,,,,,,,,,,,,,,,,,,,,,,,,,,,,,,,,,,,,,,,,,,282.2574071300005,287.22998448399994,,,,,,,,,,,,,,,,,,,,,,,,,,,,,,,,,,,,,,,,,,,,,,,,,,,,,,,,,,,,,,,112020,0,1,1,2,0,1,2,0,8,2020_Nov_20_1132,listening_fmri,3.2.4,59.89440257473096,
3,parcelated_audio/24/24_6.ogg,,,,,,,,,0,0,0,0,0,3,3,3,0,0,0,0,,,,,,,,,0,0,0,0,0,5,5,5,,,,,,,,,,,,,,,,,,,,,,,,,,,,,,,,,,,,,,,,,,,,287.23046783300015,294.70676993899997,,,,,,,,,,,,,,,,,,,,,,,,,,,,,,,,,,,,,,,,,,,,,,,,,,,,,,,,,,,,,,,112020,0,1,1,2,0,1,2,0,8,2020_Nov_20_1132,listening_fmri,3.2.4,59.89440257473096,
3,parcelated_audio/24/24_7.ogg,,,,,,,,,0,0,0,0,0,3,3,3,0,0,0,0,,,,,,,,,0,0,0,0,0,6,6,6,,,,,,,,,,,,,,,,,,,,,,,,,,,,,,,,,,,,,,,,,,,,294.7071610110006,299.0953560500002,,,,,,,,,,,,,,,,,,,,,,,,,,,,,,,,,,,,,,,,,,,,,,,,,,,,,,,,,,,,,,,112020,0,1,1,2,0,1,2,0,8,2020_Nov_20_1132,listening_fmri,3.2.4,59.89440257473096,
3,parcelated_audio/24/24_8.ogg,,,,,,,,,0,0,0,0,0,3,3,3,0,0,0,0,,,,,,,,,0,0,0,0,0,7,7,7,,,,,,,,,,,,,,,,,,,,,,,,,,,,,,,,,,,,,,,,,,,,299.09562563500003,305.14069993700014,,,,,,,,,,,,,,,,,,,,,,,,,,,,,,,,,,,,,,,,,,,,,,,,,,,,,,,,,,,,,,,112020,0,1,1,2,0,1,2,0,8,2020_Nov_20_1132,listening_fmri,3.2.4,59.89440257473096,
3,parcelated_audio/24/24_9.ogg,,,,,,,,,0,0,0,0,0,3,3,3,0,0,0,0,,,,,,,,,0,0,0,0,0,8,8,8,,,,,,,,,,,,,,,,,,,,,,,,,,,,,,,,,,,,,,,,,,,,305.14109695000025,309.4801554270007,,,,,,,,,,,,,,,,,,,,,,,,,,,,,,,,,,,,,,,,,,,,,,,,,,,,,,,,,,,,,,,112020,0,1,1,2,0,1,2,0,8,2020_Nov_20_1132,listening_fmri,3.2.4,59.89440257473096,
3,parcelated_audio/24/24_10.ogg,,,,,,,,,0,0,0,0,0,3,3,3,0,0,0,0,,,,,,,,,0,0,0,0,0,9,9,9,,,,,,,,,,,,,,,,,,,,,,,,,,,,,,,,,,,,,,,,,,,,309.4804292810004,313.2242498650003,,,,,,,,,,,,,,,,,,,,,,,,,,,,,,,,,,,,,,,,,,,,,,,,,,,,,,,,,,,,,,,112020,0,1,1,2,0,1,2,0,8,2020_Nov_20_1132,listening_fmri,3.2.4,59.89440257473096,
3,parcelated_audio/24/24_11.ogg,,,,,,,,,0,0,0,0,0,3,3,3,0,0,0,0,,,,,,,,,0,0,0,0,0,10,10,10,,,,,,,,,,,,,,,,,,,,,,,,,,,,,,,,,,,,,,,,,,,,313.22465599000043,323.3390238150005,,,,,,,,,,,,,,,,,,,,,,,,,,,,,,,,,,,,,,,,,,,,,,,,,,,,,,,,,,,,,,,112020,0,1,1,2,0,1,2,0,8,2020_Nov_20_1132,listening_fmri,3.2.4,59.89440257473096,
3,parcelated_audio/24/24_12.ogg,,,,,,,,,0,0,0,0,0,3,3,3,0,0,0,0,,,,,,,,,0,0,0,0,0,11,11,11,,,,,,,,,,,,,,,,,,,,,,,,,,,,,,,,,,,,,,,,,,,,323.34268568600055,332.42148057600025,,,,,,,,,,,,,,,,,,,,,,,,,,,,,,,,,,,,,,,,,,,,,,,,,,,,,,,,,,,,,,,112020,0,1,1,2,0,1,2,0,8,2020_Nov_20_1132,listening_fmri,3.2.4,59.89440257473096,
3,parcelated_audio/24/24_13.ogg,,,,,,,,,0,0,0,0,0,3,3,3,0,0,0,0,,,,,,,,,0,0,0,0,0,12,12,12,,,,,,,,,,,,,,,,,,,,,,,,,,,,,,,,,,,,,,,,,,,,332.4218059650002,336.39122196800054,,,,,,,,,,,,,,,,,,,,,,,,,,,,,,,,,,,,,,,,,,,,,,,,,,,,,,,,,,,,,,,112020,0,1,1,2,0,1,2,0,8,2020_Nov_20_1132,listening_fmri,3.2.4,59.89440257473096,
3,parcelated_audio/24/24_14.ogg,,,,,,,,,0,0,0,0,0,3,3,3,0,0,0,0,,,,,,,,,0,0,0,0,0,13,13,13,,,,,,,,,,,,,,,,,,,,,,,,,,,,,,,,,,,,,,,,,,,,336.3936882349999,343.7704623509999,,,,,,,,,,,,,,,,,,,,,,,,,,,,,,,,,,,,,,,,,,,,,,,,,,,,,,,,,,,,,,,112020,0,1,1,2,0,1,2,0,8,2020_Nov_20_1132,listening_fmri,3.2.4,59.89440257473096,
3,parcelated_audio/24/24_15.ogg,,,,,,,,,0,0,0,0,0,3,3,3,0,0,0,0,,,,,,,,,0,0,0,0,0,14,14,14,,,,,,,,,,,,,,,,,,,,,,,,,,,,,,,,,,,,,,,,,,,,343.77072662000046,350.30897633600034,,,,,,,,,,,,,,,,,,,,,,,,,,,,,,,,,,,,,,,,,,,,,,,,,,,,,,,,,,,,,,,112020,0,1,1,2,0,1,2,0,8,2020_Nov_20_1132,listening_fmri,3.2.4,59.89440257473096,
3,parcelated_audio/24/24_16.ogg,,,,,,,,,0,0,0,0,0,3,3,3,0,0,0,0,,,,,,,,,0,0,0,0,0,15,15,15,,,,,,,,,,,,,,,,,,,,,,,,,,,,,,,,,,,,,,,,,,,,350.30929919200025,357.50402717,,,,,,,,,,,,,,,,,,,,,,,,,,,,,,,,,,,,,,,,,,,,,,,,,,,,,,,,,,,,,,,112020,0,1,1,2,0,1,2,0,8,2020_Nov_20_1132,listening_fmri,3.2.4,59.89440257473096,
3,parcelated_audio/24/24_17.ogg,,,,,,,,,0,0,0,0,0,3,3,3,0,0,0,0,,,,,,,,,0,0,0,0,0,16,16,16,,,,,,,,,,,,,,,,,,,,,,,,,,,,,,,,,,,,,,,,,,,,357.5044279800004,363.4980179670001,,,,,,,,,,,,,,,,,,,,,,,,,,,,,,,,,,,,,,,,,,,,,,,,,,,,,,,,,,,,,,,112020,0,1,1,2,0,1,2,0,8,2020_Nov_20_1132,listening_fmri,3.2.4,59.89440257473096,
3,parcelated_audio/24/24_18.ogg,,,,,,,,,0,0,0,0,0,3,3,3,0,0,0,0,,,,,,,,,0,0,0,0,0,17,17,17,,,,,,,,,,,,,,,,,,,,,,,,,,,,,,,,,,,,,,,,,,,,363.49828862100003,371.96580220800024,,,,,,,,,,,,,,,,,,,,,,,,,,,,,,,,,,,,,,,,,,,,,,,,,,,,,,,,,,,,,,,112020,0,1,1,2,0,1,2,0,8,2020_Nov_20_1132,listening_fmri,3.2.4,59.89440257473096,
3,parcelated_audio/24/24_19.ogg,,,,,,,,,0,0,0,0,0,3,3,3,0,0,0,0,,,,,,,,,0,0,0,0,0,18,18,18,,,,,,,,,,,,,,,,,,,,,,,,,,,,,,,,,,,,,,,,,,,,371.9663148310001,381.60766526800035,,,,,,,,,,,,,,,,,,,,,,,,,,,,,,,,,,,,,,,,,,,,,,,,,,,,,,,,,,,,,,,112020,0,1,1,2,0,1,2,0,8,2020_Nov_20_1132,listening_fmri,3.2.4,59.89440257473096,
3,parcelated_audio/24/24_20.ogg,,,,,,,,,0,0,0,0,0,3,3,3,0,0,0,0,,,,,,,,,0,0,0,0,0,19,19,19,,,,,,,,,,,,,,,,,,,,,,,,,,,,,,,,,,,,,,,,,,,,381.60843075699995,386.0633489210004,,,,,,,,,,,,,,,,,,,,,,,,,,,,,,,,,,,,,,,,,,,,,,,,,,,,,,,,,,,,,,,112020,0,1,1,2,0,1,2,0,8,2020_Nov_20_1132,listening_fmri,3.2.4,59.89440257473096,
3,parcelated_audio/24/24_21.ogg,,,,,,,,,0,0,0,0,0,3,3,3,0,0,0,0,,,,,,,,,0,0,0,0,0,20,20,20,,,,,,,,,,,,,,,,,,,,,,,,,,,,,,,,,,,,,,,,,,,,386.06364381599997,394.0887125019999,,,,,,,,,,,,,,,,,,,,,,,,,,,,,,,,,,,,,,,,,,,,,,,,,,,,,,,,,,,,,,,112020,0,1,1,2,0,1,2,0,8,2020_Nov_20_1132,listening_fmri,3.2.4,59.89440257473096,
3,parcelated_audio/24/24_22.ogg,,,,,,,,,0,0,0,0,0,3,3,3,0,0,0,0,,,,,,,,,0,0,0,0,0,21,21,21,,,,,,,,,,,,,,,,,,,,,,,,,,,,,,,,,,,,,,,,,,,,394.0890852500006,404.5825330080006,,,,,,,,,,,,,,,,,,,,,,,,,,,,,,,,,,,,,,,,,,,,,,,,,,,,,,,,,,,,,,,112020,0,1,1,2,0,1,2,0,8,2020_Nov_20_1132,listening_fmri,3.2.4,59.89440257473096,
3,parcelated_audio/24/24_23.ogg,,,,,,,,,0,0,0,0,0,3,3,3,0,0,0,0,,,,,,,,,0,0,0,0,0,22,22,22,,,,,,,,,,,,,,,,,,,,,,,,,,,,,,,,,,,,,,,,,,,,404.58280109099996,414.7986330620006,,,,,,,,,,,,,,,,,,,,,,,,,,,,,,,,,,,,,,,,,,,,,,,,,,,,,,,,,,,,,,,112020,0,1,1,2,0,1,2,0,8,2020_Nov_20_1132,listening_fmri,3.2.4,59.89440257473096,
3,parcelated_audio/24/24_24.ogg,,,,,,,,,0,0,0,0,0,3,3,3,0,0,0,0,,,,,,,,,0,0,0,0,0,23,23,23,,,,,,,,,,,,,,,,,,,,,,,,,,,,,,,,,,,,,,,,,,,,414.79889900299986,421.36637394900026,,,,,,,,,,,,,,,,,,,,,,,,,,,,,,,,,,,,,,,,,,,,,,,,,,,,,,,,,,,,,,,112020,0,1,1,2,0,1,2,0,8,2020_Nov_20_1132,listening_fmri,3.2.4,59.89440257473096,
3,parcelated_audio/24/24_25.ogg,,,,,,,,,0,0,0,0,0,3,3,3,0,0,0,0,,,,,,,,,0,0,0,0,0,24,24,24,,,,,,,,,,,,,,,,,,,,,,,,,,,,,,,,,,,,,,,,,,,,421.366809999,430.1148402130002,,,,,,,,,,,,,,,,,,,,,,,,,,,,,,,,,,,,,,,,,,,,,,,,,,,,,,,,,,,,,,,112020,0,1,1,2,0,1,2,0,8,2020_Nov_20_1132,listening_fmri,3.2.4,59.89440257473096,
3,parcelated_audio/24/24_26.ogg,,,,,,,,,0,0,0,0,0,3,3,3,0,0,0,0,,,,,,,,,0,0,0,0,0,25,25,25,,,,,,,,,,,,,,,,,,,,,,,,,,,,,,,,,,,,,,,,,,,,430.1151974280001,436.6858754120003,,,,,,,,,,,,,,,,,,,,,,,,,,,,,,,,,,,,,,,,,,,,,,,,,,,,,,,,,,,,,,,112020,0,1,1,2,0,1,2,0,8,2020_Nov_20_1132,listening_fmri,3.2.4,59.89440257473096,
3,parcelated_audio/24/24_27.ogg,,,,,,,,,0,0,0,0,0,3,3,3,0,0,0,0,,,,,,,,,0,0,0,0,0,26,26,26,,,,,,,,,,,,,,,,,,,,,,,,,,,,,,,,,,,,,,,,,,,,436.6861464929998,442.763348036,,,,,,,,,,,,,,,,,,,,,,,,,,,,,,,,,,,,,,,,,,,,,,,,,,,,,,,,,,,,,,,112020,0,1,1,2,0,1,2,0,8,2020_Nov_20_1132,listening_fmri,3.2.4,59.89440257473096,
3,parcelated_audio/24/24_28.ogg,,,,,,,,,0,0,0,0,0,3,3,3,0,0,0,0,,,,,,,,,0,0,0,0,0,27,27,27,,,,,,,,,,,,,,,,,,,,,,,,,,,,,,,,,,,,,,,,,,,,442.7636993410006,447.28132843500043,,,,,,,,,,,,,,,,,,,,,,,,,,,,,,,,,,,,,,,,,,,,,,,,,,,,,,,,,,,,,,,112020,0,1,1,2,0,1,2,0,8,2020_Nov_20_1132,listening_fmri,3.2.4,59.89440257473096,
3,parcelated_audio/24/24_29.ogg,,,,,,,,,0,0,0,0,0,3,3,3,0,0,0,0,,,,,,,,,0,0,0,0,0,28,28,28,,,,,,,,,,,,,,,,,,,,,,,,,,,,,,,,,,,,,,,,,,,,447.2815917930002,453.5704552750003,,,,,,,,,,,,,,,,,,,,,,,,,,,,,,,,,,,,,,,,,,,,,,,,,,,,,,,,,,,,,,,112020,0,1,1,2,0,1,2,0,8,2020_Nov_20_1132,listening_fmri,3.2.4,59.89440257473096,
3,parcelated_audio/24/24_30.ogg,,,,,,,,,0,0,0,0,0,3,3,3,0,0,0,0,,,,,,,,,0,0,0,0,0,29,29,29,,,,,,,,,,,,,,,,,,,,,,,,,,,,,,,,,,,,,,,,,,,,453.5707210239998,459.81623793000017,,,,,,,,,,,,,,,,,,,,,,,,,,,,,,,,,,,,,,,,,,,,,,,,,,,,,,,,,,,,,,,112020,0,1,1,2,0,1,2,0,8,2020_Nov_20_1132,listening_fmri,3.2.4,59.89440257473096,
3,parcelated_audio/24/24_31.ogg,,,,,,,,,0,0,0,0,0,3,3,3,0,0,0,0,,,,,,,,,0,0,0,0,0,30,30,30,,,,,,,,,,,,,,,,,,,,,,,,,,,,,,,,,,,,,,,,,,,,459.8165566880007,466.4800487749999,,,,,,,,,,,,,,,,,,,,,,,,,,,,,,,,,,,,,,,,,,,,,,,,,,,,,,,,,,,,,,,112020,0,1,1,2,0,1,2,0,8,2020_Nov_20_1132,listening_fmri,3.2.4,59.89440257473096,
3,parcelated_audio/24/24_32.ogg,,,,,,,,,0,0,0,0,0,3,3,3,0,0,0,0,,,,,,,,,0,0,0,0,0,31,31,31,,,,,,,,,,,,,,,,,,,,,,,,,,,,,,,,,,,,,,,,,,,,466.4805978020004,477.2743518699999,,,,,,,,,,,,,,,,,,,,,,,,,,,,,,,,,,,,,,,,,,,,,,,,,,,,,,,,,,,,,,,112020,0,1,1,2,0,1,2,0,8,2020_Nov_20_1132,listening_fmri,3.2.4,59.89440257473096,
3,,,,,,,,,,0,0,0,0,0,3,3,3,0,0,0,0,,,,,,,,,0,0,0,0,,,,,,,,,,,,,,,,,,,,,,,,,,,,,,,,,,,,,,,,,,,,,,,,,,,,,,,,,,,,,,,,,,,,,,,,,,,,,,,,,,,,,,,,,,,,,,,,,,,,,,,,,,,,,,,,112020,0,1,1,2,0,1,2,0,8,2020_Nov_20_1132,listening_fmri,3.2.4,59.89440257473096,
3,,,,,,,,,,0,0,0,0,0,3,3,3,0,0,0,0,,,,,,,,,,,,,,,,,,,,,,,,,,,,,,,,,,,,,,477.27472438899986,483.27426130300046,572.4178053220003,None,,,,,,,,,,,,,,,,,,,,,578.4175331300003,None,578.4175331300003,None,,,,,,,,,,,,,,,,,,,,,,,,,,,,,,,,,,,,,,,,,,,,,,,,,,,,,,,,,,,112020,0,1,1,2,0,1,2,0,8,2020_Nov_20_1132,listening_fmri,3.2.4,59.89440257473096,
3,,,,,,,,,,0,0,0,0,0,3,3,3,,,,,,,,,,,,,,,,,,,,,,,,,,,,,,,,,,,,,,,,,,,,,,,,,,,,,,,,,,,,,,,,,,,,,,,,,,,,,,,,,,,,,,,,,,,,,,,,,,,,,,,,,,,,,,,,,,,,,,,,,,,,,,,,112020,0,1,1,2,0,1,2,0,8,2020_Nov_20_1132,listening_fmri,3.2.4,59.89440257473096,
4,,,,,,,,,,0,0,0,0,0,4,4,4,0,0,0,0,0,0,0,0,,,,,,,,,,,,,,,,,0,0,0,0,,,,,,,,,,,,,,,,,,579.4340404029999,None,579.4340404029999,None,5,0.6786245949997465,579.4340404029999,None,579.4340404029999,None,,,,,,,,,,,,,,,580.1339464399998,None,5,0.9787227429997074,580.1339464399998,None,580.1339464399998,None,581.1509744900004,None,581.1509744900004,None,581.1509744900004,None,5,0.9614984179997919,581.1509744900004,None,582.1342140780007,None,5,0.9783981360005782,582.1342140780007,None,582.1342140780007,None,583.2176092890004,None,583.2176092890004,None,583.2176092890004,None,583.2176092890004,None,583.2176092890004,None,583.2176092890004,None,583.2176092890004,None,,,,,,,,,,,,,,,,,,,112020,0,1,1,2,0,1,2,0,8,2020_Nov_20_1132,listening_fmri,3.2.4,59.89440257473096,
4,,,,,,,,,,0,0,0,0,0,4,4,4,0,0,0,0,0,0,0,0,,,,,,,,,,,,,,,,,,,,,,,,,,,,,,,,,,,,,,,,,,,,,,,,,,,,,,,,,,,,,,,,,,,,,,,,,,,,,,,,,,,,,,,,,,,,,,,,,,,,,,606.9677879190003,None,5,0.1448673510003573,606.9677879190003,None,606.9677879190003,None,607.1516817380007,None,607.1516817380007,None,607.1516817380007,None,5,0.9609814430004917,607.1516817380007,None,112020,0,1,1,2,0,1,2,0,8,2020_Nov_20_1132,listening_fmri,3.2.4,59.89440257473096,
4,parcelated_audio/11/11_1.ogg,,,,,,,,,0,0,0,0,0,4,4,4,0,0,0,0,,,,,,,,,0,0,0,0,0,0,0,0,,,,,,,,,,,,,,,,,,,,,,,,,,,,,,,,,,,,608.134096103,None,5,0.9785486270002366,608.134096103,None,514.014758364,517.0244112480004,517.0296825160003,529.0227586450001,,,,,,,,,,,,,,,,,,,,,,,,,,,,,,,,,,,,,,,,,,,,,,,,,,,,,,,,,,,,,,,112020,0,1,1,2,0,1,2,0,8,2020_Nov_20_1132,listening_fmri,3.2.4,59.89440257473096,
4,parcelated_audio/11/11_2.ogg,,,,,,,,,0,0,0,0,0,4,4,4,0,0,0,0,,,,,,,,,0,0,0,0,0,1,1,1,,,,,,,,,,,,,,,,,,,,,,,,,,,,,,,,,,,,,,,,,,,,529.0230216750006,533.4987492190003,,,,,,,,,,,,,,,,,,,,,,,,,,,,,,,,,,,,,,,,,,,,,,,,,,,,,,,,,,,,,,,112020,0,1,1,2,0,1,2,0,8,2020_Nov_20_1132,listening_fmri,3.2.4,59.89440257473096,
4,parcelated_audio/11/11_3.ogg,,,,,,,,,0,0,0,0,0,4,4,4,0,0,0,0,,,,,,,,,0,0,0,0,0,2,2,2,,,,,,,,,,,,,,,,,,,,,,,,,,,,,,,,,,,,,,,,,,,,533.499078502,538.4998833990003,,,,,,,,,,,,,,,,,,,,,,,,,,,,,,,,,,,,,,,,,,,,,,,,,,,,,,,,,,,,,,,112020,0,1,1,2,0,1,2,0,8,2020_Nov_20_1132,listening_fmri,3.2.4,59.89440257473096,
4,parcelated_audio/11/11_4.ogg,,,,,,,,,0,0,0,0,0,4,4,4,0,0,0,0,,,,,,,,,0,0,0,0,0,3,3,3,,,,,,,,,,,,,,,,,,,,,,,,,,,,,,,,,,,,,,,,,,,,538.5001538590004,547.6039131200005,,,,,,,,,,,,,,,,,,,,,,,,,,,,,,,,,,,,,,,,,,,,,,,,,,,,,,,,,,,,,,,112020,0,1,1,2,0,1,2,0,8,2020_Nov_20_1132,listening_fmri,3.2.4,59.89440257473096,
4,parcelated_audio/11/11_5.ogg,,,,,,,,,0,0,0,0,0,4,4,4,0,0,0,0,,,,,,,,,0,0,0,0,0,4,4,4,,,,,,,,,,,,,,,,,,,,,,,,,,,,,,,,,,,,,,,,,,,,547.6042892300002,553.3448812410006,,,,,,,,,,,,,,,,,,,,,,,,,,,,,,,,,,,,,,,,,,,,,,,,,,,,,,,,,,,,,,,112020,0,1,1,2,0,1,2,0,8,2020_Nov_20_1132,listening_fmri,3.2.4,59.89440257473096,
4,parcelated_audio/11/11_6.ogg,,,,,,,,,0,0,0,0,0,4,4,4,0,0,0,0,,,,,,,,,0,0,0,0,0,5,5,5,,,,,,,,,,,,,,,,,,,,,,,,,,,,,,,,,,,,,,,,,,,,553.3468387450002,557.9580741870004,,,,,,,,,,,,,,,,,,,,,,,,,,,,,,,,,,,,,,,,,,,,,,,,,,,,,,,,,,,,,,,112020,0,1,1,2,0,1,2,0,8,2020_Nov_20_1132,listening_fmri,3.2.4,59.89440257473096,
4,parcelated_audio/11/11_7.ogg,,,,,,,,,0,0,0,0,0,4,4,4,0,0,0,0,,,,,,,,,0,0,0,0,0,6,6,6,,,,,,,,,,,,,,,,,,,,,,,,,,,,,,,,,,,,,,,,,,,,557.9583244089999,564.5029244349998,,,,,,,,,,,,,,,,,,,,,,,,,,,,,,,,,,,,,,,,,,,,,,,,,,,,,,,,,,,,,,,112020,0,1,1,2,0,1,2,0,8,2020_Nov_20_1132,listening_fmri,3.2.4,59.89440257473096,
4,parcelated_audio/11/11_8.ogg,,,,,,,,,0,0,0,0,0,4,4,4,0,0,0,0,,,,,,,,,0,0,0,0,0,7,7,7,,,,,,,,,,,,,,,,,,,,,,,,,,,,,,,,,,,,,,,,,,,,564.5031926620004,570.2830795810005,,,,,,,,,,,,,,,,,,,,,,,,,,,,,,,,,,,,,,,,,,,,,,,,,,,,,,,,,,,,,,,112020,0,1,1,2,0,1,2,0,8,2020_Nov_20_1132,listening_fmri,3.2.4,59.89440257473096,
4,parcelated_audio/11/11_9.ogg,,,,,,,,,0,0,0,0,0,4,4,4,0,0,0,0,,,,,,,,,0,0,0,0,0,8,8,8,,,,,,,,,,,,,,,,,,,,,,,,,,,,,,,,,,,,,,,,,,,,570.2833442090005,574.5814494169999,,,,,,,,,,,,,,,,,,,,,,,,,,,,,,,,,,,,,,,,,,,,,,,,,,,,,,,,,,,,,,,112020,0,1,1,2,0,1,2,0,8,2020_Nov_20_1132,listening_fmri,3.2.4,59.89440257473096,
4,parcelated_audio/11/11_10.ogg,,,,,,,,,0,0,0,0,0,4,4,4,0,0,0,0,,,,,,,,,0,0,0,0,0,9,9,9,,,,,,,,,,,,,,,,,,,,,,,,,,,,,,,,,,,,,,,,,,,,574.5817582270001,579.1676158750006,,,,,,,,,,,,,,,,,,,,,,,,,,,,,,,,,,,,,,,,,,,,,,,,,,,,,,,,,,,,,,,112020,0,1,1,2,0,1,2,0,8,2020_Nov_20_1132,listening_fmri,3.2.4,59.89440257473096,
4,parcelated_audio/11/11_11.ogg,,,,,,,,,0,0,0,0,0,4,4,4,0,0,0,0,,,,,,,,,0,0,0,0,0,10,10,10,,,,,,,,,,,,,,,,,,,,,,,,,,,,,,,,,,,,,,,,,,,,579.1680021020002,582.3528736200005,,,,,,,,,,,,,,,,,,,,,,,,,,,,,,,,,,,,,,,,,,,,,,,,,,,,,,,,,,,,,,,112020,0,1,1,2,0,1,2,0,8,2020_Nov_20_1132,listening_fmri,3.2.4,59.89440257473096,
4,parcelated_audio/11/11_12.ogg,,,,,,,,,0,0,0,0,0,4,4,4,0,0,0,0,,,,,,,,,0,0,0,0,0,11,11,11,,,,,,,,,,,,,,,,,,,,,,,,,,,,,,,,,,,,,,,,,,,,582.3531355690002,585.1787913070002,,,,,,,,,,,,,,,,,,,,,,,,,,,,,,,,,,,,,,,,,,,,,,,,,,,,,,,,,,,,,,,112020,0,1,1,2,0,1,2,0,8,2020_Nov_20_1132,listening_fmri,3.2.4,59.89440257473096,
4,parcelated_audio/11/11_13.ogg,,,,,,,,,0,0,0,0,0,4,4,4,0,0,0,0,,,,,,,,,0,0,0,0,0,12,12,12,,,,,,,,,,,,,,,,,,,,,,,,,,,,,,,,,,,,,,,,,,,,585.1790599430005,588.4862017639998,,,,,,,,,,,,,,,,,,,,,,,,,,,,,,,,,,,,,,,,,,,,,,,,,,,,,,,,,,,,,,,112020,0,1,1,2,0,1,2,0,8,2020_Nov_20_1132,listening_fmri,3.2.4,59.89440257473096,
4,parcelated_audio/11/11_14.ogg,,,,,,,,,0,0,0,0,0,4,4,4,0,0,0,0,,,,,,,,,0,0,0,0,0,13,13,13,,,,,,,,,,,,,,,,,,,,,,,,,,,,,,,,,,,,,,,,,,,,588.4865502050006,591.1840133559999,,,,,,,,,,,,,,,,,,,,,,,,,,,,,,,,,,,,,,,,,,,,,,,,,,,,,,,,,,,,,,,112020,0,1,1,2,0,1,2,0,8,2020_Nov_20_1132,listening_fmri,3.2.4,59.89440257473096,
4,parcelated_audio/11/11_15.ogg,,,,,,,,,0,0,0,0,0,4,4,4,0,0,0,0,,,,,,,,,0,0,0,0,0,14,14,14,,,,,,,,,,,,,,,,,,,,,,,,,,,,,,,,,,,,,,,,,,,,591.1842815549999,602.3852743830003,,,,,,,,,,,,,,,,,,,,,,,,,,,,,,,,,,,,,,,,,,,,,,,,,,,,,,,,,,,,,,,112020,0,1,1,2,0,1,2,0,8,2020_Nov_20_1132,listening_fmri,3.2.4,59.89440257473096,
4,parcelated_audio/11/11_16.ogg,,,,,,,,,0,0,0,0,0,4,4,4,0,0,0,0,,,,,,,,,0,0,0,0,0,15,15,15,,,,,,,,,,,,,,,,,,,,,,,,,,,,,,,,,,,,,,,,,,,,602.3855146770002,605.3809960570006,,,,,,,,,,,,,,,,,,,,,,,,,,,,,,,,,,,,,,,,,,,,,,,,,,,,,,,,,,,,,,,112020,0,1,1,2,0,1,2,0,8,2020_Nov_20_1132,listening_fmri,3.2.4,59.89440257473096,
4,parcelated_audio/11/11_17.ogg,,,,,,,,,0,0,0,0,0,4,4,4,0,0,0,0,,,,,,,,,0,0,0,0,0,16,16,16,,,,,,,,,,,,,,,,,,,,,,,,,,,,,,,,,,,,,,,,,,,,605.3813443320005,612.3677928820007,,,,,,,,,,,,,,,,,,,,,,,,,,,,,,,,,,,,,,,,,,,,,,,,,,,,,,,,,,,,,,,112020,0,1,1,2,0,1,2,0,8,2020_Nov_20_1132,listening_fmri,3.2.4,59.89440257473096,
4,parcelated_audio/11/11_18.ogg,,,,,,,,,0,0,0,0,0,4,4,4,0,0,0,0,,,,,,,,,0,0,0,0,0,17,17,17,,,,,,,,,,,,,,,,,,,,,,,,,,,,,,,,,,,,,,,,,,,,612.3681415830006,619.8662940499999,,,,,,,,,,,,,,,,,,,,,,,,,,,,,,,,,,,,,,,,,,,,,,,,,,,,,,,,,,,,,,,112020,0,1,1,2,0,1,2,0,8,2020_Nov_20_1132,listening_fmri,3.2.4,59.89440257473096,
4,parcelated_audio/11/11_19.ogg,,,,,,,,,0,0,0,0,0,4,4,4,0,0,0,0,,,,,,,,,0,0,0,0,0,18,18,18,,,,,,,,,,,,,,,,,,,,,,,,,,,,,,,,,,,,,,,,,,,,619.8665582740005,624.4481441490007,,,,,,,,,,,,,,,,,,,,,,,,,,,,,,,,,,,,,,,,,,,,,,,,,,,,,,,,,,,,,,,112020,0,1,1,2,0,1,2,0,8,2020_Nov_20_1132,listening_fmri,3.2.4,59.89440257473096,
4,parcelated_audio/11/11_20.ogg,,,,,,,,,0,0,0,0,0,4,4,4,0,0,0,0,,,,,,,,,0,0,0,0,0,19,19,19,,,,,,,,,,,,,,,,,,,,,,,,,,,,,,,,,,,,,,,,,,,,624.4484116250005,629.3833781889998,,,,,,,,,,,,,,,,,,,,,,,,,,,,,,,,,,,,,,,,,,,,,,,,,,,,,,,,,,,,,,,112020,0,1,1,2,0,1,2,0,8,2020_Nov_20_1132,listening_fmri,3.2.4,59.89440257473096,
4,parcelated_audio/11/11_21.ogg,,,,,,,,,0,0,0,0,0,4,4,4,0,0,0,0,,,,,,,,,0,0,0,0,0,20,20,20,,,,,,,,,,,,,,,,,,,,,,,,,,,,,,,,,,,,,,,,,,,,629.3837010390007,638.1523617120001,,,,,,,,,,,,,,,,,,,,,,,,,,,,,,,,,,,,,,,,,,,,,,,,,,,,,,,,,,,,,,,112020,0,1,1,2,0,1,2,0,8,2020_Nov_20_1132,listening_fmri,3.2.4,59.89440257473096,
4,parcelated_audio/11/11_22.ogg,,,,,,,,,0,0,0,0,0,4,4,4,0,0,0,0,,,,,,,,,0,0,0,0,0,21,21,21,,,,,,,,,,,,,,,,,,,,,,,,,,,,,,,,,,,,,,,,,,,,638.1526413470001,641.4521954689999,,,,,,,,,,,,,,,,,,,,,,,,,,,,,,,,,,,,,,,,,,,,,,,,,,,,,,,,,,,,,,,112020,0,1,1,2,0,1,2,0,8,2020_Nov_20_1132,listening_fmri,3.2.4,59.89440257473096,
4,parcelated_audio/11/11_23.ogg,,,,,,,,,0,0,0,0,0,4,4,4,0,0,0,0,,,,,,,,,0,0,0,0,0,22,22,22,,,,,,,,,,,,,,,,,,,,,,,,,,,,,,,,,,,,,,,,,,,,641.4524420550006,646.2229406530005,,,,,,,,,,,,,,,,,,,,,,,,,,,,,,,,,,,,,,,,,,,,,,,,,,,,,,,,,,,,,,,112020,0,1,1,2,0,1,2,0,8,2020_Nov_20_1132,listening_fmri,3.2.4,59.89440257473096,
4,parcelated_audio/11/11_24.ogg,,,,,,,,,0,0,0,0,0,4,4,4,0,0,0,0,,,,,,,,,0,0,0,0,0,23,23,23,,,,,,,,,,,,,,,,,,,,,,,,,,,,,,,,,,,,,,,,,,,,646.2232039950004,649.8468022440002,,,,,,,,,,,,,,,,,,,,,,,,,,,,,,,,,,,,,,,,,,,,,,,,,,,,,,,,,,,,,,,112020,0,1,1,2,0,1,2,0,8,2020_Nov_20_1132,listening_fmri,3.2.4,59.89440257473096,
4,parcelated_audio/11/11_25.ogg,,,,,,,,,0,0,0,0,0,4,4,4,0,0,0,0,,,,,,,,,0,0,0,0,0,24,24,24,,,,,,,,,,,,,,,,,,,,,,,,,,,,,,,,,,,,,,,,,,,,649.8471146310003,654.5828779390004,,,,,,,,,,,,,,,,,,,,,,,,,,,,,,,,,,,,,,,,,,,,,,,,,,,,,,,,,,,,,,,112020,0,1,1,2,0,1,2,0,8,2020_Nov_20_1132,listening_fmri,3.2.4,59.89440257473096,
4,parcelated_audio/11/11_26.ogg,,,,,,,,,0,0,0,0,0,4,4,4,0,0,0,0,,,,,,,,,0,0,0,0,0,25,25,25,,,,,,,,,,,,,,,,,,,,,,,,,,,,,,,,,,,,,,,,,,,,654.5831911370005,659.5853529000005,,,,,,,,,,,,,,,,,,,,,,,,,,,,,,,,,,,,,,,,,,,,,,,,,,,,,,,,,,,,,,,112020,0,1,1,2,0,1,2,0,8,2020_Nov_20_1132,listening_fmri,3.2.4,59.89440257473096,
4,parcelated_audio/11/11_27.ogg,,,,,,,,,0,0,0,0,0,4,4,4,0,0,0,0,,,,,,,,,0,0,0,0,0,26,26,26,,,,,,,,,,,,,,,,,,,,,,,,,,,,,,,,,,,,,,,,,,,,659.5857802569999,663.5505601260002,,,,,,,,,,,,,,,,,,,,,,,,,,,,,,,,,,,,,,,,,,,,,,,,,,,,,,,,,,,,,,,112020,0,1,1,2,0,1,2,0,8,2020_Nov_20_1132,listening_fmri,3.2.4,59.89440257473096,
4,parcelated_audio/11/11_28.ogg,,,,,,,,,0,0,0,0,0,4,4,4,0,0,0,0,,,,,,,,,0,0,0,0,0,27,27,27,,,,,,,,,,,,,,,,,,,,,,,,,,,,,,,,,,,,,,,,,,,,663.550834652,666.9558253929999,,,,,,,,,,,,,,,,,,,,,,,,,,,,,,,,,,,,,,,,,,,,,,,,,,,,,,,,,,,,,,,112020,0,1,1,2,0,1,2,0,8,2020_Nov_20_1132,listening_fmri,3.2.4,59.89440257473096,
4,parcelated_audio/11/11_29.ogg,,,,,,,,,0,0,0,0,0,4,4,4,0,0,0,0,,,,,,,,,0,0,0,0,0,28,28,28,,,,,,,,,,,,,,,,,,,,,,,,,,,,,,,,,,,,,,,,,,,,666.9561986640001,671.1387088410002,,,,,,,,,,,,,,,,,,,,,,,,,,,,,,,,,,,,,,,,,,,,,,,,,,,,,,,,,,,,,,,112020,0,1,1,2,0,1,2,0,8,2020_Nov_20_1132,listening_fmri,3.2.4,59.89440257473096,
4,parcelated_audio/11/11_30.ogg,,,,,,,,,0,0,0,0,0,4,4,4,0,0,0,0,,,,,,,,,0,0,0,0,0,29,29,29,,,,,,,,,,,,,,,,,,,,,,,,,,,,,,,,,,,,,,,,,,,,671.1391325969998,675.6525670430001,,,,,,,,,,,,,,,,,,,,,,,,,,,,,,,,,,,,,,,,,,,,,,,,,,,,,,,,,,,,,,,112020,0,1,1,2,0,1,2,0,8,2020_Nov_20_1132,listening_fmri,3.2.4,59.89440257473096,
4,parcelated_audio/11/11_31.ogg,,,,,,,,,0,0,0,0,0,4,4,4,0,0,0,0,,,,,,,,,0,0,0,0,0,30,30,30,,,,,,,,,,,,,,,,,,,,,,,,,,,,,,,,,,,,,,,,,,,,675.6528347980002,680.5103123230001,,,,,,,,,,,,,,,,,,,,,,,,,,,,,,,,,,,,,,,,,,,,,,,,,,,,,,,,,,,,,,,112020,0,1,1,2,0,1,2,0,8,2020_Nov_20_1132,listening_fmri,3.2.4,59.89440257473096,
4,parcelated_audio/11/11_32.ogg,,,,,,,,,0,0,0,0,0,4,4,4,0,0,0,0,,,,,,,,,0,0,0,0,0,31,31,31,,,,,,,,,,,,,,,,,,,,,,,,,,,,,,,,,,,,,,,,,,,,680.5115428240006,684.5844964990001,,,,,,,,,,,,,,,,,,,,,,,,,,,,,,,,,,,,,,,,,,,,,,,,,,,,,,,,,,,,,,,112020,0,1,1,2,0,1,2,0,8,2020_Nov_20_1132,listening_fmri,3.2.4,59.89440257473096,
4,parcelated_audio/11/11_33.ogg,,,,,,,,,0,0,0,0,0,4,4,4,0,0,0,0,,,,,,,,,0,0,0,0,0,32,32,32,,,,,,,,,,,,,,,,,,,,,,,,,,,,,,,,,,,,,,,,,,,,684.5847724860005,687.1046281970002,,,,,,,,,,,,,,,,,,,,,,,,,,,,,,,,,,,,,,,,,,,,,,,,,,,,,,,,,,,,,,,112020,0,1,1,2,0,1,2,0,8,2020_Nov_20_1132,listening_fmri,3.2.4,59.89440257473096,
4,parcelated_audio/11/11_34.ogg,,,,,,,,,0,0,0,0,0,4,4,4,0,0,0,0,,,,,,,,,0,0,0,0,0,33,33,33,,,,,,,,,,,,,,,,,,,,,,,,,,,,,,,,,,,,,,,,,,,,687.1048995910005,690.4195001890002,,,,,,,,,,,,,,,,,,,,,,,,,,,,,,,,,,,,,,,,,,,,,,,,,,,,,,,,,,,,,,,112020,0,1,1,2,0,1,2,0,8,2020_Nov_20_1132,listening_fmri,3.2.4,59.89440257473096,
4,parcelated_audio/11/11_35.ogg,,,,,,,,,0,0,0,0,0,4,4,4,0,0,0,0,,,,,,,,,0,0,0,0,0,34,34,34,,,,,,,,,,,,,,,,,,,,,,,,,,,,,,,,,,,,,,,,,,,,690.4199164080001,694.7900027249998,,,,,,,,,,,,,,,,,,,,,,,,,,,,,,,,,,,,,,,,,,,,,,,,,,,,,,,,,,,,,,,112020,0,1,1,2,0,1,2,0,8,2020_Nov_20_1132,listening_fmri,3.2.4,59.89440257473096,
4,parcelated_audio/11/11_36.ogg,,,,,,,,,0,0,0,0,0,4,4,4,0,0,0,0,,,,,,,,,0,0,0,0,0,35,35,35,,,,,,,,,,,,,,,,,,,,,,,,,,,,,,,,,,,,,,,,,,,,694.7902747779999,703.8071004170006,,,,,,,,,,,,,,,,,,,,,,,,,,,,,,,,,,,,,,,,,,,,,,,,,,,,,,,,,,,,,,,112020,0,1,1,2,0,1,2,0,8,2020_Nov_20_1132,listening_fmri,3.2.4,59.89440257473096,
4,parcelated_audio/11/11_37.ogg,,,,,,,,,0,0,0,0,0,4,4,4,0,0,0,0,,,,,,,,,0,0,0,0,0,36,36,36,,,,,,,,,,,,,,,,,,,,,,,,,,,,,,,,,,,,,,,,,,,,703.8073463999999,707.9880548820001,,,,,,,,,,,,,,,,,,,,,,,,,,,,,,,,,,,,,,,,,,,,,,,,,,,,,,,,,,,,,,,112020,0,1,1,2,0,1,2,0,8,2020_Nov_20_1132,listening_fmri,3.2.4,59.89440257473096,
4,parcelated_audio/11/11_38.ogg,,,,,,,,,0,0,0,0,0,4,4,4,0,0,0,0,,,,,,,,,0,0,0,0,0,37,37,37,,,,,,,,,,,,,,,,,,,,,,,,,,,,,,,,,,,,,,,,,,,,707.9883018050004,714.1403942630004,,,,,,,,,,,,,,,,,,,,,,,,,,,,,,,,,,,,,,,,,,,,,,,,,,,,,,,,,,,,,,,112020,0,1,1,2,0,1,2,0,8,2020_Nov_20_1132,listening_fmri,3.2.4,59.89440257473096,
4,parcelated_audio/11/11_39.ogg,,,,,,,,,0,0,0,0,0,4,4,4,0,0,0,0,,,,,,,,,0,0,0,0,0,38,38,38,,,,,,,,,,,,,,,,,,,,,,,,,,,,,,,,,,,,,,,,,,,,714.1406521230001,719.3309579460001,,,,,,,,,,,,,,,,,,,,,,,,,,,,,,,,,,,,,,,,,,,,,,,,,,,,,,,,,,,,,,,112020,0,1,1,2,0,1,2,0,8,2020_Nov_20_1132,listening_fmri,3.2.4,59.89440257473096,
4,parcelated_audio/11/11_40.ogg,,,,,,,,,0,0,0,0,0,4,4,4,0,0,0,0,,,,,,,,,0,0,0,0,0,39,39,39,,,,,,,,,,,,,,,,,,,,,,,,,,,,,,,,,,,,,,,,,,,,719.3313074400003,724.9927981810006,,,,,,,,,,,,,,,,,,,,,,,,,,,,,,,,,,,,,,,,,,,,,,,,,,,,,,,,,,,,,,,112020,0,1,1,2,0,1,2,0,8,2020_Nov_20_1132,listening_fmri,3.2.4,59.89440257473096,
4,parcelated_audio/11/11_41.ogg,,,,,,,,,0,0,0,0,0,4,4,4,0,0,0,0,,,,,,,,,0,0,0,0,0,40,40,40,,,,,,,,,,,,,,,,,,,,,,,,,,,,,,,,,,,,,,,,,,,,724.993047764,731.1385234260006,,,,,,,,,,,,,,,,,,,,,,,,,,,,,,,,,,,,,,,,,,,,,,,,,,,,,,,,,,,,,,,112020,0,1,1,2,0,1,2,0,8,2020_Nov_20_1132,listening_fmri,3.2.4,59.89440257473096,
4,,,,,,,,,,0,0,0,0,0,4,4,4,0,0,0,0,,,,,,,,,0,0,0,0,,,,,,,,,,,,,,,,,,,,,,,,,,,,,,,,,,,,,,,,,,,,,,,,,,,,,,,,,,,,,,,,,,,,,,,,,,,,,,,,,,,,,,,,,,,,,,,,,,,,,,,,,,,,,,,,112020,0,1,1,2,0,1,2,0,8,2020_Nov_20_1132,listening_fmri,3.2.4,59.89440257473096,
,,,,,,,,,,,,,,,,,,,,,,,,,,,,,,,,,,,,,,,,,,,,,,,,,,,,,,,,,,,731.1388963420004,737.1415960129998,826.2819459700004,None,,,,,,,,,,,,,,,,,,,,,832.284556607,None,832.284556607,None,,,,,,,,,,,,,,,,,,,,,,,,,,,,,,,,,,,,,,,,,,,,,,,,,,,,,,,,,,,,,,,,,,,,,,,,,
﻿count,audio,trials_14.thisRepN,trials_14.thisTrialN,trials_14.thisN,trials_14.thisIndex,trials_3.thisRepN,trials_3.thisTrialN,trials_3.thisN,trials_3.thisIndex,trials_4.thisRepN,trials_4.thisTrialN,trials_4.thisN,trials_4.thisIndex,trials_6.thisRepN,trials_6.thisTrialN,trials_6.thisN,trials_6.thisIndex,trials_9.thisRepN,trials_9.thisTrialN,trials_9.thisN,trials_9.thisIndex,trials_10.thisRepN,trials_10.thisTrialN,trials_10.thisN,trials_10.thisIndex,trials_12.thisRepN,trials_12.thisTrialN,trials_12.thisN,trials_12.thisIndex,trials_25.thisRepN,trials_25.thisTrialN,trials_25.thisN,trials_25.thisIndex,trials_15.thisRepN,trials_15.thisTrialN,trials_15.thisN,trials_15.thisIndex,trials_26.thisRepN,trials_26.thisTrialN,trials_26.thisN,trials_26.thisIndex,trials_11.thisRepN,trials_11.thisTrialN,trials_11.thisN,trials_11.thisIndex,story_list_block2,action_list_block2,textTrigger.started,textTrigger.stopped,getTrigger.keys,getTrigger.rt,getTrigger.started,getTrigger.stopped,triggerTime,text_76.started,text_76.stopped,text_77.started,text_77.stopped,startWait,endWait,image_23.started,image_23.stopped,text_55.started,text_55.stopped,text_56.started,text_56.stopped,key_resp_2.keys,key_resp_2.rt,key_resp_2.started,key_resp_2.stopped,text_82.started,text_82.stopped,text_64.started,text_64.stopped,key_resp_20.keys,key_resp_20.rt,key_resp_20.started,key_resp_20.stopped,storyImage_StartTime,storyImage_EndTime,clip_StartTime,clip_EndTime,text_67.started,text_67.stopped,text_68.started,text_68.stopped,text_57.started,text_57.stopped,key_resp_17.keys,key_resp_17.rt,key_resp_17.started,key_resp_17.stopped,text_83.started,text_83.stopped,text_60.started,text_60.stopped,image_2.started,image_2.stopped,text_58.started,text_58.stopped,key_resp_23.keys,key_resp_23.rt,key_resp_23.started,key_resp_23.stopped,text_62.started,text_62.stopped,key_resp_18.keys,key_resp_18.rt,key_resp_18.started,key_resp_18.stopped,text_84.started,text_84.stopped,question1_2.started,question1_2.stopped,question2_2.started,question2_2.stopped,question3_2.started,question3_2.stopped,question4_2.started,question4_2.stopped,question5_2.started,question5_2.stopped,question6_2.started,question6_2.stopped,image_15.started,image_15.stopped,text_59.started,text_59.stopped,key_resp_19.keys,key_resp_19.rt,key_resp_19.started,key_resp_19.stopped,text_85.started,text_85.stopped,text_61.started,text_61.stopped,image_17.started,image_17.stopped,text_63.started,text_63.stopped,key_resp_24.keys,key_resp_24.rt,key_resp_24.started,key_resp_24.stopped,participant,sA,sB,lA,lB,block_struct,play_stories,block,behavioral,random_seed,date,expName,psychopyVersion,frameRate,
0,parcelated_audio/44/44_1.ogg,,,,,,,,,0,0,0,0,0,0,0,0,0,0,0,0,,,,,,,,,0,0,0,0,0,0,0,0,,,,,,,,,[44 13 22 24 11 33 31 42],[4 3 3 1 1 2 4 2],12.460082747999877,None,equal,82.6575950409997,12.460082747999877,None,82.68745656400006,12.460082747999877,None,12.460082747999877,None,0.00038231500002439134,6.006814878000114,95.14134674400066,None,101.150335929,None,101.150335929,None,5,0.9672447869997995,101.150335929,None,101.150335929,None,102.13385864600059,None,5,0.9837778520004576,102.13385864600059,None,7.998131607000687,10.99862540200047,11.003637020000497,18.934127419000106,,,,,,,,,,,,,,,,,,,,,,,,,,,,,,,,,,,,,,,,,,,,,,,,,,,,,,,,,,,,,,,112020,0,1,1,2,0,1,2,0,8,2020_Nov_20_1132,listening_fmri,3.2.4,59.89440257473096,
0,parcelated_audio/44/44_2.ogg,,,,,,,,,0,0,0,0,0,0,0,0,0,0,0,0,,,,,,,,,0,0,0,0,0,1,1,1,,,,,,,,,,,,,,,,,,,,,,,,,,,,,,,,,,,,,,,,,,,,18.934395342000244,28.06205131600018,,,,,,,,,,,,,,,,,,,,,,,,,,,,,,,,,,,,,,,,,,,,,,,,,,,,,,,,,,,,,,,112020,0,1,1,2,0,1,2,0,8,2020_Nov_20_1132,listening_fmri,3.2.4,59.89440257473096,
0,parcelated_audio/44/44_3.ogg,,,,,,,,,0,0,0,0,0,0,0,0,0,0,0,0,,,,,,,,,0,0,0,0,0,2,2,2,,,,,,,,,,,,,,,,,,,,,,,,,,,,,,,,,,,,,,,,,,,,28.06317791299989,33.50174544499987,,,,,,,,,,,,,,,,,,,,,,,,,,,,,,,,,,,,,,,,,,,,,,,,,,,,,,,,,,,,,,,112020,0,1,1,2,0,1,2,0,8,2020_Nov_20_1132,listening_fmri,3.2.4,59.89440257473096,
0,parcelated_audio/44/44_4.ogg,,,,,,,,,0,0,0,0,0,0,0,0,0,0,0,0,,,,,,,,,0,0,0,0,0,3,3,3,,,,,,,,,,,,,,,,,,,,,,,,,,,,,,,,,,,,,,,,,,,,33.50201424700026,38.610468427999876,,,,,,,,,,,,,,,,,,,,,,,,,,,,,,,,,,,,,,,,,,,,,,,,,,,,,,,,,,,,,,,112020,0,1,1,2,0,1,2,0,8,2020_Nov_20_1132,listening_fmri,3.2.4,59.89440257473096,
0,parcelated_audio/44/44_5.ogg,,,,,,,,,0,0,0,0,0,0,0,0,0,0,0,0,,,,,,,,,0,0,0,0,0,4,4,4,,,,,,,,,,,,,,,,,,,,,,,,,,,,,,,,,,,,,,,,,,,,38.61083744200005,44.84548207100033,,,,,,,,,,,,,,,,,,,,,,,,,,,,,,,,,,,,,,,,,,,,,,,,,,,,,,,,,,,,,,,112020,0,1,1,2,0,1,2,0,8,2020_Nov_20_1132,listening_fmri,3.2.4,59.89440257473096,
0,parcelated_audio/44/44_6.ogg,,,,,,,,,0,0,0,0,0,0,0,0,0,0,0,0,,,,,,,,,0,0,0,0,0,5,5,5,,,,,,,,,,,,,,,,,,,,,,,,,,,,,,,,,,,,,,,,,,,,44.84575134900024,51.78624997600036,,,,,,,,,,,,,,,,,,,,,,,,,,,,,,,,,,,,,,,,,,,,,,,,,,,,,,,,,,,,,,,112020,0,1,1,2,0,1,2,0,8,2020_Nov_20_1132,listening_fmri,3.2.4,59.89440257473096,
0,parcelated_audio/44/44_7.ogg,,,,,,,,,0,0,0,0,0,0,0,0,0,0,0,0,,,,,,,,,0,0,0,0,0,6,6,6,,,,,,,,,,,,,,,,,,,,,,,,,,,,,,,,,,,,,,,,,,,,51.78662209400045,57.79723361500055,,,,,,,,,,,,,,,,,,,,,,,,,,,,,,,,,,,,,,,,,,,,,,,,,,,,,,,,,,,,,,,112020,0,1,1,2,0,1,2,0,8,2020_Nov_20_1132,listening_fmri,3.2.4,59.89440257473096,
0,parcelated_audio/44/44_8.ogg,,,,,,,,,0,0,0,0,0,0,0,0,0,0,0,0,,,,,,,,,0,0,0,0,0,7,7,7,,,,,,,,,,,,,,,,,,,,,,,,,,,,,,,,,,,,,,,,,,,,57.797754393000105,62.05359568699987,,,,,,,,,,,,,,,,,,,,,,,,,,,,,,,,,,,,,,,,,,,,,,,,,,,,,,,,,,,,,,,112020,0,1,1,2,0,1,2,0,8,2020_Nov_20_1132,listening_fmri,3.2.4,59.89440257473096,
0,parcelated_audio/44/44_9.ogg,,,,,,,,,0,0,0,0,0,0,0,0,0,0,0,0,,,,,,,,,0,0,0,0,0,8,8,8,,,,,,,,,,,,,,,,,,,,,,,,,,,,,,,,,,,,,,,,,,,,62.05406762600069,65.75460611400013,,,,,,,,,,,,,,,,,,,,,,,,,,,,,,,,,,,,,,,,,,,,,,,,,,,,,,,,,,,,,,,112020,0,1,1,2,0,1,2,0,8,2020_Nov_20_1132,listening_fmri,3.2.4,59.89440257473096,
0,parcelated_audio/44/44_10.ogg,,,,,,,,,0,0,0,0,0,0,0,0,0,0,0,0,,,,,,,,,0,0,0,0,0,9,9,9,,,,,,,,,,,,,,,,,,,,,,,,,,,,,,,,,,,,,,,,,,,,65.75487211500058,75.86903355200047,,,,,,,,,,,,,,,,,,,,,,,,,,,,,,,,,,,,,,,,,,,,,,,,,,,,,,,,,,,,,,,112020,0,1,1,2,0,1,2,0,8,2020_Nov_20_1132,listening_fmri,3.2.4,59.89440257473096,
0,parcelated_audio/44/44_11.ogg,,,,,,,,,0,0,0,0,0,0,0,0,0,0,0,0,,,,,,,,,0,0,0,0,0,10,10,10,,,,,,,,,,,,,,,,,,,,,,,,,,,,,,,,,,,,,,,,,,,,75.8693066550004,79.40482104300008,,,,,,,,,,,,,,,,,,,,,,,,,,,,,,,,,,,,,,,,,,,,,,,,,,,,,,,,,,,,,,,112020,0,1,1,2,0,1,2,0,8,2020_Nov_20_1132,listening_fmri,3.2.4,59.89440257473096,
0,parcelated_audio/44/44_12.ogg,,,,,,,,,0,0,0,0,0,0,0,0,0,0,0,0,,,,,,,,,0,0,0,0,0,11,11,11,,,,,,,,,,,,,,,,,,,,,,,,,,,,,,,,,,,,,,,,,,,,79.40508806900016,89.99650134900003,,,,,,,,,,,,,,,,,,,,,,,,,,,,,,,,,,,,,,,,,,,,,,,,,,,,,,,,,,,,,,,112020,0,1,1,2,0,1,2,0,8,2020_Nov_20_1132,listening_fmri,3.2.4,59.89440257473096,
0,parcelated_audio/44/44_13.ogg,,,,,,,,,0,0,0,0,0,0,0,0,0,0,0,0,,,,,,,,,0,0,0,0,0,12,12,12,,,,,,,,,,,,,,,,,,,,,,,,,,,,,,,,,,,,,,,,,,,,89.99683438100055,97.15903029200035,,,,,,,,,,,,,,,,,,,,,,,,,,,,,,,,,,,,,,,,,,,,,,,,,,,,,,,,,,,,,,,112020,0,1,1,2,0,1,2,0,8,2020_Nov_20_1132,listening_fmri,3.2.4,59.89440257473096,
0,parcelated_audio/44/44_14.ogg,,,,,,,,,0,0,0,0,0,0,0,0,0,0,0,0,,,,,,,,,0,0,0,0,0,13,13,13,,,,,,,,,,,,,,,,,,,,,,,,,,,,,,,,,,,,,,,,,,,,97.15976990699983,103.48640619700018,,,,,,,,,,,,,,,,,,,,,,,,,,,,,,,,,,,,,,,,,,,,,,,,,,,,,,,,,,,,,,,112020,0,1,1,2,0,1,2,0,8,2020_Nov_20_1132,listening_fmri,3.2.4,59.89440257473096,
0,parcelated_audio/44/44_15.ogg,,,,,,,,,0,0,0,0,0,0,0,0,0,0,0,0,,,,,,,,,0,0,0,0,0,14,14,14,,,,,,,,,,,,,,,,,,,,,,,,,,,,,,,,,,,,,,,,,,,,103.48695393800062,107.57216123099988,,,,,,,,,,,,,,,,,,,,,,,,,,,,,,,,,,,,,,,,,,,,,,,,,,,,,,,,,,,,,,,112020,0,1,1,2,0,1,2,0,8,2020_Nov_20_1132,listening_fmri,3.2.4,59.89440257473096,
0,parcelated_audio/44/44_16.ogg,,,,,,,,,0,0,0,0,0,0,0,0,0,0,0,0,,,,,,,,,0,0,0,0,0,15,15,15,,,,,,,,,,,,,,,,,,,,,,,,,,,,,,,,,,,,,,,,,,,,107.5724725300006,111.59307481900032,,,,,,,,,,,,,,,,,,,,,,,,,,,,,,,,,,,,,,,,,,,,,,,,,,,,,,,,,,,,,,,112020,0,1,1,2,0,1,2,0,8,2020_Nov_20_1132,listening_fmri,3.2.4,59.89440257473096,
0,parcelated_audio/44/44_17.ogg,,,,,,,,,0,0,0,0,0,0,0,0,0,0,0,0,,,,,,,,,0,0,0,0,0,16,16,16,,,,,,,,,,,,,,,,,,,,,,,,,,,,,,,,,,,,,,,,,,,,111.59334029300044,120.05969547899986,,,,,,,,,,,,,,,,,,,,,,,,,,,,,,,,,,,,,,,,,,,,,,,,,,,,,,,,,,,,,,,112020,0,1,1,2,0,1,2,0,8,2020_Nov_20_1132,listening_fmri,3.2.4,59.89440257473096,
0,parcelated_audio/44/44_18.ogg,,,,,,,,,0,0,0,0,0,0,0,0,0,0,0,0,,,,,,,,,0,0,0,0,0,17,17,17,,,,,,,,,,,,,,,,,,,,,,,,,,,,,,,,,,,,,,,,,,,,120.05995728500056,129.88901447700027,,,,,,,,,,,,,,,,,,,,,,,,,,,,,,,,,,,,,,,,,,,,,,,,,,,,,,,,,,,,,,,112020,0,1,1,2,0,1,2,0,8,2020_Nov_20_1132,listening_fmri,3.2.4,59.89440257473096,
0,parcelated_audio/44/44_19.ogg,,,,,,,,,0,0,0,0,0,0,0,0,0,0,0,0,,,,,,,,,0,0,0,0,0,18,18,18,,,,,,,,,,,,,,,,,,,,,,,,,,,,,,,,,,,,,,,,,,,,129.88927923200026,140.85442558700015,,,,,,,,,,,,,,,,,,,,,,,,,,,,,,,,,,,,,,,,,,,,,,,,,,,,,,,,,,,,,,,112020,0,1,1,2,0,1,2,0,8,2020_Nov_20_1132,listening_fmri,3.2.4,59.89440257473096,
0,parcelated_audio/44/44_20.ogg,,,,,,,,,0,0,0,0,0,0,0,0,0,0,0,0,,,,,,,,,0,0,0,0,0,19,19,19,,,,,,,,,,,,,,,,,,,,,,,,,,,,,,,,,,,,,,,,,,,,140.85469290899982,149.05977414300014,,,,,,,,,,,,,,,,,,,,,,,,,,,,,,,,,,,,,,,,,,,,,,,,,,,,,,,,,,,,,,,112020,0,1,1,2,0,1,2,0,8,2020_Nov_20_1132,listening_fmri,3.2.4,59.89440257473096,
0,parcelated_audio/44/44_21.ogg,,,,,,,,,0,0,0,0,0,0,0,0,0,0,0,0,,,,,,,,,0,0,0,0,0,20,20,20,,,,,,,,,,,,,,,,,,,,,,,,,,,,,,,,,,,,,,,,,,,,149.0601504770002,157.98731726999995,,,,,,,,,,,,,,,,,,,,,,,,,,,,,,,,,,,,,,,,,,,,,,,,,,,,,,,,,,,,,,,112020,0,1,1,2,0,1,2,0,8,2020_Nov_20_1132,listening_fmri,3.2.4,59.89440257473096,
0,parcelated_audio/44/44_22.ogg,,,,,,,,,0,0,0,0,0,0,0,0,0,0,0,0,,,,,,,,,0,0,0,0,0,21,21,21,,,,,,,,,,,,,,,,,,,,,,,,,,,,,,,,,,,,,,,,,,,,157.98972923300062,162.91796510299991,,,,,,,,,,,,,,,,,,,,,,,,,,,,,,,,,,,,,,,,,,,,,,,,,,,,,,,,,,,,,,,112020,0,1,1,2,0,1,2,0,8,2020_Nov_20_1132,listening_fmri,3.2.4,59.89440257473096,
0,parcelated_audio/44/44_23.ogg,,,,,,,,,0,0,0,0,0,0,0,0,0,0,0,0,,,,,,,,,0,0,0,0,0,22,22,22,,,,,,,,,,,,,,,,,,,,,,,,,,,,,,,,,,,,,,,,,,,,162.9186810430001,169.5544625980001,,,,,,,,,,,,,,,,,,,,,,,,,,,,,,,,,,,,,,,,,,,,,,,,,,,,,,,,,,,,,,,112020,0,1,1,2,0,1,2,0,8,2020_Nov_20_1132,listening_fmri,3.2.4,59.89440257473096,
0,parcelated_audio/44/44_24.ogg,,,,,,,,,0,0,0,0,0,0,0,0,0,0,0,0,,,,,,,,,0,0,0,0,0,23,23,23,,,,,,,,,,,,,,,,,,,,,,,,,,,,,,,,,,,,,,,,,,,,169.55473022200022,178.28546877600002,,,,,,,,,,,,,,,,,,,,,,,,,,,,,,,,,,,,,,,,,,,,,,,,,,,,,,,,,,,,,,,112020,0,1,1,2,0,1,2,0,8,2020_Nov_20_1132,listening_fmri,3.2.4,59.89440257473096,
0,parcelated_audio/44/44_25.ogg,,,,,,,,,0,0,0,0,0,0,0,0,0,0,0,0,,,,,,,,,0,0,0,0,0,24,24,24,,,,,,,,,,,,,,,,,,,,,,,,,,,,,,,,,,,,,,,,,,,,178.28577577000033,184.58610605400008,,,,,,,,,,,,,,,,,,,,,,,,,,,,,,,,,,,,,,,,,,,,,,,,,,,,,,,,,,,,,,,112020,0,1,1,2,0,1,2,0,8,2020_Nov_20_1132,listening_fmri,3.2.4,59.89440257473096,
0,parcelated_audio/44/44_26.ogg,,,,,,,,,0,0,0,0,0,0,0,0,0,0,0,0,,,,,,,,,0,0,0,0,0,25,25,25,,,,,,,,,,,,,,,,,,,,,,,,,,,,,,,,,,,,,,,,,,,,184.58646019700063,189.448165109,,,,,,,,,,,,,,,,,,,,,,,,,,,,,,,,,,,,,,,,,,,,,,,,,,,,,,,,,,,,,,,112020,0,1,1,2,0,1,2,0,8,2020_Nov_20_1132,listening_fmri,3.2.4,59.89440257473096,
0,parcelated_audio/44/44_27.ogg,,,,,,,,,0,0,0,0,0,0,0,0,0,0,0,0,,,,,,,,,0,0,0,0,0,26,26,26,,,,,,,,,,,,,,,,,,,,,,,,,,,,,,,,,,,,,,,,,,,,189.44852285400066,196.43841432200043,,,,,,,,,,,,,,,,,,,,,,,,,,,,,,,,,,,,,,,,,,,,,,,,,,,,,,,,,,,,,,,112020,0,1,1,2,0,1,2,0,8,2020_Nov_20_1132,listening_fmri,3.2.4,59.89440257473096,
0,parcelated_audio/44/44_28.ogg,,,,,,,,,0,0,0,0,0,0,0,0,0,0,0,0,,,,,,,,,0,0,0,0,0,27,27,27,,,,,,,,,,,,,,,,,,,,,,,,,,,,,,,,,,,,,,,,,,,,196.43876971700047,207.72356776200013,,,,,,,,,,,,,,,,,,,,,,,,,,,,,,,,,,,,,,,,,,,,,,,,,,,,,,,,,,,,,,,112020,0,1,1,2,0,1,2,0,8,2020_Nov_20_1132,listening_fmri,3.2.4,59.89440257473096,
0,,,,,,,,,,0,0,0,0,0,0,0,0,0,0,0,0,,,,,,,,,0,0,0,0,,,,,,,,,,,,,,,,,,,,,,,,,,,,,,,,,,,,,,,,,,,,,,,,,,,,,,,,,,,,,,,,,,,,,,,,,,,,,,,,,,,,,,,,,,,,,,,,,,,,,,,,,,,,,,,,112020,0,1,1,2,0,1,2,0,8,2020_Nov_20_1132,listening_fmri,3.2.4,59.89440257473096,
0,,,,,,,,,,0,0,0,0,0,0,0,0,0,0,0,0,,,,,,,,,,,,,,,,,,,,,,,,,,,,,,,,,,,,,,207.72393996500068,213.72927767000056,302.8567621580005,None,,,,,,,,,,,,,,,,,,,,,308.8721072879998,None,308.8721072879998,None,,,,,,,,,,,,,,,,,,,,,,,,,,,,,,,,,,,,,,,,,,,,,,,,,,,,,,,,,,,112020,0,1,1,2,0,1,2,0,8,2020_Nov_20_1132,listening_fmri,3.2.4,59.89440257473096,
0,,,,,,,,,,0,0,0,0,0,0,0,0,,,,,,,,,,,,,,,,,,,,,,,,,,,,,,,,,,,,,,,,,,,,,,,,,,,,,,,,,,,,,,,,,,,,,,,,,,,,,,,,,,,,,,,,,,,,,,,,,,,,,,,,,,,,,,,,,,,,,,,,,,,,,,,,112020,0,1,1,2,0,1,2,0,8,2020_Nov_20_1132,listening_fmri,3.2.4,59.89440257473096,
1,,,,,,,,,,0,0,0,0,0,1,1,1,,,,,,,,,,,,,,,,,,,,,,,,,,,,,,,,,,,,,,,,,,,,,,,,,,,,,,,,,,,,,,,,,,,,,,,,,,,,,,,,,,,,,,,,,,,,,,,,,,,,,,,,,,,,,,,,,,,,,,,,,,,,,,,,112020,0,1,1,2,0,1,2,0,8,2020_Nov_20_1132,listening_fmri,3.2.4,59.89440257473096,
2,,,,,,,,,,0,0,0,0,0,2,2,2,,,,,,,,,,,,,,,,,,,,,,,,,,,,,,,,,,,,,,,,,,,,,,,,,,,,,,,,,,,,,,,,,,,,,,,,,,,,,,,,,,,,,,,,,,,,,,,,,,,,,,,,,,,,,,,,,,,,,,,,,,,,,,,,112020,0,1,1,2,0,1,2,0,8,2020_Nov_20_1132,listening_fmri,3.2.4,59.89440257473096,
3,,,,,,,,,,0,0,0,0,0,3,3,3,0,0,0,0,0,0,0,0,,,,,,,,,,,,,,,,,0,0,0,0,,,,,,,,,,,,,,,,,,309.87279527600003,None,309.87279527600003,None,5,0.24290188499981014,309.87279527600003,None,309.87279527600003,None,,,,,,,,,,,,,,,310.1341558740005,None,5,0.9815618549991996,310.1341558740005,None,310.1341558740005,None,311.15513828500025,None,311.15513828500025,None,311.15513828500025,None,5,0.9605842969995138,311.15513828500025,None,312.13385707900034,None,5,0.9818687269998918,312.13385707900034,None,312.13385707900034,None,313.20579184800044,None,313.20579184800044,None,313.20579184800044,None,313.20579184800044,None,313.20579184800044,None,313.20579184800044,None,313.20579184800044,None,,,,,,,,,,,,,,,,,,,112020,0,1,1,2,0,1,2,0,8,2020_Nov_20_1132,listening_fmri,3.2.4,59.89440257473096,
3,,,,,,,,,,0,0,0,0,0,3,3,3,0,0,0,0,0,0,0,0,,,,,,,,,,,,,,,,,,,,,,,,,,,,,,,,,,,,,,,,,,,,,,,,,,,,,,,,,,,,,,,,,,,,,,,,,,,,,,,,,,,,,,,,,,,,,,,,,,,,,,336.4009800949998,None,5,0.7136591710004723,336.4009800949998,None,336.4009800949998,None,337.1505712140006,None,337.1505712140006,None,337.1505712140006,None,5,0.9640801140003532,337.1505712140006,None,112020,0,1,1,2,0,1,2,0,8,2020_Nov_20_1132,listening_fmri,3.2.4,59.89440257473096,
3,parcelated_audio/24/24_1.ogg,,,,,,,,,0,0,0,0,0,3,3,3,0,0,0,0,,,,,,,,,0,0,0,0,0,0,0,0,,,,,,,,,,,,,,,,,,,,,,,,,,,,,,,,,,,,338.1345355370004,None,5,0.980102686000464,338.1345355370004,None,243.99658979300057,247.00770371700037,247.02014206700005,257.44488499199997,,,,,,,,,,,,,,,,,,,,,,,,,,,,,,,,,,,,,,,,,,,,,,,,,,,,,,,,,,,,,,,112020,0,1,1,2,0,1,2,0,8,2020_Nov_20_1132,listening_fmri,3.2.4,59.89440257473096,
3,parcelated_audio/24/24_2.ogg,,,,,,,,,0,0,0,0,0,3,3,3,0,0,0,0,,,,,,,,,0,0,0,0,0,1,1,1,,,,,,,,,,,,,,,,,,,,,,,,,,,,,,,,,,,,,,,,,,,,257.445155335,263.7576123210001,,,,,,,,,,,,,,,,,,,,,,,,,,,,,,,,,,,,,,,,,,,,,,,,,,,,,,,,,,,,,,,112020,0,1,1,2,0,1,2,0,8,2020_Nov_20_1132,listening_fmri,3.2.4,59.89440257473096,
3,parcelated_audio/24/24_3.ogg,,,,,,,,,0,0,0,0,0,3,3,3,0,0,0,0,,,,,,,,,0,0,0,0,0,2,2,2,,,,,,,,,,,,,,,,,,,,,,,,,,,,,,,,,,,,,,,,,,,,263.75786184500066,275.37161688300057,,,,,,,,,,,,,,,,,,,,,,,,,,,,,,,,,,,,,,,,,,,,,,,,,,,,,,,,,,,,,,,112020,0,1,1,2,0,1,2,0,8,2020_Nov_20_1132,listening_fmri,3.2.4,59.89440257473096,
3,parcelated_audio/24/24_4.ogg,,,,,,,,,0,0,0,0,0,3,3,3,0,0,0,0,,,,,,,,,0,0,0,0,0,3,3,3,,,,,,,,,,,,,,,,,,,,,,,,,,,,,,,,,,,,,,,,,,,,275.37188275600056,282.25698070399994,,,,,,,,,,,,,,,,,,,,,,,,,,,,,,,,,,,,,,,,,,,,,,,,,,,,,,,,,,,,,,,112020,0,1,1,2,0,1,2,0,8,2020_Nov_20_1132,listening_fmri,3.2.4,59.89440257473096,
3,parcelated_audio/24/24_5.ogg,,,,,,,,,0,0,0,0,0,3,3,3,0,0,0,0,,,,,,,,,0,0,0,0,0,4,4,4,,,,,,,,,,,,,,,,,,,,,,,,,,,,,,,,,,,,,,,,,,,,282.2574071300005,287.22998448399994,,,,,,,,,,,,,,,,,,,,,,,,,,,,,,,,,,,,,,,,,,,,,,,,,,,,,,,,,,,,,,,112020,0,1,1,2,0,1,2,0,8,2020_Nov_20_1132,listening_fmri,3.2.4,59.89440257473096,
3,parcelated_audio/24/24_6.ogg,,,,,,,,,0,0,0,0,0,3,3,3,0,0,0,0,,,,,,,,,0,0,0,0,0,5,5,5,,,,,,,,,,,,,,,,,,,,,,,,,,,,,,,,,,,,,,,,,,,,287.23046783300015,294.70676993899997,,,,,,,,,,,,,,,,,,,,,,,,,,,,,,,,,,,,,,,,,,,,,,,,,,,,,,,,,,,,,,,112020,0,1,1,2,0,1,2,0,8,2020_Nov_20_1132,listening_fmri,3.2.4,59.89440257473096,
3,parcelated_audio/24/24_7.ogg,,,,,,,,,0,0,0,0,0,3,3,3,0,0,0,0,,,,,,,,,0,0,0,0,0,6,6,6,,,,,,,,,,,,,,,,,,,,,,,,,,,,,,,,,,,,,,,,,,,,294.7071610110006,299.0953560500002,,,,,,,,,,,,,,,,,,,,,,,,,,,,,,,,,,,,,,,,,,,,,,,,,,,,,,,,,,,,,,,112020,0,1,1,2,0,1,2,0,8,2020_Nov_20_1132,listening_fmri,3.2.4,59.89440257473096,
3,parcelated_audio/24/24_8.ogg,,,,,,,,,0,0,0,0,0,3,3,3,0,0,0,0,,,,,,,,,0,0,0,0,0,7,7,7,,,,,,,,,,,,,,,,,,,,,,,,,,,,,,,,,,,,,,,,,,,,299.09562563500003,305.14069993700014,,,,,,,,,,,,,,,,,,,,,,,,,,,,,,,,,,,,,,,,,,,,,,,,,,,,,,,,,,,,,,,112020,0,1,1,2,0,1,2,0,8,2020_Nov_20_1132,listening_fmri,3.2.4,59.89440257473096,
3,parcelated_audio/24/24_9.ogg,,,,,,,,,0,0,0,0,0,3,3,3,0,0,0,0,,,,,,,,,0,0,0,0,0,8,8,8,,,,,,,,,,,,,,,,,,,,,,,,,,,,,,,,,,,,,,,,,,,,305.14109695000025,309.4801554270007,,,,,,,,,,,,,,,,,,,,,,,,,,,,,,,,,,,,,,,,,,,,,,,,,,,,,,,,,,,,,,,112020,0,1,1,2,0,1,2,0,8,2020_Nov_20_1132,listening_fmri,3.2.4,59.89440257473096,
3,parcelated_audio/24/24_10.ogg,,,,,,,,,0,0,0,0,0,3,3,3,0,0,0,0,,,,,,,,,0,0,0,0,0,9,9,9,,,,,,,,,,,,,,,,,,,,,,,,,,,,,,,,,,,,,,,,,,,,309.4804292810004,313.2242498650003,,,,,,,,,,,,,,,,,,,,,,,,,,,,,,,,,,,,,,,,,,,,,,,,,,,,,,,,,,,,,,,112020,0,1,1,2,0,1,2,0,8,2020_Nov_20_1132,listening_fmri,3.2.4,59.89440257473096,
3,parcelated_audio/24/24_11.ogg,,,,,,,,,0,0,0,0,0,3,3,3,0,0,0,0,,,,,,,,,0,0,0,0,0,10,10,10,,,,,,,,,,,,,,,,,,,,,,,,,,,,,,,,,,,,,,,,,,,,313.22465599000043,323.3390238150005,,,,,,,,,,,,,,,,,,,,,,,,,,,,,,,,,,,,,,,,,,,,,,,,,,,,,,,,,,,,,,,112020,0,1,1,2,0,1,2,0,8,2020_Nov_20_1132,listening_fmri,3.2.4,59.89440257473096,
3,parcelated_audio/24/24_12.ogg,,,,,,,,,0,0,0,0,0,3,3,3,0,0,0,0,,,,,,,,,0,0,0,0,0,11,11,11,,,,,,,,,,,,,,,,,,,,,,,,,,,,,,,,,,,,,,,,,,,,323.34268568600055,332.42148057600025,,,,,,,,,,,,,,,,,,,,,,,,,,,,,,,,,,,,,,,,,,,,,,,,,,,,,,,,,,,,,,,112020,0,1,1,2,0,1,2,0,8,2020_Nov_20_1132,listening_fmri,3.2.4,59.89440257473096,
3,parcelated_audio/24/24_13.ogg,,,,,,,,,0,0,0,0,0,3,3,3,0,0,0,0,,,,,,,,,0,0,0,0,0,12,12,12,,,,,,,,,,,,,,,,,,,,,,,,,,,,,,,,,,,,,,,,,,,,332.4218059650002,336.39122196800054,,,,,,,,,,,,,,,,,,,,,,,,,,,,,,,,,,,,,,,,,,,,,,,,,,,,,,,,,,,,,,,112020,0,1,1,2,0,1,2,0,8,2020_Nov_20_1132,listening_fmri,3.2.4,59.89440257473096,
3,parcelated_audio/24/24_14.ogg,,,,,,,,,0,0,0,0,0,3,3,3,0,0,0,0,,,,,,,,,0,0,0,0,0,13,13,13,,,,,,,,,,,,,,,,,,,,,,,,,,,,,,,,,,,,,,,,,,,,336.3936882349999,343.7704623509999,,,,,,,,,,,,,,,,,,,,,,,,,,,,,,,,,,,,,,,,,,,,,,,,,,,,,,,,,,,,,,,112020,0,1,1,2,0,1,2,0,8,2020_Nov_20_1132,listening_fmri,3.2.4,59.89440257473096,
3,parcelated_audio/24/24_15.ogg,,,,,,,,,0,0,0,0,0,3,3,3,0,0,0,0,,,,,,,,,0,0,0,0,0,14,14,14,,,,,,,,,,,,,,,,,,,,,,,,,,,,,,,,,,,,,,,,,,,,343.77072662000046,350.30897633600034,,,,,,,,,,,,,,,,,,,,,,,,,,,,,,,,,,,,,,,,,,,,,,,,,,,,,,,,,,,,,,,112020,0,1,1,2,0,1,2,0,8,2020_Nov_20_1132,listening_fmri,3.2.4,59.89440257473096,
3,parcelated_audio/24/24_16.ogg,,,,,,,,,0,0,0,0,0,3,3,3,0,0,0,0,,,,,,,,,0,0,0,0,0,15,15,15,,,,,,,,,,,,,,,,,,,,,,,,,,,,,,,,,,,,,,,,,,,,350.30929919200025,357.50402717,,,,,,,,,,,,,,,,,,,,,,,,,,,,,,,,,,,,,,,,,,,,,,,,,,,,,,,,,,,,,,,112020,0,1,1,2,0,1,2,0,8,2020_Nov_20_1132,listening_fmri,3.2.4,59.89440257473096,
3,parcelated_audio/24/24_17.ogg,,,,,,,,,0,0,0,0,0,3,3,3,0,0,0,0,,,,,,,,,0,0,0,0,0,16,16,16,,,,,,,,,,,,,,,,,,,,,,,,,,,,,,,,,,,,,,,,,,,,357.5044279800004,363.4980179670001,,,,,,,,,,,,,,,,,,,,,,,,,,,,,,,,,,,,,,,,,,,,,,,,,,,,,,,,,,,,,,,112020,0,1,1,2,0,1,2,0,8,2020_Nov_20_1132,listening_fmri,3.2.4,59.89440257473096,
3,parcelated_audio/24/24_18.ogg,,,,,,,,,0,0,0,0,0,3,3,3,0,0,0,0,,,,,,,,,0,0,0,0,0,17,17,17,,,,,,,,,,,,,,,,,,,,,,,,,,,,,,,,,,,,,,,,,,,,363.49828862100003,371.96580220800024,,,,,,,,,,,,,,,,,,,,,,,,,,,,,,,,,,,,,,,,,,,,,,,,,,,,,,,,,,,,,,,112020,0,1,1,2,0,1,2,0,8,2020_Nov_20_1132,listening_fmri,3.2.4,59.89440257473096,
3,parcelated_audio/24/24_19.ogg,,,,,,,,,0,0,0,0,0,3,3,3,0,0,0,0,,,,,,,,,0,0,0,0,0,18,18,18,,,,,,,,,,,,,,,,,,,,,,,,,,,,,,,,,,,,,,,,,,,,371.9663148310001,381.60766526800035,,,,,,,,,,,,,,,,,,,,,,,,,,,,,,,,,,,,,,,,,,,,,,,,,,,,,,,,,,,,,,,112020,0,1,1,2,0,1,2,0,8,2020_Nov_20_1132,listening_fmri,3.2.4,59.89440257473096,
3,parcelated_audio/24/24_20.ogg,,,,,,,,,0,0,0,0,0,3,3,3,0,0,0,0,,,,,,,,,0,0,0,0,0,19,19,19,,,,,,,,,,,,,,,,,,,,,,,,,,,,,,,,,,,,,,,,,,,,381.60843075699995,386.0633489210004,,,,,,,,,,,,,,,,,,,,,,,,,,,,,,,,,,,,,,,,,,,,,,,,,,,,,,,,,,,,,,,112020,0,1,1,2,0,1,2,0,8,2020_Nov_20_1132,listening_fmri,3.2.4,59.89440257473096,
3,parcelated_audio/24/24_21.ogg,,,,,,,,,0,0,0,0,0,3,3,3,0,0,0,0,,,,,,,,,0,0,0,0,0,20,20,20,,,,,,,,,,,,,,,,,,,,,,,,,,,,,,,,,,,,,,,,,,,,386.06364381599997,394.0887125019999,,,,,,,,,,,,,,,,,,,,,,,,,,,,,,,,,,,,,,,,,,,,,,,,,,,,,,,,,,,,,,,112020,0,1,1,2,0,1,2,0,8,2020_Nov_20_1132,listening_fmri,3.2.4,59.89440257473096,
3,parcelated_audio/24/24_22.ogg,,,,,,,,,0,0,0,0,0,3,3,3,0,0,0,0,,,,,,,,,0,0,0,0,0,21,21,21,,,,,,,,,,,,,,,,,,,,,,,,,,,,,,,,,,,,,,,,,,,,394.0890852500006,404.5825330080006,,,,,,,,,,,,,,,,,,,,,,,,,,,,,,,,,,,,,,,,,,,,,,,,,,,,,,,,,,,,,,,112020,0,1,1,2,0,1,2,0,8,2020_Nov_20_1132,listening_fmri,3.2.4,59.89440257473096,
3,parcelated_audio/24/24_23.ogg,,,,,,,,,0,0,0,0,0,3,3,3,0,0,0,0,,,,,,,,,0,0,0,0,0,22,22,22,,,,,,,,,,,,,,,,,,,,,,,,,,,,,,,,,,,,,,,,,,,,404.58280109099996,414.7986330620006,,,,,,,,,,,,,,,,,,,,,,,,,,,,,,,,,,,,,,,,,,,,,,,,,,,,,,,,,,,,,,,112020,0,1,1,2,0,1,2,0,8,2020_Nov_20_1132,listening_fmri,3.2.4,59.89440257473096,
3,parcelated_audio/24/24_24.ogg,,,,,,,,,0,0,0,0,0,3,3,3,0,0,0,0,,,,,,,,,0,0,0,0,0,23,23,23,,,,,,,,,,,,,,,,,,,,,,,,,,,,,,,,,,,,,,,,,,,,414.79889900299986,421.36637394900026,,,,,,,,,,,,,,,,,,,,,,,,,,,,,,,,,,,,,,,,,,,,,,,,,,,,,,,,,,,,,,,112020,0,1,1,2,0,1,2,0,8,2020_Nov_20_1132,listening_fmri,3.2.4,59.89440257473096,
3,parcelated_audio/24/24_25.ogg,,,,,,,,,0,0,0,0,0,3,3,3,0,0,0,0,,,,,,,,,0,0,0,0,0,24,24,24,,,,,,,,,,,,,,,,,,,,,,,,,,,,,,,,,,,,,,,,,,,,421.366809999,430.1148402130002,,,,,,,,,,,,,,,,,,,,,,,,,,,,,,,,,,,,,,,,,,,,,,,,,,,,,,,,,,,,,,,112020,0,1,1,2,0,1,2,0,8,2020_Nov_20_1132,listening_fmri,3.2.4,59.89440257473096,
3,parcelated_audio/24/24_26.ogg,,,,,,,,,0,0,0,0,0,3,3,3,0,0,0,0,,,,,,,,,0,0,0,0,0,25,25,25,,,,,,,,,,,,,,,,,,,,,,,,,,,,,,,,,,,,,,,,,,,,430.1151974280001,436.6858754120003,,,,,,,,,,,,,,,,,,,,,,,,,,,,,,,,,,,,,,,,,,,,,,,,,,,,,,,,,,,,,,,112020,0,1,1,2,0,1,2,0,8,2020_Nov_20_1132,listening_fmri,3.2.4,59.89440257473096,
3,parcelated_audio/24/24_27.ogg,,,,,,,,,0,0,0,0,0,3,3,3,0,0,0,0,,,,,,,,,0,0,0,0,0,26,26,26,,,,,,,,,,,,,,,,,,,,,,,,,,,,,,,,,,,,,,,,,,,,436.6861464929998,442.763348036,,,,,,,,,,,,,,,,,,,,,,,,,,,,,,,,,,,,,,,,,,,,,,,,,,,,,,,,,,,,,,,112020,0,1,1,2,0,1,2,0,8,2020_Nov_20_1132,listening_fmri,3.2.4,59.89440257473096,
3,parcelated_audio/24/24_28.ogg,,,,,,,,,0,0,0,0,0,3,3,3,0,0,0,0,,,,,,,,,0,0,0,0,0,27,27,27,,,,,,,,,,,,,,,,,,,,,,,,,,,,,,,,,,,,,,,,,,,,442.7636993410006,447.28132843500043,,,,,,,,,,,,,,,,,,,,,,,,,,,,,,,,,,,,,,,,,,,,,,,,,,,,,,,,,,,,,,,112020,0,1,1,2,0,1,2,0,8,2020_Nov_20_1132,listening_fmri,3.2.4,59.89440257473096,
3,parcelated_audio/24/24_29.ogg,,,,,,,,,0,0,0,0,0,3,3,3,0,0,0,0,,,,,,,,,0,0,0,0,0,28,28,28,,,,,,,,,,,,,,,,,,,,,,,,,,,,,,,,,,,,,,,,,,,,447.2815917930002,453.5704552750003,,,,,,,,,,,,,,,,,,,,,,,,,,,,,,,,,,,,,,,,,,,,,,,,,,,,,,,,,,,,,,,112020,0,1,1,2,0,1,2,0,8,2020_Nov_20_1132,listening_fmri,3.2.4,59.89440257473096,
3,parcelated_audio/24/24_30.ogg,,,,,,,,,0,0,0,0,0,3,3,3,0,0,0,0,,,,,,,,,0,0,0,0,0,29,29,29,,,,,,,,,,,,,,,,,,,,,,,,,,,,,,,,,,,,,,,,,,,,453.5707210239998,459.81623793000017,,,,,,,,,,,,,,,,,,,,,,,,,,,,,,,,,,,,,,,,,,,,,,,,,,,,,,,,,,,,,,,112020,0,1,1,2,0,1,2,0,8,2020_Nov_20_1132,listening_fmri,3.2.4,59.89440257473096,
3,parcelated_audio/24/24_31.ogg,,,,,,,,,0,0,0,0,0,3,3,3,0,0,0,0,,,,,,,,,0,0,0,0,0,30,30,30,,,,,,,,,,,,,,,,,,,,,,,,,,,,,,,,,,,,,,,,,,,,459.8165566880007,466.4800487749999,,,,,,,,,,,,,,,,,,,,,,,,,,,,,,,,,,,,,,,,,,,,,,,,,,,,,,,,,,,,,,,112020,0,1,1,2,0,1,2,0,8,2020_Nov_20_1132,listening_fmri,3.2.4,59.89440257473096,
3,parcelated_audio/24/24_32.ogg,,,,,,,,,0,0,0,0,0,3,3,3,0,0,0,0,,,,,,,,,0,0,0,0,0,31,31,31,,,,,,,,,,,,,,,,,,,,,,,,,,,,,,,,,,,,,,,,,,,,466.4805978020004,477.2743518699999,,,,,,,,,,,,,,,,,,,,,,,,,,,,,,,,,,,,,,,,,,,,,,,,,,,,,,,,,,,,,,,112020,0,1,1,2,0,1,2,0,8,2020_Nov_20_1132,listening_fmri,3.2.4,59.89440257473096,
3,,,,,,,,,,0,0,0,0,0,3,3,3,0,0,0,0,,,,,,,,,0,0,0,0,,,,,,,,,,,,,,,,,,,,,,,,,,,,,,,,,,,,,,,,,,,,,,,,,,,,,,,,,,,,,,,,,,,,,,,,,,,,,,,,,,,,,,,,,,,,,,,,,,,,,,,,,,,,,,,,112020,0,1,1,2,0,1,2,0,8,2020_Nov_20_1132,listening_fmri,3.2.4,59.89440257473096,
3,,,,,,,,,,0,0,0,0,0,3,3,3,0,0,0,0,,,,,,,,,,,,,,,,,,,,,,,,,,,,,,,,,,,,,,477.27472438899986,483.27426130300046,572.4178053220003,None,,,,,,,,,,,,,,,,,,,,,578.4175331300003,None,578.4175331300003,None,,,,,,,,,,,,,,,,,,,,,,,,,,,,,,,,,,,,,,,,,,,,,,,,,,,,,,,,,,,112020,0,1,1,2,0,1,2,0,8,2020_Nov_20_1132,listening_fmri,3.2.4,59.89440257473096,
3,,,,,,,,,,0,0,0,0,0,3,3,3,,,,,,,,,,,,,,,,,,,,,,,,,,,,,,,,,,,,,,,,,,,,,,,,,,,,,,,,,,,,,,,,,,,,,,,,,,,,,,,,,,,,,,,,,,,,,,,,,,,,,,,,,,,,,,,,,,,,,,,,,,,,,,,,112020,0,1,1,2,0,1,2,0,8,2020_Nov_20_1132,listening_fmri,3.2.4,59.89440257473096,
