count,audio,trials_14.thisRepN,trials_14.thisTrialN,trials_14.thisN,trials_14.thisIndex,trials_3.thisRepN,trials_3.thisTrialN,trials_3.thisN,trials_3.thisIndex,trials_4.thisRepN,trials_4.thisTrialN,trials_4.thisN,trials_4.thisIndex,trials_6.thisRepN,trials_6.thisTrialN,trials_6.thisN,trials_6.thisIndex,trials_9.thisRepN,trials_9.thisTrialN,trials_9.thisN,trials_9.thisIndex,trials_10.thisRepN,trials_10.thisTrialN,trials_10.thisN,trials_10.thisIndex,trials_11.thisRepN,trials_11.thisTrialN,trials_11.thisN,trials_11.thisIndex,trials_12.thisRepN,trials_12.thisTrialN,trials_12.thisN,trials_12.thisIndex,trials_25.thisRepN,trials_25.thisTrialN,trials_25.thisN,trials_25.thisIndex,trials_15.thisRepN,trials_15.thisTrialN,trials_15.thisN,trials_15.thisIndex,trials_26.thisRepN,trials_26.thisTrialN,trials_26.thisN,trials_26.thisIndex,trials_8.thisRepN,trials_8.thisTrialN,trials_8.thisN,trials_8.thisIndex,story_list_block2,action_list_block2,textTrigger.started,textTrigger.stopped,getTrigger.keys,getTrigger.rt,getTrigger.started,getTrigger.stopped,triggerTime,text_76.started,text_76.stopped,text_77.started,text_77.stopped,startWait,endWait,image_23.started,image_23.stopped,text_55.started,text_55.stopped,text_56.started,text_56.stopped,key_resp_2.keys,key_resp_2.rt,key_resp_2.started,key_resp_2.stopped,text_82.started,text_82.stopped,text_57.started,text_57.stopped,key_resp_17.keys,key_resp_17.rt,key_resp_17.started,key_resp_17.stopped,text_83.started,text_83.stopped,text_60.started,text_60.stopped,image_2.started,image_2.stopped,text_58.started,text_58.stopped,key_resp_23.keys,key_resp_23.rt,key_resp_23.started,key_resp_23.stopped,text_62.started,text_62.stopped,key_resp_18.keys,key_resp_18.rt,key_resp_18.started,key_resp_18.stopped,text_84.started,text_84.stopped,question1_2.started,question1_2.stopped,question2_2.started,question2_2.stopped,question3_2.started,question3_2.stopped,question4_2.started,question4_2.stopped,question5_2.started,question5_2.stopped,question6_2.started,question6_2.stopped,image_15.started,image_15.stopped,key_resp.keys,key_resp.started,key_resp.stopped,text_59.started,text_59.stopped,key_resp_19.keys,key_resp_19.rt,key_resp_19.started,key_resp_19.stopped,text_85.started,text_85.stopped,text_61.started,text_61.stopped,image_17.started,image_17.stopped,text_63.started,text_63.stopped,key_resp_24.keys,key_resp_24.rt,key_resp_24.started,key_resp_24.stopped,text_64.started,text_64.stopped,key_resp_20.keys,key_resp_20.rt,key_resp_20.started,key_resp_20.stopped,storyImage_StartTime,storyImage_EndTime,clip_StartTime,clip_EndTime,text_67.started,text_67.stopped,text_68.started,text_68.stopped,text_36.started,text_36.stopped,participant,sA,sB,lA,lB,block_struct,play_stories,block,behavioral,random_seed,date,expName,psychopyVersion,frameRate,
0,,,,,,,,,,0,0,0,0,0,0,0,0,0,0,0,0,0,0,0,0,0,0,0,0,,,,,,,,,,,,,,,,,,,,,[13 31 24 11 22 44 42 33],[1 3 2 3 4 2 4 1],18.014041341999473,None,equal,33.39486312400004,18.014041341999473,None,33.40890792100072,18.014041341999473,None,18.014041341999473,None,0.00032134499997482635,5.998793564000152,51.42489464499886,None,57.43031052199876,None,57.43031052199876,None,2,3.475590927999292,57.43031052199876,None,57.43031052199876,None,60.925246555998456,None,2,1.5805000029995426,60.925246555998456,None,60.925246555998456,None,62.54158360099973,None,62.54158360099973,None,62.54158360099973,None,2,1.0691365109996696,62.54158360099973,None,63.64203839499896,None,2,1.1608421849996375,63.64203839499896,None,63.64203839499896,None,64.90764951999881,None,64.90764951999881,None,64.90764951999881,None,64.90764951999881,None,64.90764951999881,None,64.90764951999881,None,64.90764951999881,None,None,64.90764951999881,None,,,,,,,,,,,,,,,,,,,,,,,,,,,,,,,,,,,101221,0,2,0,3,0,1,2,0,18,2021_Oct_12_1029,listening_fmri,3.2.4,60.22514967412528,
0,,,,,,,,,,0,0,0,0,0,0,0,0,0,0,0,0,0,0,0,0,,,,,,,,,,,,,,,,,,,,,,,,,,,,,,,,,,,,,,,,,,,,,,,,,,,,,,,,,,,,,,,,,,,,,,,,,,,,,,,,,,,,,,,,,,,,,,,89.75852380200013,None,2,1.8233677640000678,89.75852380200013,None,89.75852380200013,None,91.62506404099986,None,91.62506404099986,None,91.62506404099986,None,2,0.5718385950003722,91.62506404099986,None,,,,,,,,,,,,,,,,,101221,0,2,0,3,0,1,2,0,18,2021_Oct_12_1029,listening_fmri,3.2.4,60.22514967412528,
0,parcelated_audio/13/13_1.ogg,,,,,,,,,0,0,0,0,0,0,0,0,0,0,0,0,,,,,,,,,,,,,0,0,0,0,0,0,0,0,,,,,,,,,,,,,,,,,,,,,,,,,,,,,,,,,,,,,,,,,,,,,,,,,,,,,,,,,,,,,,,,,,,,,,,,,,,,,,,,,,,,,,,,,,,,,,,,,92.24203533499895,None,2,1.0826758300008805,92.24203533499895,None,41.92301850399963,44.932466169999316,44.942008607999014,56.6353465659995,,,,,,,101221,0,2,0,3,0,1,2,0,18,2021_Oct_12_1029,listening_fmri,3.2.4,60.22514967412528,
0,parcelated_audio/13/13_2.ogg,,,,,,,,,0,0,0,0,0,0,0,0,0,0,0,0,,,,,,,,,,,,,0,0,0,0,0,1,1,1,,,,,,,,,,,,,,,,,,,,,,,,,,,,,,,,,,,,,,,,,,,,,,,,,,,,,,,,,,,,,,,,,,,,,,,,,,,,,,,,,,,,,,,,,,,,,,,,,,,,,,,,,56.635893659999056,62.73951861800015,,,,,,,101221,0,2,0,3,0,1,2,0,18,2021_Oct_12_1029,listening_fmri,3.2.4,60.22514967412528,
0,parcelated_audio/13/13_3.ogg,,,,,,,,,0,0,0,0,0,0,0,0,0,0,0,0,,,,,,,,,,,,,0,0,0,0,0,2,2,2,,,,,,,,,,,,,,,,,,,,,,,,,,,,,,,,,,,,,,,,,,,,,,,,,,,,,,,,,,,,,,,,,,,,,,,,,,,,,,,,,,,,,,,,,,,,,,,,,,,,,,,,,62.74008959499952,71.09987392499897,,,,,,,101221,0,2,0,3,0,1,2,0,18,2021_Oct_12_1029,listening_fmri,3.2.4,60.22514967412528,
0,parcelated_audio/13/13_4.ogg,,,,,,,,,0,0,0,0,0,0,0,0,0,0,0,0,,,,,,,,,,,,,0,0,0,0,0,3,3,3,,,,,,,,,,,,,,,,,,,,,,,,,,,,,,,,,,,,,,,,,,,,,,,,,,,,,,,,,,,,,,,,,,,,,,,,,,,,,,,,,,,,,,,,,,,,,,,,,,,,,,,,,71.10132797999904,81.3488863120001,,,,,,,101221,0,2,0,3,0,1,2,0,18,2021_Oct_12_1029,listening_fmri,3.2.4,60.22514967412528,
0,parcelated_audio/13/13_5.ogg,,,,,,,,,0,0,0,0,0,0,0,0,0,0,0,0,,,,,,,,,,,,,0,0,0,0,0,4,4,4,,,,,,,,,,,,,,,,,,,,,,,,,,,,,,,,,,,,,,,,,,,,,,,,,,,,,,,,,,,,,,,,,,,,,,,,,,,,,,,,,,,,,,,,,,,,,,,,,,,,,,,,,81.34924477999994,87.38762963199952,,,,,,,101221,0,2,0,3,0,1,2,0,18,2021_Oct_12_1029,listening_fmri,3.2.4,60.22514967412528,
0,parcelated_audio/13/13_6.ogg,,,,,,,,,0,0,0,0,0,0,0,0,0,0,0,0,,,,,,,,,,,,,0,0,0,0,0,5,5,5,,,,,,,,,,,,,,,,,,,,,,,,,,,,,,,,,,,,,,,,,,,,,,,,,,,,,,,,,,,,,,,,,,,,,,,,,,,,,,,,,,,,,,,,,,,,,,,,,,,,,,,,,87.38798955600032,92.09970877100022,,,,,,,101221,0,2,0,3,0,1,2,0,18,2021_Oct_12_1029,listening_fmri,3.2.4,60.22514967412528,
0,parcelated_audio/13/13_7.ogg,,,,,,,,,0,0,0,0,0,0,0,0,0,0,0,0,,,,,,,,,,,,,0,0,0,0,0,6,6,6,,,,,,,,,,,,,,,,,,,,,,,,,,,,,,,,,,,,,,,,,,,,,,,,,,,,,,,,,,,,,,,,,,,,,,,,,,,,,,,,,,,,,,,,,,,,,,,,,,,,,,,,,92.10006742099904,99.7477135070003,,,,,,,101221,0,2,0,3,0,1,2,0,18,2021_Oct_12_1029,listening_fmri,3.2.4,60.22514967412528,
0,parcelated_audio/13/13_8.ogg,,,,,,,,,0,0,0,0,0,0,0,0,0,0,0,0,,,,,,,,,,,,,0,0,0,0,0,7,7,7,,,,,,,,,,,,,,,,,,,,,,,,,,,,,,,,,,,,,,,,,,,,,,,,,,,,,,,,,,,,,,,,,,,,,,,,,,,,,,,,,,,,,,,,,,,,,,,,,,,,,,,,,99.74807906599926,105.0569055699998,,,,,,,101221,0,2,0,3,0,1,2,0,18,2021_Oct_12_1029,listening_fmri,3.2.4,60.22514967412528,
0,parcelated_audio/13/13_9.ogg,,,,,,,,,0,0,0,0,0,0,0,0,0,0,0,0,,,,,,,,,,,,,0,0,0,0,0,8,8,8,,,,,,,,,,,,,,,,,,,,,,,,,,,,,,,,,,,,,,,,,,,,,,,,,,,,,,,,,,,,,,,,,,,,,,,,,,,,,,,,,,,,,,,,,,,,,,,,,,,,,,,,,105.05727236999883,109.6577326810002,,,,,,,101221,0,2,0,3,0,1,2,0,18,2021_Oct_12_1029,listening_fmri,3.2.4,60.22514967412528,
0,parcelated_audio/13/13_10.ogg,,,,,,,,,0,0,0,0,0,0,0,0,0,0,0,0,,,,,,,,,,,,,0,0,0,0,0,9,9,9,,,,,,,,,,,,,,,,,,,,,,,,,,,,,,,,,,,,,,,,,,,,,,,,,,,,,,,,,,,,,,,,,,,,,,,,,,,,,,,,,,,,,,,,,,,,,,,,,,,,,,,,,109.65809618700041,115.45446287899904,,,,,,,101221,0,2,0,3,0,1,2,0,18,2021_Oct_12_1029,listening_fmri,3.2.4,60.22514967412528,
0,parcelated_audio/13/13_11.ogg,,,,,,,,,0,0,0,0,0,0,0,0,0,0,0,0,,,,,,,,,,,,,0,0,0,0,0,10,10,10,,,,,,,,,,,,,,,,,,,,,,,,,,,,,,,,,,,,,,,,,,,,,,,,,,,,,,,,,,,,,,,,,,,,,,,,,,,,,,,,,,,,,,,,,,,,,,,,,,,,,,,,,115.45482267499938,119.96579767900039,,,,,,,101221,0,2,0,3,0,1,2,0,18,2021_Oct_12_1029,listening_fmri,3.2.4,60.22514967412528,
0,parcelated_audio/13/13_12.ogg,,,,,,,,,0,0,0,0,0,0,0,0,0,0,0,0,,,,,,,,,,,,,0,0,0,0,0,11,11,11,,,,,,,,,,,,,,,,,,,,,,,,,,,,,,,,,,,,,,,,,,,,,,,,,,,,,,,,,,,,,,,,,,,,,,,,,,,,,,,,,,,,,,,,,,,,,,,,,,,,,,,,,119.96639426599904,128.43307296400053,,,,,,,101221,0,2,0,3,0,1,2,0,18,2021_Oct_12_1029,listening_fmri,3.2.4,60.22514967412528,
0,parcelated_audio/13/13_13.ogg,,,,,,,,,0,0,0,0,0,0,0,0,0,0,0,0,,,,,,,,,,,,,0,0,0,0,0,12,12,12,,,,,,,,,,,,,,,,,,,,,,,,,,,,,,,,,,,,,,,,,,,,,,,,,,,,,,,,,,,,,,,,,,,,,,,,,,,,,,,,,,,,,,,,,,,,,,,,,,,,,,,,,128.4338802330003,138.3344558839999,,,,,,,101221,0,2,0,3,0,1,2,0,18,2021_Oct_12_1029,listening_fmri,3.2.4,60.22514967412528,
0,parcelated_audio/13/13_14.ogg,,,,,,,,,0,0,0,0,0,0,0,0,0,0,0,0,,,,,,,,,,,,,0,0,0,0,0,13,13,13,,,,,,,,,,,,,,,,,,,,,,,,,,,,,,,,,,,,,,,,,,,,,,,,,,,,,,,,,,,,,,,,,,,,,,,,,,,,,,,,,,,,,,,,,,,,,,,,,,,,,,,,,138.33501320399955,146.5052764989996,,,,,,,101221,0,2,0,3,0,1,2,0,18,2021_Oct_12_1029,listening_fmri,3.2.4,60.22514967412528,
0,parcelated_audio/13/13_15.ogg,,,,,,,,,0,0,0,0,0,0,0,0,0,0,0,0,,,,,,,,,,,,,0,0,0,0,0,14,14,14,,,,,,,,,,,,,,,,,,,,,,,,,,,,,,,,,,,,,,,,,,,,,,,,,,,,,,,,,,,,,,,,,,,,,,,,,,,,,,,,,,,,,,,,,,,,,,,,,,,,,,,,,146.50563460400008,155.17894857399915,,,,,,,101221,0,2,0,3,0,1,2,0,18,2021_Oct_12_1029,listening_fmri,3.2.4,60.22514967412528,
0,parcelated_audio/13/13_16.ogg,,,,,,,,,0,0,0,0,0,0,0,0,0,0,0,0,,,,,,,,,,,,,0,0,0,0,0,15,15,15,,,,,,,,,,,,,,,,,,,,,,,,,,,,,,,,,,,,,,,,,,,,,,,,,,,,,,,,,,,,,,,,,,,,,,,,,,,,,,,,,,,,,,,,,,,,,,,,,,,,,,,,,155.17931689599936,157.48905644200022,,,,,,,101221,0,2,0,3,0,1,2,0,18,2021_Oct_12_1029,listening_fmri,3.2.4,60.22514967412528,
0,parcelated_audio/13/13_17.ogg,,,,,,,,,0,0,0,0,0,0,0,0,0,0,0,0,,,,,,,,,,,,,0,0,0,0,0,16,16,16,,,,,,,,,,,,,,,,,,,,,,,,,,,,,,,,,,,,,,,,,,,,,,,,,,,,,,,,,,,,,,,,,,,,,,,,,,,,,,,,,,,,,,,,,,,,,,,,,,,,,,,,,157.49056530899907,165.0699972959992,,,,,,,101221,0,2,0,3,0,1,2,0,18,2021_Oct_12_1029,listening_fmri,3.2.4,60.22514967412528,
0,parcelated_audio/13/13_18.ogg,,,,,,,,,0,0,0,0,0,0,0,0,0,0,0,0,,,,,,,,,,,,,0,0,0,0,0,17,17,17,,,,,,,,,,,,,,,,,,,,,,,,,,,,,,,,,,,,,,,,,,,,,,,,,,,,,,,,,,,,,,,,,,,,,,,,,,,,,,,,,,,,,,,,,,,,,,,,,,,,,,,,,165.07056745999944,175.2808069999992,,,,,,,101221,0,2,0,3,0,1,2,0,18,2021_Oct_12_1029,listening_fmri,3.2.4,60.22514967412528,
0,parcelated_audio/13/13_19.ogg,,,,,,,,,0,0,0,0,0,0,0,0,0,0,0,0,,,,,,,,,,,,,0,0,0,0,0,18,18,18,,,,,,,,,,,,,,,,,,,,,,,,,,,,,,,,,,,,,,,,,,,,,,,,,,,,,,,,,,,,,,,,,,,,,,,,,,,,,,,,,,,,,,,,,,,,,,,,,,,,,,,,,175.28117118699993,183.22994266000023,,,,,,,101221,0,2,0,3,0,1,2,0,18,2021_Oct_12_1029,listening_fmri,3.2.4,60.22514967412528,
0,parcelated_audio/13/13_20.ogg,,,,,,,,,0,0,0,0,0,0,0,0,0,0,0,0,,,,,,,,,,,,,0,0,0,0,0,19,19,19,,,,,,,,,,,,,,,,,,,,,,,,,,,,,,,,,,,,,,,,,,,,,,,,,,,,,,,,,,,,,,,,,,,,,,,,,,,,,,,,,,,,,,,,,,,,,,,,,,,,,,,,,183.2303065140004,188.4109917299993,,,,,,,101221,0,2,0,3,0,1,2,0,18,2021_Oct_12_1029,listening_fmri,3.2.4,60.22514967412528,
0,parcelated_audio/13/13_21.ogg,,,,,,,,,0,0,0,0,0,0,0,0,0,0,0,0,,,,,,,,,,,,,0,0,0,0,0,20,20,20,,,,,,,,,,,,,,,,,,,,,,,,,,,,,,,,,,,,,,,,,,,,,,,,,,,,,,,,,,,,,,,,,,,,,,,,,,,,,,,,,,,,,,,,,,,,,,,,,,,,,,,,,188.41155797200008,191.72186262600007,,,,,,,101221,0,2,0,3,0,1,2,0,18,2021_Oct_12_1029,listening_fmri,3.2.4,60.22514967412528,
0,parcelated_audio/13/13_22.ogg,,,,,,,,,0,0,0,0,0,0,0,0,0,0,0,0,,,,,,,,,,,,,0,0,0,0,0,21,21,21,,,,,,,,,,,,,,,,,,,,,,,,,,,,,,,,,,,,,,,,,,,,,,,,,,,,,,,,,,,,,,,,,,,,,,,,,,,,,,,,,,,,,,,,,,,,,,,,,,,,,,,,,191.7222254440003,195.13213274599912,,,,,,,101221,0,2,0,3,0,1,2,0,18,2021_Oct_12_1029,listening_fmri,3.2.4,60.22514967412528,
0,parcelated_audio/13/13_23.ogg,,,,,,,,,0,0,0,0,0,0,0,0,0,0,0,0,,,,,,,,,,,,,0,0,0,0,0,22,22,22,,,,,,,,,,,,,,,,,,,,,,,,,,,,,,,,,,,,,,,,,,,,,,,,,,,,,,,,,,,,,,,,,,,,,,,,,,,,,,,,,,,,,,,,,,,,,,,,,,,,,,,,,195.1326481039996,200.39491882999937,,,,,,,101221,0,2,0,3,0,1,2,0,18,2021_Oct_12_1029,listening_fmri,3.2.4,60.22514967412528,
0,parcelated_audio/13/13_24.ogg,,,,,,,,,0,0,0,0,0,0,0,0,0,0,0,0,,,,,,,,,,,,,0,0,0,0,0,23,23,23,,,,,,,,,,,,,,,,,,,,,,,,,,,,,,,,,,,,,,,,,,,,,,,,,,,,,,,,,,,,,,,,,,,,,,,,,,,,,,,,,,,,,,,,,,,,,,,,,,,,,,,,,200.39808433899998,210.11991662199944,,,,,,,101221,0,2,0,3,0,1,2,0,18,2021_Oct_12_1029,listening_fmri,3.2.4,60.22514967412528,
0,parcelated_audio/13/13_25.ogg,,,,,,,,,0,0,0,0,0,0,0,0,0,0,0,0,,,,,,,,,,,,,0,0,0,0,0,24,24,24,,,,,,,,,,,,,,,,,,,,,,,,,,,,,,,,,,,,,,,,,,,,,,,,,,,,,,,,,,,,,,,,,,,,,,,,,,,,,,,,,,,,,,,,,,,,,,,,,,,,,,,,,210.12028358799944,217.39732208500027,,,,,,,101221,0,2,0,3,0,1,2,0,18,2021_Oct_12_1029,listening_fmri,3.2.4,60.22514967412528,
0,parcelated_audio/13/13_26.ogg,,,,,,,,,0,0,0,0,0,0,0,0,0,0,0,0,,,,,,,,,,,,,0,0,0,0,0,25,25,25,,,,,,,,,,,,,,,,,,,,,,,,,,,,,,,,,,,,,,,,,,,,,,,,,,,,,,,,,,,,,,,,,,,,,,,,,,,,,,,,,,,,,,,,,,,,,,,,,,,,,,,,,217.39770118399974,223.59523347600043,,,,,,,101221,0,2,0,3,0,1,2,0,18,2021_Oct_12_1029,listening_fmri,3.2.4,60.22514967412528,
0,parcelated_audio/13/13_27.ogg,,,,,,,,,0,0,0,0,0,0,0,0,0,0,0,0,,,,,,,,,,,,,0,0,0,0,0,26,26,26,,,,,,,,,,,,,,,,,,,,,,,,,,,,,,,,,,,,,,,,,,,,,,,,,,,,,,,,,,,,,,,,,,,,,,,,,,,,,,,,,,,,,,,,,,,,,,,,,,,,,,,,,223.59663709599954,228.82795609999994,,,,,,,101221,0,2,0,3,0,1,2,0,18,2021_Oct_12_1029,listening_fmri,3.2.4,60.22514967412528,
0,parcelated_audio/13/13_28.ogg,,,,,,,,,0,0,0,0,0,0,0,0,0,0,0,0,,,,,,,,,,,,,0,0,0,0,0,27,27,27,,,,,,,,,,,,,,,,,,,,,,,,,,,,,,,,,,,,,,,,,,,,,,,,,,,,,,,,,,,,,,,,,,,,,,,,,,,,,,,,,,,,,,,,,,,,,,,,,,,,,,,,,228.82844015299997,234.26066969199928,,,,,,,101221,0,2,0,3,0,1,2,0,18,2021_Oct_12_1029,listening_fmri,3.2.4,60.22514967412528,
0,parcelated_audio/13/13_29.ogg,,,,,,,,,0,0,0,0,0,0,0,0,0,0,0,0,,,,,,,,,,,,,0,0,0,0,0,28,28,28,,,,,,,,,,,,,,,,,,,,,,,,,,,,,,,,,,,,,,,,,,,,,,,,,,,,,,,,,,,,,,,,,,,,,,,,,,,,,,,,,,,,,,,,,,,,,,,,,,,,,,,,,234.26116347599964,237.55581144200005,,,,,,,101221,0,2,0,3,0,1,2,0,18,2021_Oct_12_1029,listening_fmri,3.2.4,60.22514967412528,
0,parcelated_audio/13/13_30.ogg,,,,,,,,,0,0,0,0,0,0,0,0,0,0,0,0,,,,,,,,,,,,,0,0,0,0,0,29,29,29,,,,,,,,,,,,,,,,,,,,,,,,,,,,,,,,,,,,,,,,,,,,,,,,,,,,,,,,,,,,,,,,,,,,,,,,,,,,,,,,,,,,,,,,,,,,,,,,,,,,,,,,,237.5561626059989,241.01986095599932,,,,,,,101221,0,2,0,3,0,1,2,0,18,2021_Oct_12_1029,listening_fmri,3.2.4,60.22514967412528,
0,parcelated_audio/13/13_31.ogg,,,,,,,,,0,0,0,0,0,0,0,0,0,0,0,0,,,,,,,,,,,,,0,0,0,0,0,30,30,30,,,,,,,,,,,,,,,,,,,,,,,,,,,,,,,,,,,,,,,,,,,,,,,,,,,,,,,,,,,,,,,,,,,,,,,,,,,,,,,,,,,,,,,,,,,,,,,,,,,,,,,,,241.0204180769997,246.96898512999906,,,,,,,101221,0,2,0,3,0,1,2,0,18,2021_Oct_12_1029,listening_fmri,3.2.4,60.22514967412528,
0,,,,,,,,,,0,0,0,0,0,0,0,0,0,0,0,0,,,,,,,,,,,,,0,0,0,0,,,,,,,,,,,,,,,,,,,,,,,,,,,,,,,,,,,,,,,,,,,,,,,,,,,,,,,,,,,,,,,,,,,,,,,,,,,,,,,,,,,,,,,,,,,,,,,,,,,,,,,,,,,,,,,,,,,,,101221,0,2,0,3,0,1,2,0,18,2021_Oct_12_1029,listening_fmri,3.2.4,60.22514967412528,
0,,,,,,,,,,0,0,0,0,0,0,0,0,0,0,0,0,,,,,,,,,,,,,,,,,,,,,,,,,,,,,,,,,,,,,,,,,,246.96948994599916,252.96514876199944,298.3920390489984,None,,,,,,,,,,,,,,,,,,,,,,,,,,,,,,,,,,,,,,,,,,,,,,,,,,,,,,,,,,,,,,,,,,,,,,,,,,,,,,,,,,304.3920183859991,None,304.3920183859991,None,,,101221,0,2,0,3,0,1,2,0,18,2021_Oct_12_1029,listening_fmri,3.2.4,60.22514967412528,
0,,,,,,,,,,0,0,0,0,0,0,0,0,,,,,,,,,,,,,,,,,,,,,,,,,,,,,,,,,,,,,,,,,,,,,,,,,,,,,,,,,,,,,,,,,,,,,,,,,,,,,,,,,,,,,,,,,,,,,,,,,,,,,,,,,,,,,,,,,,,,,,,,,,,,,,,,,,,,,,,,,101221,0,2,0,3,0,1,2,0,18,2021_Oct_12_1029,listening_fmri,3.2.4,60.22514967412528,
1,,,,,,,,,,0,0,0,0,0,1,1,1,,,,,,,,,,,,,,,,,,,,,,,,,,,,,,,,,,,,,,,,,,,,,,,,,,,,,,,,,,,,,,,,,,,,,,,,,,,,,,,,,,,,,,,,,,,,,,,,,,,,,,,,,,,,,,,,,,,,,,,,,,,,,,,,,,,,,,,,,101221,0,2,0,3,0,1,2,0,18,2021_Oct_12_1029,listening_fmri,3.2.4,60.22514967412528,
2,,,,,,,,,,0,0,0,0,0,2,2,2,0,0,0,0,0,0,0,0,0,0,0,0,,,,,,,,,,,,,,,,,,,,,,,,,,,,,,,,,,,,,,305.3916499930001,None,305.3916499930001,None,2,1.0982588209990354,305.3916499930001,None,305.3916499930001,None,306.50938201699864,None,2,0.8483769159993244,306.50938201699864,None,306.50938201699864,None,307.3917135419997,None,307.3917135419997,None,307.3917135419997,None,2,1.1530587429988373,307.3917135419997,None,308.5753552819988,None,2,0.645532495000225,308.5753552819988,None,308.5753552819988,None,309.3254355559984,None,309.3254355559984,None,309.3254355559984,None,309.3254355559984,None,309.3254355559984,None,309.3254355559984,None,309.3254355559984,None,None,309.3254355559984,None,,,,,,,,,,,,,,,,,,,,,,,,,,,,,,,,,,,101221,0,2,0,3,0,1,2,0,18,2021_Oct_12_1029,listening_fmri,3.2.4,60.22514967412528,
2,,,,,,,,,,0,0,0,0,0,2,2,2,0,0,0,0,0,0,0,0,,,,,,,,,,,,,,,,,,,,,,,,,,,,,,,,,,,,,,,,,,,,,,,,,,,,,,,,,,,,,,,,,,,,,,,,,,,,,,,,,,,,,,,,,,,,,,,338.9421252329994,None,2,1.2317650510012754,338.9421252329994,None,338.9421252329994,None,340.2089809179997,None,340.2089809179997,None,340.2089809179997,None,2,0.7129242499995598,340.2089809179997,None,,,,,,,,,,,,,,,,,101221,0,2,0,3,0,1,2,0,18,2021_Oct_12_1029,listening_fmri,3.2.4,60.22514967412528,
2,parcelated_audio/24/24_1.ogg,,,,,,,,,0,0,0,0,0,2,2,2,0,0,0,0,,,,,,,,,,,,,0,0,0,0,0,0,0,0,,,,,,,,,,,,,,,,,,,,,,,,,,,,,,,,,,,,,,,,,,,,,,,,,,,,,,,,,,,,,,,,,,,,,,,,,,,,,,,,,,,,,,,,,,,,,,,,,340.94232359799935,None,2,6.4834122600004775,340.94232359799935,None,296.05249324099896,299.0659574299989,299.0715440849999,309.4889317039997,,,,,,,101221,0,2,0,3,0,1,2,0,18,2021_Oct_12_1029,listening_fmri,3.2.4,60.22514967412528,
2,parcelated_audio/24/24_2.ogg,,,,,,,,,0,0,0,0,0,2,2,2,0,0,0,0,,,,,,,,,,,,,0,0,0,0,0,1,1,1,,,,,,,,,,,,,,,,,,,,,,,,,,,,,,,,,,,,,,,,,,,,,,,,,,,,,,,,,,,,,,,,,,,,,,,,,,,,,,,,,,,,,,,,,,,,,,,,,,,,,,,,,309.48929277299976,315.9138469009995,,,,,,,101221,0,2,0,3,0,1,2,0,18,2021_Oct_12_1029,listening_fmri,3.2.4,60.22514967412528,
2,parcelated_audio/24/24_3.ogg,,,,,,,,,0,0,0,0,0,2,2,2,0,0,0,0,,,,,,,,,,,,,0,0,0,0,0,2,2,2,,,,,,,,,,,,,,,,,,,,,,,,,,,,,,,,,,,,,,,,,,,,,,,,,,,,,,,,,,,,,,,,,,,,,,,,,,,,,,,,,,,,,,,,,,,,,,,,,,,,,,,,,315.9144303689991,327.50487246299963,,,,,,,101221,0,2,0,3,0,1,2,0,18,2021_Oct_12_1029,listening_fmri,3.2.4,60.22514967412528,
2,parcelated_audio/24/24_4.ogg,,,,,,,,,0,0,0,0,0,2,2,2,0,0,0,0,,,,,,,,,,,,,0,0,0,0,0,3,3,3,,,,,,,,,,,,,,,,,,,,,,,,,,,,,,,,,,,,,,,,,,,,,,,,,,,,,,,,,,,,,,,,,,,,,,,,,,,,,,,,,,,,,,,,,,,,,,,,,,,,,,,,,327.5054768129994,334.40175546499995,,,,,,,101221,0,2,0,3,0,1,2,0,18,2021_Oct_12_1029,listening_fmri,3.2.4,60.22514967412528,
2,parcelated_audio/24/24_5.ogg,,,,,,,,,0,0,0,0,0,2,2,2,0,0,0,0,,,,,,,,,,,,,0,0,0,0,0,4,4,4,,,,,,,,,,,,,,,,,,,,,,,,,,,,,,,,,,,,,,,,,,,,,,,,,,,,,,,,,,,,,,,,,,,,,,,,,,,,,,,,,,,,,,,,,,,,,,,,,,,,,,,,,334.40225272299904,339.36904283699914,,,,,,,101221,0,2,0,3,0,1,2,0,18,2021_Oct_12_1029,listening_fmri,3.2.4,60.22514967412528,
2,parcelated_audio/24/24_6.ogg,,,,,,,,,0,0,0,0,0,2,2,2,0,0,0,0,,,,,,,,,,,,,0,0,0,0,0,5,5,5,,,,,,,,,,,,,,,,,,,,,,,,,,,,,,,,,,,,,,,,,,,,,,,,,,,,,,,,,,,,,,,,,,,,,,,,,,,,,,,,,,,,,,,,,,,,,,,,,,,,,,,,,339.3694088760003,346.82261177500004,,,,,,,101221,0,2,0,3,0,1,2,0,18,2021_Oct_12_1029,listening_fmri,3.2.4,60.22514967412528,
2,parcelated_audio/24/24_7.ogg,,,,,,,,,0,0,0,0,0,2,2,2,0,0,0,0,,,,,,,,,,,,,0,0,0,0,0,6,6,6,,,,,,,,,,,,,,,,,,,,,,,,,,,,,,,,,,,,,,,,,,,,,,,,,,,,,,,,,,,,,,,,,,,,,,,,,,,,,,,,,,,,,,,,,,,,,,,,,,,,,,,,,346.8229866900001,351.20379015399885,,,,,,,101221,0,2,0,3,0,1,2,0,18,2021_Oct_12_1029,listening_fmri,3.2.4,60.22514967412528,
2,parcelated_audio/24/24_8.ogg,,,,,,,,,0,0,0,0,0,2,2,2,0,0,0,0,,,,,,,,,,,,,0,0,0,0,0,7,7,7,,,,,,,,,,,,,,,,,,,,,,,,,,,,,,,,,,,,,,,,,,,,,,,,,,,,,,,,,,,,,,,,,,,,,,,,,,,,,,,,,,,,,,,,,,,,,,,,,,,,,,,,,351.2041543769992,357.2675166709996,,,,,,,101221,0,2,0,3,0,1,2,0,18,2021_Oct_12_1029,listening_fmri,3.2.4,60.22514967412528,
2,parcelated_audio/24/24_9.ogg,,,,,,,,,0,0,0,0,0,2,2,2,0,0,0,0,,,,,,,,,,,,,0,0,0,0,0,8,8,8,,,,,,,,,,,,,,,,,,,,,,,,,,,,,,,,,,,,,,,,,,,,,,,,,,,,,,,,,,,,,,,,,,,,,,,,,,,,,,,,,,,,,,,,,,,,,,,,,,,,,,,,,357.2678278509993,361.5985803169988,,,,,,,101221,0,2,0,3,0,1,2,0,18,2021_Oct_12_1029,listening_fmri,3.2.4,60.22514967412528,
2,parcelated_audio/24/24_10.ogg,,,,,,,,,0,0,0,0,0,2,2,2,0,0,0,0,,,,,,,,,,,,,0,0,0,0,0,9,9,9,,,,,,,,,,,,,,,,,,,,,,,,,,,,,,,,,,,,,,,,,,,,,,,,,,,,,,,,,,,,,,,,,,,,,,,,,,,,,,,,,,,,,,,,,,,,,,,,,,,,,,,,,361.598921498,365.33171118599967,,,,,,,101221,0,2,0,3,0,1,2,0,18,2021_Oct_12_1029,listening_fmri,3.2.4,60.22514967412528,
2,parcelated_audio/24/24_11.ogg,,,,,,,,,0,0,0,0,0,2,2,2,0,0,0,0,,,,,,,,,,,,,0,0,0,0,0,10,10,10,,,,,,,,,,,,,,,,,,,,,,,,,,,,,,,,,,,,,,,,,,,,,,,,,,,,,,,,,,,,,,,,,,,,,,,,,,,,,,,,,,,,,,,,,,,,,,,,,,,,,,,,,365.332071109,375.54590792199997,,,,,,,101221,0,2,0,3,0,1,2,0,18,2021_Oct_12_1029,listening_fmri,3.2.4,60.22514967412528,
2,parcelated_audio/24/24_12.ogg,,,,,,,,,0,0,0,0,0,2,2,2,0,0,0,0,,,,,,,,,,,,,0,0,0,0,0,11,11,11,,,,,,,,,,,,,,,,,,,,,,,,,,,,,,,,,,,,,,,,,,,,,,,,,,,,,,,,,,,,,,,,,,,,,,,,,,,,,,,,,,,,,,,,,,,,,,,,,,,,,,,,,375.5462483629999,384.6220734969993,,,,,,,101221,0,2,0,3,0,1,2,0,18,2021_Oct_12_1029,listening_fmri,3.2.4,60.22514967412528,
2,parcelated_audio/24/24_13.ogg,,,,,,,,,0,0,0,0,0,2,2,2,0,0,0,0,,,,,,,,,,,,,0,0,0,0,0,12,12,12,,,,,,,,,,,,,,,,,,,,,,,,,,,,,,,,,,,,,,,,,,,,,,,,,,,,,,,,,,,,,,,,,,,,,,,,,,,,,,,,,,,,,,,,,,,,,,,,,,,,,,,,,384.6229122179993,388.584834805999,,,,,,,101221,0,2,0,3,0,1,2,0,18,2021_Oct_12_1029,listening_fmri,3.2.4,60.22514967412528,
2,parcelated_audio/24/24_14.ogg,,,,,,,,,0,0,0,0,0,2,2,2,0,0,0,0,,,,,,,,,,,,,0,0,0,0,0,13,13,13,,,,,,,,,,,,,,,,,,,,,,,,,,,,,,,,,,,,,,,,,,,,,,,,,,,,,,,,,,,,,,,,,,,,,,,,,,,,,,,,,,,,,,,,,,,,,,,,,,,,,,,,,388.5852630369991,395.96787185299945,,,,,,,101221,0,2,0,3,0,1,2,0,18,2021_Oct_12_1029,listening_fmri,3.2.4,60.22514967412528,
2,parcelated_audio/24/24_15.ogg,,,,,,,,,0,0,0,0,0,2,2,2,0,0,0,0,,,,,,,,,,,,,0,0,0,0,0,14,14,14,,,,,,,,,,,,,,,,,,,,,,,,,,,,,,,,,,,,,,,,,,,,,,,,,,,,,,,,,,,,,,,,,,,,,,,,,,,,,,,,,,,,,,,,,,,,,,,,,,,,,,,,,395.96822205699937,402.51269726600003,,,,,,,101221,0,2,0,3,0,1,2,0,18,2021_Oct_12_1029,listening_fmri,3.2.4,60.22514967412528,
2,parcelated_audio/24/24_16.ogg,,,,,,,,,0,0,0,0,0,2,2,2,0,0,0,0,,,,,,,,,,,,,0,0,0,0,0,15,15,15,,,,,,,,,,,,,,,,,,,,,,,,,,,,,,,,,,,,,,,,,,,,,,,,,,,,,,,,,,,,,,,,,,,,,,,,,,,,,,,,,,,,,,,,,,,,,,,,,,,,,,,,,402.5130678709993,409.69644614999925,,,,,,,101221,0,2,0,3,0,1,2,0,18,2021_Oct_12_1029,listening_fmri,3.2.4,60.22514967412528,
2,parcelated_audio/24/24_17.ogg,,,,,,,,,0,0,0,0,0,2,2,2,0,0,0,0,,,,,,,,,,,,,0,0,0,0,0,16,16,16,,,,,,,,,,,,,,,,,,,,,,,,,,,,,,,,,,,,,,,,,,,,,,,,,,,,,,,,,,,,,,,,,,,,,,,,,,,,,,,,,,,,,,,,,,,,,,,,,,,,,,,,,409.69686241599993,415.6886019329995,,,,,,,101221,0,2,0,3,0,1,2,0,18,2021_Oct_12_1029,listening_fmri,3.2.4,60.22514967412528,
2,parcelated_audio/24/24_18.ogg,,,,,,,,,0,0,0,0,0,2,2,2,0,0,0,0,,,,,,,,,,,,,0,0,0,0,0,17,17,17,,,,,,,,,,,,,,,,,,,,,,,,,,,,,,,,,,,,,,,,,,,,,,,,,,,,,,,,,,,,,,,,,,,,,,,,,,,,,,,,,,,,,,,,,,,,,,,,,,,,,,,,,415.68968514600056,424.1396551689995,,,,,,,101221,0,2,0,3,0,1,2,0,18,2021_Oct_12_1029,listening_fmri,3.2.4,60.22514967412528,
2,parcelated_audio/24/24_19.ogg,,,,,,,,,0,0,0,0,0,2,2,2,0,0,0,0,,,,,,,,,,,,,0,0,0,0,0,18,18,18,,,,,,,,,,,,,,,,,,,,,,,,,,,,,,,,,,,,,,,,,,,,,,,,,,,,,,,,,,,,,,,,,,,,,,,,,,,,,,,,,,,,,,,,,,,,,,,,,,,,,,,,,424.1400090039988,433.7797391789991,,,,,,,101221,0,2,0,3,0,1,2,0,18,2021_Oct_12_1029,listening_fmri,3.2.4,60.22514967412528,
2,parcelated_audio/24/24_20.ogg,,,,,,,,,0,0,0,0,0,2,2,2,0,0,0,0,,,,,,,,,,,,,0,0,0,0,0,19,19,19,,,,,,,,,,,,,,,,,,,,,,,,,,,,,,,,,,,,,,,,,,,,,,,,,,,,,,,,,,,,,,,,,,,,,,,,,,,,,,,,,,,,,,,,,,,,,,,,,,,,,,,,,433.78009340599965,438.25979282799926,,,,,,,101221,0,2,0,3,0,1,2,0,18,2021_Oct_12_1029,listening_fmri,3.2.4,60.22514967412528,
2,parcelated_audio/24/24_21.ogg,,,,,,,,,0,0,0,0,0,2,2,2,0,0,0,0,,,,,,,,,,,,,0,0,0,0,0,20,20,20,,,,,,,,,,,,,,,,,,,,,,,,,,,,,,,,,,,,,,,,,,,,,,,,,,,,,,,,,,,,,,,,,,,,,,,,,,,,,,,,,,,,,,,,,,,,,,,,,,,,,,,,,438.26015150400053,446.28383921599925,,,,,,,101221,0,2,0,3,0,1,2,0,18,2021_Oct_12_1029,listening_fmri,3.2.4,60.22514967412528,
2,parcelated_audio/24/24_22.ogg,,,,,,,,,0,0,0,0,0,2,2,2,0,0,0,0,,,,,,,,,,,,,0,0,0,0,0,21,21,21,,,,,,,,,,,,,,,,,,,,,,,,,,,,,,,,,,,,,,,,,,,,,,,,,,,,,,,,,,,,,,,,,,,,,,,,,,,,,,,,,,,,,,,,,,,,,,,,,,,,,,,,,446.28420740100046,456.8699115069994,,,,,,,101221,0,2,0,3,0,1,2,0,18,2021_Oct_12_1029,listening_fmri,3.2.4,60.22514967412528,
2,parcelated_audio/24/24_23.ogg,,,,,,,,,0,0,0,0,0,2,2,2,0,0,0,0,,,,,,,,,,,,,0,0,0,0,0,22,22,22,,,,,,,,,,,,,,,,,,,,,,,,,,,,,,,,,,,,,,,,,,,,,,,,,,,,,,,,,,,,,,,,,,,,,,,,,,,,,,,,,,,,,,,,,,,,,,,,,,,,,,,,,456.87026838900056,467.08285199199963,,,,,,,101221,0,2,0,3,0,1,2,0,18,2021_Oct_12_1029,listening_fmri,3.2.4,60.22514967412528,
2,parcelated_audio/24/24_24.ogg,,,,,,,,,0,0,0,0,0,2,2,2,0,0,0,0,,,,,,,,,,,,,0,0,0,0,0,23,23,23,,,,,,,,,,,,,,,,,,,,,,,,,,,,,,,,,,,,,,,,,,,,,,,,,,,,,,,,,,,,,,,,,,,,,,,,,,,,,,,,,,,,,,,,,,,,,,,,,,,,,,,,,467.0843237749996,473.65206840999963,,,,,,,101221,0,2,0,3,0,1,2,0,18,2021_Oct_12_1029,listening_fmri,3.2.4,60.22514967412528,
2,parcelated_audio/24/24_25.ogg,,,,,,,,,0,0,0,0,0,2,2,2,0,0,0,0,,,,,,,,,,,,,0,0,0,0,0,24,24,24,,,,,,,,,,,,,,,,,,,,,,,,,,,,,,,,,,,,,,,,,,,,,,,,,,,,,,,,,,,,,,,,,,,,,,,,,,,,,,,,,,,,,,,,,,,,,,,,,,,,,,,,,473.65243042899965,482.36775261299954,,,,,,,101221,0,2,0,3,0,1,2,0,18,2021_Oct_12_1029,listening_fmri,3.2.4,60.22514967412528,
2,parcelated_audio/24/24_26.ogg,,,,,,,,,0,0,0,0,0,2,2,2,0,0,0,0,,,,,,,,,,,,,0,0,0,0,0,25,25,25,,,,,,,,,,,,,,,,,,,,,,,,,,,,,,,,,,,,,,,,,,,,,,,,,,,,,,,,,,,,,,,,,,,,,,,,,,,,,,,,,,,,,,,,,,,,,,,,,,,,,,,,,482.3681160349988,488.92787097700057,,,,,,,101221,0,2,0,3,0,1,2,0,18,2021_Oct_12_1029,listening_fmri,3.2.4,60.22514967412528,
2,parcelated_audio/24/24_27.ogg,,,,,,,,,0,0,0,0,0,2,2,2,0,0,0,0,,,,,,,,,,,,,0,0,0,0,0,26,26,26,,,,,,,,,,,,,,,,,,,,,,,,,,,,,,,,,,,,,,,,,,,,,,,,,,,,,,,,,,,,,,,,,,,,,,,,,,,,,,,,,,,,,,,,,,,,,,,,,,,,,,,,,488.92825811699913,495.09591686599924,,,,,,,101221,0,2,0,3,0,1,2,0,18,2021_Oct_12_1029,listening_fmri,3.2.4,60.22514967412528,
2,parcelated_audio/24/24_28.ogg,,,,,,,,,0,0,0,0,0,2,2,2,0,0,0,0,,,,,,,,,,,,,0,0,0,0,0,27,27,27,,,,,,,,,,,,,,,,,,,,,,,,,,,,,,,,,,,,,,,,,,,,,,,,,,,,,,,,,,,,,,,,,,,,,,,,,,,,,,,,,,,,,,,,,,,,,,,,,,,,,,,,,495.09628483400047,499.5958419639992,,,,,,,101221,0,2,0,3,0,1,2,0,18,2021_Oct_12_1029,listening_fmri,3.2.4,60.22514967412528,
2,parcelated_audio/24/24_29.ogg,,,,,,,,,0,0,0,0,0,2,2,2,0,0,0,0,,,,,,,,,,,,,0,0,0,0,0,28,28,28,,,,,,,,,,,,,,,,,,,,,,,,,,,,,,,,,,,,,,,,,,,,,,,,,,,,,,,,,,,,,,,,,,,,,,,,,,,,,,,,,,,,,,,,,,,,,,,,,,,,,,,,,499.5963588129998,505.88239564300056,,,,,,,101221,0,2,0,3,0,1,2,0,18,2021_Oct_12_1029,listening_fmri,3.2.4,60.22514967412528,
2,parcelated_audio/24/24_30.ogg,,,,,,,,,0,0,0,0,0,2,2,2,0,0,0,0,,,,,,,,,,,,,0,0,0,0,0,29,29,29,,,,,,,,,,,,,,,,,,,,,,,,,,,,,,,,,,,,,,,,,,,,,,,,,,,,,,,,,,,,,,,,,,,,,,,,,,,,,,,,,,,,,,,,,,,,,,,,,,,,,,,,,505.88275814400004,512.1358299759995,,,,,,,101221,0,2,0,3,0,1,2,0,18,2021_Oct_12_1029,listening_fmri,3.2.4,60.22514967412528,
2,parcelated_audio/24/24_31.ogg,,,,,,,,,0,0,0,0,0,2,2,2,0,0,0,0,,,,,,,,,,,,,0,0,0,0,0,30,30,30,,,,,,,,,,,,,,,,,,,,,,,,,,,,,,,,,,,,,,,,,,,,,,,,,,,,,,,,,,,,,,,,,,,,,,,,,,,,,,,,,,,,,,,,,,,,,,,,,,,,,,,,,512.1372881650004,518.7997134010002,,,,,,,101221,0,2,0,3,0,1,2,0,18,2021_Oct_12_1029,listening_fmri,3.2.4,60.22514967412528,
2,parcelated_audio/24/24_32.ogg,,,,,,,,,0,0,0,0,0,2,2,2,0,0,0,0,,,,,,,,,,,,,0,0,0,0,0,31,31,31,,,,,,,,,,,,,,,,,,,,,,,,,,,,,,,,,,,,,,,,,,,,,,,,,,,,,,,,,,,,,,,,,,,,,,,,,,,,,,,,,,,,,,,,,,,,,,,,,,,,,,,,,518.8000772889991,529.5870501999998,,,,,,,101221,0,2,0,3,0,1,2,0,18,2021_Oct_12_1029,listening_fmri,3.2.4,60.22514967412528,
2,,,,,,,,,,0,0,0,0,0,2,2,2,0,0,0,0,,,,,,,,,,,,,0,0,0,0,,,,,,,,,,,,,,,,,,,,,,,,,,,,,,,,,,,,,,,,,,,,,,,,,,,,,,,,,,,,,,,,,,,,,,,,,,,,,,,,,,,,,,,,,,,,,,,,,,,,,,,,,,,,,,,,,,,,,101221,0,2,0,3,0,1,2,0,18,2021_Oct_12_1029,listening_fmri,3.2.4,60.22514967412528,
2,,,,,,,,,,0,0,0,0,0,2,2,2,0,0,0,0,,,,,,,,,,,,,,,,,,,,,,,,,,,,,,,,,,,,,,,,,,529.5875502159997,535.582758651999,581.0071225579995,None,,,,,,,,,,,,,,,,,,,,,,,,,,,,,,,,,,,,,,,,,,,,,,,,,,,,,,,,,,,,,,,,,,,,,,,,,,,,,,,,,,587.0094031809986,None,587.0094031809986,None,,,101221,0,2,0,3,0,1,2,0,18,2021_Oct_12_1029,listening_fmri,3.2.4,60.22514967412528,
2,,,,,,,,,,0,0,0,0,0,2,2,2,,,,,,,,,,,,,,,,,,,,,,,,,,,,,,,,,,,,,,,,,,,,,,,,,,,,,,,,,,,,,,,,,,,,,,,,,,,,,,,,,,,,,,,,,,,,,,,,,,,,,,,,,,,,,,,,,,,,,,,,,,,,,,,,,,,,,,,,,101221,0,2,0,3,0,1,2,0,18,2021_Oct_12_1029,listening_fmri,3.2.4,60.22514967412528,
3,,,,,,,,,,0,0,0,0,0,3,3,3,,,,,,,,,,,,,,,,,,,,,,,,,,,,,,,,,,,,,,,,,,,,,,,,,,,,,,,,,,,,,,,,,,,,,,,,,,,,,,,,,,,,,,,,,,,,,,,,,,,,,,,,,,,,,,,,,,,,,,,,,,,,,,,,,,,,,,,,,101221,0,2,0,3,0,1,2,0,18,2021_Oct_12_1029,listening_fmri,3.2.4,60.22514967412528,
4,parcelated_audio/22/22_1.ogg,,,,,,,,,0,0,0,0,0,4,4,4,0,0,0,0,,,,,,,,,,,,,0,0,0,0,0,0,0,0,,,,,,,,,,,,,,,,,,,,,,,,,,588.023525614999,None,588.023525614999,None,2,1.474369747998935,588.023525614999,None,588.023525614999,None,,,,,,,,,,,,,,,,,,,,,,,,,,,,,,,,,,,,,,,,,,,,,,,,,,,,,,,,,,,,,,589.525843681,None,2,0.8040453459998389,589.525843681,None,538.9415439000004,541.9488032549998,541.9576231079991,555.0025895529998,,,,,,,101221,0,2,0,3,0,1,2,0,18,2021_Oct_12_1029,listening_fmri,3.2.4,60.22514967412528,
4,parcelated_audio/22/22_2.ogg,,,,,,,,,0,0,0,0,0,4,4,4,0,0,0,0,,,,,,,,,,,,,0,0,0,0,0,1,1,1,,,,,,,,,,,,,,,,,,,,,,,,,,,,,,,,,,,,,,,,,,,,,,,,,,,,,,,,,,,,,,,,,,,,,,,,,,,,,,,,,,,,,,,,,,,,,,,,,,,,,,,,,555.0031220059991,561.3898933420005,,,,,,,101221,0,2,0,3,0,1,2,0,18,2021_Oct_12_1029,listening_fmri,3.2.4,60.22514967412528,
4,parcelated_audio/22/22_3.ogg,,,,,,,,,0,0,0,0,0,4,4,4,0,0,0,0,,,,,,,,,,,,,0,0,0,0,0,2,2,2,,,,,,,,,,,,,,,,,,,,,,,,,,,,,,,,,,,,,,,,,,,,,,,,,,,,,,,,,,,,,,,,,,,,,,,,,,,,,,,,,,,,,,,,,,,,,,,,,,,,,,,,,561.3902609699999,574.3029114000001,,,,,,,101221,0,2,0,3,0,1,2,0,18,2021_Oct_12_1029,listening_fmri,3.2.4,60.22514967412528,
4,parcelated_audio/22/22_4.ogg,,,,,,,,,0,0,0,0,0,4,4,4,0,0,0,0,,,,,,,,,,,,,0,0,0,0,0,3,3,3,,,,,,,,,,,,,,,,,,,,,,,,,,,,,,,,,,,,,,,,,,,,,,,,,,,,,,,,,,,,,,,,,,,,,,,,,,,,,,,,,,,,,,,,,,,,,,,,,,,,,,,,,574.3031943160004,586.718590299999,,,,,,,101221,0,2,0,3,0,1,2,0,18,2021_Oct_12_1029,listening_fmri,3.2.4,60.22514967412528,
4,parcelated_audio/22/22_5.ogg,,,,,,,,,0,0,0,0,0,4,4,4,0,0,0,0,,,,,,,,,,,,,0,0,0,0,0,4,4,4,,,,,,,,,,,,,,,,,,,,,,,,,,,,,,,,,,,,,,,,,,,,,,,,,,,,,,,,,,,,,,,,,,,,,,,,,,,,,,,,,,,,,,,,,,,,,,,,,,,,,,,,,586.7189490500004,592.6490619199994,,,,,,,101221,0,2,0,3,0,1,2,0,18,2021_Oct_12_1029,listening_fmri,3.2.4,60.22514967412528,
4,parcelated_audio/22/22_6.ogg,,,,,,,,,0,0,0,0,0,4,4,4,0,0,0,0,,,,,,,,,,,,,0,0,0,0,0,5,5,5,,,,,,,,,,,,,,,,,,,,,,,,,,,,,,,,,,,,,,,,,,,,,,,,,,,,,,,,,,,,,,,,,,,,,,,,,,,,,,,,,,,,,,,,,,,,,,,,,,,,,,,,,592.6494264789999,601.851969845,,,,,,,101221,0,2,0,3,0,1,2,0,18,2021_Oct_12_1029,listening_fmri,3.2.4,60.22514967412528,
4,parcelated_audio/22/22_7.ogg,,,,,,,,,0,0,0,0,0,4,4,4,0,0,0,0,,,,,,,,,,,,,0,0,0,0,0,6,6,6,,,,,,,,,,,,,,,,,,,,,,,,,,,,,,,,,,,,,,,,,,,,,,,,,,,,,,,,,,,,,,,,,,,,,,,,,,,,,,,,,,,,,,,,,,,,,,,,,,,,,,,,,601.852329506999,606.8412703969989,,,,,,,101221,0,2,0,3,0,1,2,0,18,2021_Oct_12_1029,listening_fmri,3.2.4,60.22514967412528,
4,parcelated_audio/22/22_8.ogg,,,,,,,,,0,0,0,0,0,4,4,4,0,0,0,0,,,,,,,,,,,,,0,0,0,0,0,7,7,7,,,,,,,,,,,,,,,,,,,,,,,,,,,,,,,,,,,,,,,,,,,,,,,,,,,,,,,,,,,,,,,,,,,,,,,,,,,,,,,,,,,,,,,,,,,,,,,,,,,,,,,,,606.8416826190005,610.3627542449995,,,,,,,101221,0,2,0,3,0,1,2,0,18,2021_Oct_12_1029,listening_fmri,3.2.4,60.22514967412528,
4,parcelated_audio/22/22_9.ogg,,,,,,,,,0,0,0,0,0,4,4,4,0,0,0,0,,,,,,,,,,,,,0,0,0,0,0,8,8,8,,,,,,,,,,,,,,,,,,,,,,,,,,,,,,,,,,,,,,,,,,,,,,,,,,,,,,,,,,,,,,,,,,,,,,,,,,,,,,,,,,,,,,,,,,,,,,,,,,,,,,,,,610.3634103780005,614.2478569599989,,,,,,,101221,0,2,0,3,0,1,2,0,18,2021_Oct_12_1029,listening_fmri,3.2.4,60.22514967412528,
4,parcelated_audio/22/22_10.ogg,,,,,,,,,0,0,0,0,0,4,4,4,0,0,0,0,,,,,,,,,,,,,0,0,0,0,0,9,9,9,,,,,,,,,,,,,,,,,,,,,,,,,,,,,,,,,,,,,,,,,,,,,,,,,,,,,,,,,,,,,,,,,,,,,,,,,,,,,,,,,,,,,,,,,,,,,,,,,,,,,,,,,614.2482287059993,619.0216290690005,,,,,,,101221,0,2,0,3,0,1,2,0,18,2021_Oct_12_1029,listening_fmri,3.2.4,60.22514967412528,
4,parcelated_audio/22/22_11.ogg,,,,,,,,,0,0,0,0,0,4,4,4,0,0,0,0,,,,,,,,,,,,,0,0,0,0,0,10,10,10,,,,,,,,,,,,,,,,,,,,,,,,,,,,,,,,,,,,,,,,,,,,,,,,,,,,,,,,,,,,,,,,,,,,,,,,,,,,,,,,,,,,,,,,,,,,,,,,,,,,,,,,,619.0219857470001,626.3069443269997,,,,,,,101221,0,2,0,3,0,1,2,0,18,2021_Oct_12_1029,listening_fmri,3.2.4,60.22514967412528,
4,parcelated_audio/22/22_12.ogg,,,,,,,,,0,0,0,0,0,4,4,4,0,0,0,0,,,,,,,,,,,,,0,0,0,0,0,11,11,11,,,,,,,,,,,,,,,,,,,,,,,,,,,,,,,,,,,,,,,,,,,,,,,,,,,,,,,,,,,,,,,,,,,,,,,,,,,,,,,,,,,,,,,,,,,,,,,,,,,,,,,,,626.3073240649992,634.0409474110002,,,,,,,101221,0,2,0,3,0,1,2,0,18,2021_Oct_12_1029,listening_fmri,3.2.4,60.22514967412528,
4,parcelated_audio/22/22_13.ogg,,,,,,,,,0,0,0,0,0,4,4,4,0,0,0,0,,,,,,,,,,,,,0,0,0,0,0,12,12,12,,,,,,,,,,,,,,,,,,,,,,,,,,,,,,,,,,,,,,,,,,,,,,,,,,,,,,,,,,,,,,,,,,,,,,,,,,,,,,,,,,,,,,,,,,,,,,,,,,,,,,,,,634.0413132069989,641.2981083550003,,,,,,,101221,0,2,0,3,0,1,2,0,18,2021_Oct_12_1029,listening_fmri,3.2.4,60.22514967412528,
4,parcelated_audio/22/22_14.ogg,,,,,,,,,0,0,0,0,0,4,4,4,0,0,0,0,,,,,,,,,,,,,0,0,0,0,0,13,13,13,,,,,,,,,,,,,,,,,,,,,,,,,,,,,,,,,,,,,,,,,,,,,,,,,,,,,,,,,,,,,,,,,,,,,,,,,,,,,,,,,,,,,,,,,,,,,,,,,,,,,,,,,641.2984684019993,646.9150943120003,,,,,,,101221,0,2,0,3,0,1,2,0,18,2021_Oct_12_1029,listening_fmri,3.2.4,60.22514967412528,
4,parcelated_audio/22/22_15.ogg,,,,,,,,,0,0,0,0,0,4,4,4,0,0,0,0,,,,,,,,,,,,,0,0,0,0,0,14,14,14,,,,,,,,,,,,,,,,,,,,,,,,,,,,,,,,,,,,,,,,,,,,,,,,,,,,,,,,,,,,,,,,,,,,,,,,,,,,,,,,,,,,,,,,,,,,,,,,,,,,,,,,,646.9165922859993,654.6909033439988,,,,,,,101221,0,2,0,3,0,1,2,0,18,2021_Oct_12_1029,listening_fmri,3.2.4,60.22514967412528,
4,parcelated_audio/22/22_16.ogg,,,,,,,,,0,0,0,0,0,4,4,4,0,0,0,0,,,,,,,,,,,,,0,0,0,0,0,15,15,15,,,,,,,,,,,,,,,,,,,,,,,,,,,,,,,,,,,,,,,,,,,,,,,,,,,,,,,,,,,,,,,,,,,,,,,,,,,,,,,,,,,,,,,,,,,,,,,,,,,,,,,,,654.691263699,663.4625326099995,,,,,,,101221,0,2,0,3,0,1,2,0,18,2021_Oct_12_1029,listening_fmri,3.2.4,60.22514967412528,
4,parcelated_audio/22/22_17.ogg,,,,,,,,,0,0,0,0,0,4,4,4,0,0,0,0,,,,,,,,,,,,,0,0,0,0,0,16,16,16,,,,,,,,,,,,,,,,,,,,,,,,,,,,,,,,,,,,,,,,,,,,,,,,,,,,,,,,,,,,,,,,,,,,,,,,,,,,,,,,,,,,,,,,,,,,,,,,,,,,,,,,,663.4638427680002,666.6144259640005,,,,,,,101221,0,2,0,3,0,1,2,0,18,2021_Oct_12_1029,listening_fmri,3.2.4,60.22514967412528,
4,parcelated_audio/22/22_18.ogg,,,,,,,,,0,0,0,0,0,4,4,4,0,0,0,0,,,,,,,,,,,,,0,0,0,0,0,17,17,17,,,,,,,,,,,,,,,,,,,,,,,,,,,,,,,,,,,,,,,,,,,,,,,,,,,,,,,,,,,,,,,,,,,,,,,,,,,,,,,,,,,,,,,,,,,,,,,,,,,,,,,,,666.6150125789991,673.3466904340003,,,,,,,101221,0,2,0,3,0,1,2,0,18,2021_Oct_12_1029,listening_fmri,3.2.4,60.22514967412528,
4,parcelated_audio/22/22_19.ogg,,,,,,,,,0,0,0,0,0,4,4,4,0,0,0,0,,,,,,,,,,,,,0,0,0,0,0,18,18,18,,,,,,,,,,,,,,,,,,,,,,,,,,,,,,,,,,,,,,,,,,,,,,,,,,,,,,,,,,,,,,,,,,,,,,,,,,,,,,,,,,,,,,,,,,,,,,,,,,,,,,,,,673.3480788910001,678.3132806779995,,,,,,,101221,0,2,0,3,0,1,2,0,18,2021_Oct_12_1029,listening_fmri,3.2.4,60.22514967412528,
4,parcelated_audio/22/22_20.ogg,,,,,,,,,0,0,0,0,0,4,4,4,0,0,0,0,,,,,,,,,,,,,0,0,0,0,0,19,19,19,,,,,,,,,,,,,,,,,,,,,,,,,,,,,,,,,,,,,,,,,,,,,,,,,,,,,,,,,,,,,,,,,,,,,,,,,,,,,,,,,,,,,,,,,,,,,,,,,,,,,,,,,678.3137063069989,692.5329559910006,,,,,,,101221,0,2,0,3,0,1,2,0,18,2021_Oct_12_1029,listening_fmri,3.2.4,60.22514967412528,
4,parcelated_audio/22/22_21.ogg,,,,,,,,,0,0,0,0,0,4,4,4,0,0,0,0,,,,,,,,,,,,,0,0,0,0,0,20,20,20,,,,,,,,,,,,,,,,,,,,,,,,,,,,,,,,,,,,,,,,,,,,,,,,,,,,,,,,,,,,,,,,,,,,,,,,,,,,,,,,,,,,,,,,,,,,,,,,,,,,,,,,,692.5333181120004,694.5500782670006,,,,,,,101221,0,2,0,3,0,1,2,0,18,2021_Oct_12_1029,listening_fmri,3.2.4,60.22514967412528,
4,parcelated_audio/22/22_22.ogg,,,,,,,,,0,0,0,0,0,4,4,4,0,0,0,0,,,,,,,,,,,,,0,0,0,0,0,21,21,21,,,,,,,,,,,,,,,,,,,,,,,,,,,,,,,,,,,,,,,,,,,,,,,,,,,,,,,,,,,,,,,,,,,,,,,,,,,,,,,,,,,,,,,,,,,,,,,,,,,,,,,,,694.5504557929999,697.7006612160003,,,,,,,101221,0,2,0,3,0,1,2,0,18,2021_Oct_12_1029,listening_fmri,3.2.4,60.22514967412528,
4,parcelated_audio/22/22_23.ogg,,,,,,,,,0,0,0,0,0,4,4,4,0,0,0,0,,,,,,,,,,,,,0,0,0,0,0,22,22,22,,,,,,,,,,,,,,,,,,,,,,,,,,,,,,,,,,,,,,,,,,,,,,,,,,,,,,,,,,,,,,,,,,,,,,,,,,,,,,,,,,,,,,,,,,,,,,,,,,,,,,,,,697.7012817229988,704.2254003500002,,,,,,,101221,0,2,0,3,0,1,2,0,18,2021_Oct_12_1029,listening_fmri,3.2.4,60.22514967412528,
4,parcelated_audio/22/22_24.ogg,,,,,,,,,0,0,0,0,0,4,4,4,0,0,0,0,,,,,,,,,,,,,0,0,0,0,0,23,23,23,,,,,,,,,,,,,,,,,,,,,,,,,,,,,,,,,,,,,,,,,,,,,,,,,,,,,,,,,,,,,,,,,,,,,,,,,,,,,,,,,,,,,,,,,,,,,,,,,,,,,,,,,704.2258246139991,709.9533093320006,,,,,,,101221,0,2,0,3,0,1,2,0,18,2021_Oct_12_1029,listening_fmri,3.2.4,60.22514967412528,
4,parcelated_audio/22/22_25.ogg,,,,,,,,,0,0,0,0,0,4,4,4,0,0,0,0,,,,,,,,,,,,,0,0,0,0,0,24,24,24,,,,,,,,,,,,,,,,,,,,,,,,,,,,,,,,,,,,,,,,,,,,,,,,,,,,,,,,,,,,,,,,,,,,,,,,,,,,,,,,,,,,,,,,,,,,,,,,,,,,,,,,,709.9536704679995,722.6519454480003,,,,,,,101221,0,2,0,3,0,1,2,0,18,2021_Oct_12_1029,listening_fmri,3.2.4,60.22514967412528,
4,parcelated_audio/22/22_26.ogg,,,,,,,,,0,0,0,0,0,4,4,4,0,0,0,0,,,,,,,,,,,,,0,0,0,0,0,25,25,25,,,,,,,,,,,,,,,,,,,,,,,,,,,,,,,,,,,,,,,,,,,,,,,,,,,,,,,,,,,,,,,,,,,,,,,,,,,,,,,,,,,,,,,,,,,,,,,,,,,,,,,,,722.6523014939994,729.3870047689998,,,,,,,101221,0,2,0,3,0,1,2,0,18,2021_Oct_12_1029,listening_fmri,3.2.4,60.22514967412528,
4,parcelated_audio/22/22_27.ogg,,,,,,,,,0,0,0,0,0,4,4,4,0,0,0,0,,,,,,,,,,,,,0,0,0,0,0,26,26,26,,,,,,,,,,,,,,,,,,,,,,,,,,,,,,,,,,,,,,,,,,,,,,,,,,,,,,,,,,,,,,,,,,,,,,,,,,,,,,,,,,,,,,,,,,,,,,,,,,,,,,,,,729.3873727369992,733.7809899599997,,,,,,,101221,0,2,0,3,0,1,2,0,18,2021_Oct_12_1029,listening_fmri,3.2.4,60.22514967412528,
4,parcelated_audio/22/22_28.ogg,,,,,,,,,0,0,0,0,0,4,4,4,0,0,0,0,,,,,,,,,,,,,0,0,0,0,0,27,27,27,,,,,,,,,,,,,,,,,,,,,,,,,,,,,,,,,,,,,,,,,,,,,,,,,,,,,,,,,,,,,,,,,,,,,,,,,,,,,,,,,,,,,,,,,,,,,,,,,,,,,,,,,733.7821703059999,739.5425760929993,,,,,,,101221,0,2,0,3,0,1,2,0,18,2021_Oct_12_1029,listening_fmri,3.2.4,60.22514967412528,
4,parcelated_audio/22/22_29.ogg,,,,,,,,,0,0,0,0,0,4,4,4,0,0,0,0,,,,,,,,,,,,,0,0,0,0,0,28,28,28,,,,,,,,,,,,,,,,,,,,,,,,,,,,,,,,,,,,,,,,,,,,,,,,,,,,,,,,,,,,,,,,,,,,,,,,,,,,,,,,,,,,,,,,,,,,,,,,,,,,,,,,,739.5429266789997,745.2644662149996,,,,,,,101221,0,2,0,3,0,1,2,0,18,2021_Oct_12_1029,listening_fmri,3.2.4,60.22514967412528,
4,parcelated_audio/22/22_30.ogg,,,,,,,,,0,0,0,0,0,4,4,4,0,0,0,0,,,,,,,,,,,,,0,0,0,0,0,29,29,29,,,,,,,,,,,,,,,,,,,,,,,,,,,,,,,,,,,,,,,,,,,,,,,,,,,,,,,,,,,,,,,,,,,,,,,,,,,,,,,,,,,,,,,,,,,,,,,,,,,,,,,,,745.2648302409998,747.9816709709994,,,,,,,101221,0,2,0,3,0,1,2,0,18,2021_Oct_12_1029,listening_fmri,3.2.4,60.22514967412528,
4,parcelated_audio/22/22_31.ogg,,,,,,,,,0,0,0,0,0,4,4,4,0,0,0,0,,,,,,,,,,,,,0,0,0,0,0,30,30,30,,,,,,,,,,,,,,,,,,,,,,,,,,,,,,,,,,,,,,,,,,,,,,,,,,,,,,,,,,,,,,,,,,,,,,,,,,,,,,,,,,,,,,,,,,,,,,,,,,,,,,,,,747.9822360599992,753.1345326779992,,,,,,,101221,0,2,0,3,0,1,2,0,18,2021_Oct_12_1029,listening_fmri,3.2.4,60.22514967412528,
4,parcelated_audio/22/22_32.ogg,,,,,,,,,0,0,0,0,0,4,4,4,0,0,0,0,,,,,,,,,,,,,0,0,0,0,0,31,31,31,,,,,,,,,,,,,,,,,,,,,,,,,,,,,,,,,,,,,,,,,,,,,,,,,,,,,,,,,,,,,,,,,,,,,,,,,,,,,,,,,,,,,,,,,,,,,,,,,,,,,,,,,753.1350647509989,759.4659365539992,,,,,,,101221,0,2,0,3,0,1,2,0,18,2021_Oct_12_1029,listening_fmri,3.2.4,60.22514967412528,
4,parcelated_audio/22/22_33.ogg,,,,,,,,,0,0,0,0,0,4,4,4,0,0,0,0,,,,,,,,,,,,,0,0,0,0,0,32,32,32,,,,,,,,,,,,,,,,,,,,,,,,,,,,,,,,,,,,,,,,,,,,,,,,,,,,,,,,,,,,,,,,,,,,,,,,,,,,,,,,,,,,,,,,,,,,,,,,,,,,,,,,,759.4662983729995,763.917999669,,,,,,,101221,0,2,0,3,0,1,2,0,18,2021_Oct_12_1029,listening_fmri,3.2.4,60.22514967412528,
4,parcelated_audio/22/22_34.ogg,,,,,,,,,0,0,0,0,0,4,4,4,0,0,0,0,,,,,,,,,,,,,0,0,0,0,0,33,33,33,,,,,,,,,,,,,,,,,,,,,,,,,,,,,,,,,,,,,,,,,,,,,,,,,,,,,,,,,,,,,,,,,,,,,,,,,,,,,,,,,,,,,,,,,,,,,,,,,,,,,,,,,763.9182884910006,771.9824788459991,,,,,,,101221,0,2,0,3,0,1,2,0,18,2021_Oct_12_1029,listening_fmri,3.2.4,60.22514967412528,
4,parcelated_audio/22/22_35.ogg,,,,,,,,,0,0,0,0,0,4,4,4,0,0,0,0,,,,,,,,,,,,,0,0,0,0,0,34,34,34,,,,,,,,,,,,,,,,,,,,,,,,,,,,,,,,,,,,,,,,,,,,,,,,,,,,,,,,,,,,,,,,,,,,,,,,,,,,,,,,,,,,,,,,,,,,,,,,,,,,,,,,,771.9835754859996,779.4898787839993,,,,,,,101221,0,2,0,3,0,1,2,0,18,2021_Oct_12_1029,listening_fmri,3.2.4,60.22514967412528,
4,parcelated_audio/22/22_36.ogg,,,,,,,,,0,0,0,0,0,4,4,4,0,0,0,0,,,,,,,,,,,,,0,0,0,0,0,35,35,35,,,,,,,,,,,,,,,,,,,,,,,,,,,,,,,,,,,,,,,,,,,,,,,,,,,,,,,,,,,,,,,,,,,,,,,,,,,,,,,,,,,,,,,,,,,,,,,,,,,,,,,,,779.4901605079995,792.1965115769999,,,,,,,101221,0,2,0,3,0,1,2,0,18,2021_Oct_12_1029,listening_fmri,3.2.4,60.22514967412528,
4,parcelated_audio/22/22_37.ogg,,,,,,,,,0,0,0,0,0,4,4,4,0,0,0,0,,,,,,,,,,,,,0,0,0,0,0,36,36,36,,,,,,,,,,,,,,,,,,,,,,,,,,,,,,,,,,,,,,,,,,,,,,,,,,,,,,,,,,,,,,,,,,,,,,,,,,,,,,,,,,,,,,,,,,,,,,,,,,,,,,,,,792.1968748649997,799.388421235999,,,,,,,101221,0,2,0,3,0,1,2,0,18,2021_Oct_12_1029,listening_fmri,3.2.4,60.22514967412528,
4,,,,,,,,,,0,0,0,0,0,4,4,4,0,0,0,0,,,,,,,,,,,,,0,0,0,0,,,,,,,,,,,,,,,,,,,,,,,,,,,,,,,,,,,,,,,,,,,,,,,,,,,,,,,,,,,,,,,,,,,,,,,,,,,,,,,,,,,,,,,,,,,,,,,,,,,,,,,,,,,,,,,,,,,,,101221,0,2,0,3,0,1,2,0,18,2021_Oct_12_1029,listening_fmri,3.2.4,60.22514967412528,
4,,,,,,,,,,0,0,0,0,0,4,4,4,0,0,0,0,,,,,,,,,,,,,,,,,,,,,,,,,,,,,,,,,,,,,,,,,,799.3888627899996,805.3765064010004,850.8027648339994,None,,,,,,,,,,,,,,,,,,,,,,,,,,,,,,,,,,,,,,,,,,,,,,,,,,,,,,,,,,,,,,,,,,,,,,,,,,,,,,,,,,856.8036270859993,None,856.8036270859993,None,,,101221,0,2,0,3,0,1,2,0,18,2021_Oct_12_1029,listening_fmri,3.2.4,60.22514967412528,
4,,,,,,,,,,0,0,0,0,0,4,4,4,,,,,,,,,,,,,,,,,,,,,,,,,,,,,,,,,,,,,,,,,,,,,,,,,,,,,,,,,,,,,,,,,,,,,,,,,,,,,,,,,,,,,,,,,,,,,,,,,,,,,,,,,,,,,,,,,,,,,,,,,,,,,,,,,,,,,,,,,101221,0,2,0,3,0,1,2,0,18,2021_Oct_12_1029,listening_fmri,3.2.4,60.22514967412528,
5,,,,,,,,,,0,0,0,0,0,5,5,5,0,0,0,0,0,0,0,0,0,0,0,0,,,,,,,,,,,,,,,,,,,,,,,,,,,,,,,,,,,,,,857.8268129549997,None,857.8268129549997,None,2,0.9649036850005359,857.8268129549997,None,857.8268129549997,None,858.8107276289993,None,2,0.8241705719992751,858.8107276289993,None,858.8107276289993,None,859.6696670349993,None,859.6696670349993,None,859.6696670349993,None,2,0.807087256000159,859.6696670349993,None,860.4937730069996,None,2,1.3881283959999564,860.4937730069996,None,860.4937730069996,None,861.9699314999998,None,861.9699314999998,None,861.9699314999998,None,861.9699314999998,None,861.9699314999998,None,861.9699314999998,None,861.9699314999998,None,None,861.9699314999998,None,,,,,,,,,,,,,,,,,,,,,,,,,,,,,,,,,,,101221,0,2,0,3,0,1,2,0,18,2021_Oct_12_1029,listening_fmri,3.2.4,60.22514967412528,
5,,,,,,,,,,0,0,0,0,0,5,5,5,0,0,0,0,0,0,0,0,,,,,,,,,,,,,,,,,,,,,,,,,,,,,,,,,,,,,,,,,,,,,,,,,,,,,,,,,,,,,,,,,,,,,,,,,,,,,,,,,,,,,,,,,,,,,,,880.1442066039999,None,2,2.0335551159987517,880.1442066039999,None,880.1442066039999,None,882.2200710649995,None,882.2200710649995,None,882.2200710649995,None,2,0.7236851600009686,882.2200710649995,None,,,,,,,,,,,,,,,,,101221,0,2,0,3,0,1,2,0,18,2021_Oct_12_1029,listening_fmri,3.2.4,60.22514967412528,
5,parcelated_audio/44/44_1.ogg,,,,,,,,,0,0,0,0,0,5,5,5,0,0,0,0,,,,,,,,,,,,,0,0,0,0,0,0,0,0,,,,,,,,,,,,,,,,,,,,,,,,,,,,,,,,,,,,,,,,,,,,,,,,,,,,,,,,,,,,,,,,,,,,,,,,,,,,,,,,,,,,,,,,,,,,,,,,,882.9770821319999,None,2,0.8798011669987318,882.9770821319999,None,832.4893715180006,835.5004222429998,835.5057447380004,843.4279052580005,,,,,,,101221,0,2,0,3,0,1,2,0,18,2021_Oct_12_1029,listening_fmri,3.2.4,60.22514967412528,
5,parcelated_audio/44/44_2.ogg,,,,,,,,,0,0,0,0,0,5,5,5,0,0,0,0,,,,,,,,,,,,,0,0,0,0,0,1,1,1,,,,,,,,,,,,,,,,,,,,,,,,,,,,,,,,,,,,,,,,,,,,,,,,,,,,,,,,,,,,,,,,,,,,,,,,,,,,,,,,,,,,,,,,,,,,,,,,,,,,,,,,,843.4284858339997,852.5559586479994,,,,,,,101221,0,2,0,3,0,1,2,0,18,2021_Oct_12_1029,listening_fmri,3.2.4,60.22514967412528,
5,parcelated_audio/44/44_3.ogg,,,,,,,,,0,0,0,0,0,5,5,5,0,0,0,0,,,,,,,,,,,,,0,0,0,0,0,2,2,2,,,,,,,,,,,,,,,,,,,,,,,,,,,,,,,,,,,,,,,,,,,,,,,,,,,,,,,,,,,,,,,,,,,,,,,,,,,,,,,,,,,,,,,,,,,,,,,,,,,,,,,,,852.5563238590003,858.0052374999996,,,,,,,101221,0,2,0,3,0,1,2,0,18,2021_Oct_12_1029,listening_fmri,3.2.4,60.22514967412528,
5,parcelated_audio/44/44_4.ogg,,,,,,,,,0,0,0,0,0,5,5,5,0,0,0,0,,,,,,,,,,,,,0,0,0,0,0,3,3,3,,,,,,,,,,,,,,,,,,,,,,,,,,,,,,,,,,,,,,,,,,,,,,,,,,,,,,,,,,,,,,,,,,,,,,,,,,,,,,,,,,,,,,,,,,,,,,,,,,,,,,,,,858.0054893550005,863.08160598,,,,,,,101221,0,2,0,3,0,1,2,0,18,2021_Oct_12_1029,listening_fmri,3.2.4,60.22514967412528,
5,parcelated_audio/44/44_5.ogg,,,,,,,,,0,0,0,0,0,5,5,5,0,0,0,0,,,,,,,,,,,,,0,0,0,0,0,4,4,4,,,,,,,,,,,,,,,,,,,,,,,,,,,,,,,,,,,,,,,,,,,,,,,,,,,,,,,,,,,,,,,,,,,,,,,,,,,,,,,,,,,,,,,,,,,,,,,,,,,,,,,,,863.0819067829998,869.3132877949993,,,,,,,101221,0,2,0,3,0,1,2,0,18,2021_Oct_12_1029,listening_fmri,3.2.4,60.22514967412528,
5,parcelated_audio/44/44_6.ogg,,,,,,,,,0,0,0,0,0,5,5,5,0,0,0,0,,,,,,,,,,,,,0,0,0,0,0,5,5,5,,,,,,,,,,,,,,,,,,,,,,,,,,,,,,,,,,,,,,,,,,,,,,,,,,,,,,,,,,,,,,,,,,,,,,,,,,,,,,,,,,,,,,,,,,,,,,,,,,,,,,,,,869.3137408109997,876.2570494659994,,,,,,,101221,0,2,0,3,0,1,2,0,18,2021_Oct_12_1029,listening_fmri,3.2.4,60.22514967412528,
5,parcelated_audio/44/44_7.ogg,,,,,,,,,0,0,0,0,0,5,5,5,0,0,0,0,,,,,,,,,,,,,0,0,0,0,0,6,6,6,,,,,,,,,,,,,,,,,,,,,,,,,,,,,,,,,,,,,,,,,,,,,,,,,,,,,,,,,,,,,,,,,,,,,,,,,,,,,,,,,,,,,,,,,,,,,,,,,,,,,,,,,876.2574089009995,882.2837697409996,,,,,,,101221,0,2,0,3,0,1,2,0,18,2021_Oct_12_1029,listening_fmri,3.2.4,60.22514967412528,
5,parcelated_audio/44/44_8.ogg,,,,,,,,,0,0,0,0,0,5,5,5,0,0,0,0,,,,,,,,,,,,,0,0,0,0,0,7,7,7,,,,,,,,,,,,,,,,,,,,,,,,,,,,,,,,,,,,,,,,,,,,,,,,,,,,,,,,,,,,,,,,,,,,,,,,,,,,,,,,,,,,,,,,,,,,,,,,,,,,,,,,,882.2852334679992,886.5496601689993,,,,,,,101221,0,2,0,3,0,1,2,0,18,2021_Oct_12_1029,listening_fmri,3.2.4,60.22514967412528,
5,parcelated_audio/44/44_9.ogg,,,,,,,,,0,0,0,0,0,5,5,5,0,0,0,0,,,,,,,,,,,,,0,0,0,0,0,8,8,8,,,,,,,,,,,,,,,,,,,,,,,,,,,,,,,,,,,,,,,,,,,,,,,,,,,,,,,,,,,,,,,,,,,,,,,,,,,,,,,,,,,,,,,,,,,,,,,,,,,,,,,,,886.5509911280005,890.2459751240003,,,,,,,101221,0,2,0,3,0,1,2,0,18,2021_Oct_12_1029,listening_fmri,3.2.4,60.22514967412528,
5,parcelated_audio/44/44_10.ogg,,,,,,,,,0,0,0,0,0,5,5,5,0,0,0,0,,,,,,,,,,,,,0,0,0,0,0,9,9,9,,,,,,,,,,,,,,,,,,,,,,,,,,,,,,,,,,,,,,,,,,,,,,,,,,,,,,,,,,,,,,,,,,,,,,,,,,,,,,,,,,,,,,,,,,,,,,,,,,,,,,,,,890.2463378600005,900.362072386999,,,,,,,101221,0,2,0,3,0,1,2,0,18,2021_Oct_12_1029,listening_fmri,3.2.4,60.22514967412528,
5,parcelated_audio/44/44_11.ogg,,,,,,,,,0,0,0,0,0,5,5,5,0,0,0,0,,,,,,,,,,,,,0,0,0,0,0,10,10,10,,,,,,,,,,,,,,,,,,,,,,,,,,,,,,,,,,,,,,,,,,,,,,,,,,,,,,,,,,,,,,,,,,,,,,,,,,,,,,,,,,,,,,,,,,,,,,,,,,,,,,,,,900.3625330880004,903.9070007669998,,,,,,,101221,0,2,0,3,0,1,2,0,18,2021_Oct_12_1029,listening_fmri,3.2.4,60.22514967412528,
5,parcelated_audio/44/44_12.ogg,,,,,,,,,0,0,0,0,0,5,5,5,0,0,0,0,,,,,,,,,,,,,0,0,0,0,0,11,11,11,,,,,,,,,,,,,,,,,,,,,,,,,,,,,,,,,,,,,,,,,,,,,,,,,,,,,,,,,,,,,,,,,,,,,,,,,,,,,,,,,,,,,,,,,,,,,,,,,,,,,,,,,903.907359072,914.5119318100005,,,,,,,101221,0,2,0,3,0,1,2,0,18,2021_Oct_12_1029,listening_fmri,3.2.4,60.22514967412528,
5,parcelated_audio/44/44_13.ogg,,,,,,,,,0,0,0,0,0,5,5,5,0,0,0,0,,,,,,,,,,,,,0,0,0,0,0,12,12,12,,,,,,,,,,,,,,,,,,,,,,,,,,,,,,,,,,,,,,,,,,,,,,,,,,,,,,,,,,,,,,,,,,,,,,,,,,,,,,,,,,,,,,,,,,,,,,,,,,,,,,,,,914.5123015609988,921.6723177909989,,,,,,,101221,0,2,0,3,0,1,2,0,18,2021_Oct_12_1029,listening_fmri,3.2.4,60.22514967412528,
5,parcelated_audio/44/44_14.ogg,,,,,,,,,0,0,0,0,0,5,5,5,0,0,0,0,,,,,,,,,,,,,0,0,0,0,0,13,13,13,,,,,,,,,,,,,,,,,,,,,,,,,,,,,,,,,,,,,,,,,,,,,,,,,,,,,,,,,,,,,,,,,,,,,,,,,,,,,,,,,,,,,,,,,,,,,,,,,,,,,,,,,921.672711195999,927.9850300130001,,,,,,,101221,0,2,0,3,0,1,2,0,18,2021_Oct_12_1029,listening_fmri,3.2.4,60.22514967412528,
5,parcelated_audio/44/44_15.ogg,,,,,,,,,0,0,0,0,0,5,5,5,0,0,0,0,,,,,,,,,,,,,0,0,0,0,0,14,14,14,,,,,,,,,,,,,,,,,,,,,,,,,,,,,,,,,,,,,,,,,,,,,,,,,,,,,,,,,,,,,,,,,,,,,,,,,,,,,,,,,,,,,,,,,,,,,,,,,,,,,,,,,927.9853158629994,932.0676483879997,,,,,,,101221,0,2,0,3,0,1,2,0,18,2021_Oct_12_1029,listening_fmri,3.2.4,60.22514967412528,
5,parcelated_audio/44/44_16.ogg,,,,,,,,,0,0,0,0,0,5,5,5,0,0,0,0,,,,,,,,,,,,,0,0,0,0,0,15,15,15,,,,,,,,,,,,,,,,,,,,,,,,,,,,,,,,,,,,,,,,,,,,,,,,,,,,,,,,,,,,,,,,,,,,,,,,,,,,,,,,,,,,,,,,,,,,,,,,,,,,,,,,,932.0681433159989,936.1159350340004,,,,,,,101221,0,2,0,3,0,1,2,0,18,2021_Oct_12_1029,listening_fmri,3.2.4,60.22514967412528,
5,parcelated_audio/44/44_17.ogg,,,,,,,,,0,0,0,0,0,5,5,5,0,0,0,0,,,,,,,,,,,,,0,0,0,0,0,16,16,16,,,,,,,,,,,,,,,,,,,,,,,,,,,,,,,,,,,,,,,,,,,,,,,,,,,,,,,,,,,,,,,,,,,,,,,,,,,,,,,,,,,,,,,,,,,,,,,,,,,,,,,,,936.1164752619989,944.5932124809988,,,,,,,101221,0,2,0,3,0,1,2,0,18,2021_Oct_12_1029,listening_fmri,3.2.4,60.22514967412528,
5,parcelated_audio/44/44_18.ogg,,,,,,,,,0,0,0,0,0,5,5,5,0,0,0,0,,,,,,,,,,,,,0,0,0,0,0,17,17,17,,,,,,,,,,,,,,,,,,,,,,,,,,,,,,,,,,,,,,,,,,,,,,,,,,,,,,,,,,,,,,,,,,,,,,,,,,,,,,,,,,,,,,,,,,,,,,,,,,,,,,,,,944.5935735450003,954.435771942999,,,,,,,101221,0,2,0,3,0,1,2,0,18,2021_Oct_12_1029,listening_fmri,3.2.4,60.22514967412528,
5,parcelated_audio/44/44_19.ogg,,,,,,,,,0,0,0,0,0,5,5,5,0,0,0,0,,,,,,,,,,,,,0,0,0,0,0,18,18,18,,,,,,,,,,,,,,,,,,,,,,,,,,,,,,,,,,,,,,,,,,,,,,,,,,,,,,,,,,,,,,,,,,,,,,,,,,,,,,,,,,,,,,,,,,,,,,,,,,,,,,,,,954.4363204309993,965.4198538359997,,,,,,,101221,0,2,0,3,0,1,2,0,18,2021_Oct_12_1029,listening_fmri,3.2.4,60.22514967412528,
5,parcelated_audio/44/44_20.ogg,,,,,,,,,0,0,0,0,0,5,5,5,0,0,0,0,,,,,,,,,,,,,0,0,0,0,0,19,19,19,,,,,,,,,,,,,,,,,,,,,,,,,,,,,,,,,,,,,,,,,,,,,,,,,,,,,,,,,,,,,,,,,,,,,,,,,,,,,,,,,,,,,,,,,,,,,,,,,,,,,,,,,965.4202073779998,973.6519004679994,,,,,,,101221,0,2,0,3,0,1,2,0,18,2021_Oct_12_1029,listening_fmri,3.2.4,60.22514967412528,
5,parcelated_audio/44/44_21.ogg,,,,,,,,,0,0,0,0,0,5,5,5,0,0,0,0,,,,,,,,,,,,,0,0,0,0,0,20,20,20,,,,,,,,,,,,,,,,,,,,,,,,,,,,,,,,,,,,,,,,,,,,,,,,,,,,,,,,,,,,,,,,,,,,,,,,,,,,,,,,,,,,,,,,,,,,,,,,,,,,,,,,,973.6524794069992,982.5665654189997,,,,,,,101221,0,2,0,3,0,1,2,0,18,2021_Oct_12_1029,listening_fmri,3.2.4,60.22514967412528,
5,parcelated_audio/44/44_22.ogg,,,,,,,,,0,0,0,0,0,5,5,5,0,0,0,0,,,,,,,,,,,,,0,0,0,0,0,21,21,21,,,,,,,,,,,,,,,,,,,,,,,,,,,,,,,,,,,,,,,,,,,,,,,,,,,,,,,,,,,,,,,,,,,,,,,,,,,,,,,,,,,,,,,,,,,,,,,,,,,,,,,,,982.5669224020003,987.4887996479993,,,,,,,101221,0,2,0,3,0,1,2,0,18,2021_Oct_12_1029,listening_fmri,3.2.4,60.22514967412528,
5,parcelated_audio/44/44_23.ogg,,,,,,,,,0,0,0,0,0,5,5,5,0,0,0,0,,,,,,,,,,,,,0,0,0,0,0,22,22,22,,,,,,,,,,,,,,,,,,,,,,,,,,,,,,,,,,,,,,,,,,,,,,,,,,,,,,,,,,,,,,,,,,,,,,,,,,,,,,,,,,,,,,,,,,,,,,,,,,,,,,,,,987.4892895089997,994.1532404749996,,,,,,,101221,0,2,0,3,0,1,2,0,18,2021_Oct_12_1029,listening_fmri,3.2.4,60.22514967412528,
5,parcelated_audio/44/44_24.ogg,,,,,,,,,0,0,0,0,0,5,5,5,0,0,0,0,,,,,,,,,,,,,0,0,0,0,0,23,23,23,,,,,,,,,,,,,,,,,,,,,,,,,,,,,,,,,,,,,,,,,,,,,,,,,,,,,,,,,,,,,,,,,,,,,,,,,,,,,,,,,,,,,,,,,,,,,,,,,,,,,,,,,994.1536173139993,1002.8917763230002,,,,,,,101221,0,2,0,3,0,1,2,0,18,2021_Oct_12_1029,listening_fmri,3.2.4,60.22514967412528,
5,parcelated_audio/44/44_25.ogg,,,,,,,,,0,0,0,0,0,5,5,5,0,0,0,0,,,,,,,,,,,,,0,0,0,0,0,24,24,24,,,,,,,,,,,,,,,,,,,,,,,,,,,,,,,,,,,,,,,,,,,,,,,,,,,,,,,,,,,,,,,,,,,,,,,,,,,,,,,,,,,,,,,,,,,,,,,,,,,,,,,,,1002.8922761350004,1009.2059748489992,,,,,,,101221,0,2,0,3,0,1,2,0,18,2021_Oct_12_1029,listening_fmri,3.2.4,60.22514967412528,
5,parcelated_audio/44/44_26.ogg,,,,,,,,,0,0,0,0,0,5,5,5,0,0,0,0,,,,,,,,,,,,,0,0,0,0,0,25,25,25,,,,,,,,,,,,,,,,,,,,,,,,,,,,,,,,,,,,,,,,,,,,,,,,,,,,,,,,,,,,,,,,,,,,,,,,,,,,,,,,,,,,,,,,,,,,,,,,,,,,,,,,,1009.206332796999,1014.0623669899996,,,,,,,101221,0,2,0,3,0,1,2,0,18,2021_Oct_12_1029,listening_fmri,3.2.4,60.22514967412528,
5,parcelated_audio/44/44_27.ogg,,,,,,,,,0,0,0,0,0,5,5,5,0,0,0,0,,,,,,,,,,,,,0,0,0,0,0,26,26,26,,,,,,,,,,,,,,,,,,,,,,,,,,,,,,,,,,,,,,,,,,,,,,,,,,,,,,,,,,,,,,,,,,,,,,,,,,,,,,,,,,,,,,,,,,,,,,,,,,,,,,,,,1014.062748544,1021.0546679260005,,,,,,,101221,0,2,0,3,0,1,2,0,18,2021_Oct_12_1029,listening_fmri,3.2.4,60.22514967412528,
5,parcelated_audio/44/44_28.ogg,,,,,,,,,0,0,0,0,0,5,5,5,0,0,0,0,,,,,,,,,,,,,0,0,0,0,0,27,27,27,,,,,,,,,,,,,,,,,,,,,,,,,,,,,,,,,,,,,,,,,,,,,,,,,,,,,,,,,,,,,,,,,,,,,,,,,,,,,,,,,,,,,,,,,,,,,,,,,,,,,,,,,1021.0551682109999,1032.3447826049996,,,,,,,101221,0,2,0,3,0,1,2,0,18,2021_Oct_12_1029,listening_fmri,3.2.4,60.22514967412528,
5,,,,,,,,,,0,0,0,0,0,5,5,5,0,0,0,0,,,,,,,,,,,,,0,0,0,0,,,,,,,,,,,,,,,,,,,,,,,,,,,,,,,,,,,,,,,,,,,,,,,,,,,,,,,,,,,,,,,,,,,,,,,,,,,,,,,,,,,,,,,,,,,,,,,,,,,,,,,,,,,,,,,,,,,,,101221,0,2,0,3,0,1,2,0,18,2021_Oct_12_1029,listening_fmri,3.2.4,60.22514967412528,
5,,,,,,,,,,0,0,0,0,0,5,5,5,0,0,0,0,,,,,,,,,,,,,,,,,,,,,,,,,,,,,,,,,,,,,,,,,,1032.3452455869992,1038.333458191999,1083.7599275499997,None,,,,,,,,,,,,,,,,,,,,,,,,,,,,,,,,,,,,,,,,,,,,,,,,,,,,,,,,,,,,,,,,,,,,,,,,,,,,,,,,,,1089.7606293059998,None,1089.7606293059998,None,,,101221,0,2,0,3,0,1,2,0,18,2021_Oct_12_1029,listening_fmri,3.2.4,60.22514967412528,
5,,,,,,,,,,0,0,0,0,0,5,5,5,,,,,,,,,,,,,,,,,,,,,,,,,,,,,,,,,,,,,,,,,,,,,,,,,,,,,,,,,,,,,,,,,,,,,,,,,,,,,,,,,,,,,,,,,,,,,,,,,,,,,,,,,,,,,,,,,,,,,,,,,,,,,,,,,,,,,,,,,101221,0,2,0,3,0,1,2,0,18,2021_Oct_12_1029,listening_fmri,3.2.4,60.22514967412528,
6,parcelated_audio/42/42_1.ogg,,,,,,,,,0,0,0,0,0,6,6,6,0,0,0,0,,,,,,,,,,,,,0,0,0,0,0,0,0,0,,,,,,,,,,,,,,,,,,,,,,,,,,1090.7834936669988,None,1090.7834936669988,None,2,1.1592112689995702,1090.7834936669988,None,1090.7834936669988,None,,,,,,,,,,,,,,,,,,,,,,,,,,,,,,,,,,,,,,,,,,,,,,,,,,,,,,,,,,,,,,1091.9606529510002,None,2,0.6192807749994245,1091.9606529510002,None,1041.191294189999,1044.1997200699989,1044.2061808069993,1052.572859328,,,,,,,101221,0,2,0,3,0,1,2,0,18,2021_Oct_12_1029,listening_fmri,3.2.4,60.22514967412528,
6,parcelated_audio/42/42_2.ogg,,,,,,,,,0,0,0,0,0,6,6,6,0,0,0,0,,,,,,,,,,,,,0,0,0,0,0,1,1,1,,,,,,,,,,,,,,,,,,,,,,,,,,,,,,,,,,,,,,,,,,,,,,,,,,,,,,,,,,,,,,,,,,,,,,,,,,,,,,,,,,,,,,,,,,,,,,,,,,,,,,,,,1052.5737781669995,1065.3054387619995,,,,,,,101221,0,2,0,3,0,1,2,0,18,2021_Oct_12_1029,listening_fmri,3.2.4,60.22514967412528,
6,parcelated_audio/42/42_3.ogg,,,,,,,,,0,0,0,0,0,6,6,6,0,0,0,0,,,,,,,,,,,,,0,0,0,0,0,2,2,2,,,,,,,,,,,,,,,,,,,,,,,,,,,,,,,,,,,,,,,,,,,,,,,,,,,,,,,,,,,,,,,,,,,,,,,,,,,,,,,,,,,,,,,,,,,,,,,,,,,,,,,,,1065.3058088079997,1075.7026659879994,,,,,,,101221,0,2,0,3,0,1,2,0,18,2021_Oct_12_1029,listening_fmri,3.2.4,60.22514967412528,
6,parcelated_audio/42/42_4.ogg,,,,,,,,,0,0,0,0,0,6,6,6,0,0,0,0,,,,,,,,,,,,,0,0,0,0,0,3,3,3,,,,,,,,,,,,,,,,,,,,,,,,,,,,,,,,,,,,,,,,,,,,,,,,,,,,,,,,,,,,,,,,,,,,,,,,,,,,,,,,,,,,,,,,,,,,,,,,,,,,,,,,,1075.703050958,1089.3957866210003,,,,,,,101221,0,2,0,3,0,1,2,0,18,2021_Oct_12_1029,listening_fmri,3.2.4,60.22514967412528,
6,parcelated_audio/42/42_5.ogg,,,,,,,,,0,0,0,0,0,6,6,6,0,0,0,0,,,,,,,,,,,,,0,0,0,0,0,4,4,4,,,,,,,,,,,,,,,,,,,,,,,,,,,,,,,,,,,,,,,,,,,,,,,,,,,,,,,,,,,,,,,,,,,,,,,,,,,,,,,,,,,,,,,,,,,,,,,,,,,,,,,,,1089.3962417809998,1100.8438868619996,,,,,,,101221,0,2,0,3,0,1,2,0,18,2021_Oct_12_1029,listening_fmri,3.2.4,60.22514967412528,
6,parcelated_audio/42/42_6.ogg,,,,,,,,,0,0,0,0,0,6,6,6,0,0,0,0,,,,,,,,,,,,,0,0,0,0,0,5,5,5,,,,,,,,,,,,,,,,,,,,,,,,,,,,,,,,,,,,,,,,,,,,,,,,,,,,,,,,,,,,,,,,,,,,,,,,,,,,,,,,,,,,,,,,,,,,,,,,,,,,,,,,,1100.8442524919992,1107.323540260999,,,,,,,101221,0,2,0,3,0,1,2,0,18,2021_Oct_12_1029,listening_fmri,3.2.4,60.22514967412528,
6,parcelated_audio/42/42_7.ogg,,,,,,,,,0,0,0,0,0,6,6,6,0,0,0,0,,,,,,,,,,,,,0,0,0,0,0,6,6,6,,,,,,,,,,,,,,,,,,,,,,,,,,,,,,,,,,,,,,,,,,,,,,,,,,,,,,,,,,,,,,,,,,,,,,,,,,,,,,,,,,,,,,,,,,,,,,,,,,,,,,,,,1107.3238999530004,1112.513335878999,,,,,,,101221,0,2,0,3,0,1,2,0,18,2021_Oct_12_1029,listening_fmri,3.2.4,60.22514967412528,
6,parcelated_audio/42/42_8.ogg,,,,,,,,,0,0,0,0,0,6,6,6,0,0,0,0,,,,,,,,,,,,,0,0,0,0,0,7,7,7,,,,,,,,,,,,,,,,,,,,,,,,,,,,,,,,,,,,,,,,,,,,,,,,,,,,,,,,,,,,,,,,,,,,,,,,,,,,,,,,,,,,,,,,,,,,,,,,,,,,,,,,,1112.5137353560003,1115.670620469,,,,,,,101221,0,2,0,3,0,1,2,0,18,2021_Oct_12_1029,listening_fmri,3.2.4,60.22514967412528,
6,parcelated_audio/42/42_9.ogg,,,,,,,,,0,0,0,0,0,6,6,6,0,0,0,0,,,,,,,,,,,,,0,0,0,0,0,8,8,8,,,,,,,,,,,,,,,,,,,,,,,,,,,,,,,,,,,,,,,,,,,,,,,,,,,,,,,,,,,,,,,,,,,,,,,,,,,,,,,,,,,,,,,,,,,,,,,,,,,,,,,,,1115.67104501,1124.2219864519993,,,,,,,101221,0,2,0,3,0,1,2,0,18,2021_Oct_12_1029,listening_fmri,3.2.4,60.22514967412528,
6,parcelated_audio/42/42_10.ogg,,,,,,,,,0,0,0,0,0,6,6,6,0,0,0,0,,,,,,,,,,,,,0,0,0,0,0,9,9,9,,,,,,,,,,,,,,,,,,,,,,,,,,,,,,,,,,,,,,,,,,,,,,,,,,,,,,,,,,,,,,,,,,,,,,,,,,,,,,,,,,,,,,,,,,,,,,,,,,,,,,,,,1124.2224504650003,1128.5369619739995,,,,,,,101221,0,2,0,3,0,1,2,0,18,2021_Oct_12_1029,listening_fmri,3.2.4,60.22514967412528,
6,parcelated_audio/42/42_11.ogg,,,,,,,,,0,0,0,0,0,6,6,6,0,0,0,0,,,,,,,,,,,,,0,0,0,0,0,10,10,10,,,,,,,,,,,,,,,,,,,,,,,,,,,,,,,,,,,,,,,,,,,,,,,,,,,,,,,,,,,,,,,,,,,,,,,,,,,,,,,,,,,,,,,,,,,,,,,,,,,,,,,,,1128.5373806219995,1133.5198724950005,,,,,,,101221,0,2,0,3,0,1,2,0,18,2021_Oct_12_1029,listening_fmri,3.2.4,60.22514967412528,
6,parcelated_audio/42/42_12.ogg,,,,,,,,,0,0,0,0,0,6,6,6,0,0,0,0,,,,,,,,,,,,,0,0,0,0,0,11,11,11,,,,,,,,,,,,,,,,,,,,,,,,,,,,,,,,,,,,,,,,,,,,,,,,,,,,,,,,,,,,,,,,,,,,,,,,,,,,,,,,,,,,,,,,,,,,,,,,,,,,,,,,,1133.5204326099993,1139.475881065,,,,,,,101221,0,2,0,3,0,1,2,0,18,2021_Oct_12_1029,listening_fmri,3.2.4,60.22514967412528,
6,parcelated_audio/42/42_13.ogg,,,,,,,,,0,0,0,0,0,6,6,6,0,0,0,0,,,,,,,,,,,,,0,0,0,0,0,12,12,12,,,,,,,,,,,,,,,,,,,,,,,,,,,,,,,,,,,,,,,,,,,,,,,,,,,,,,,,,,,,,,,,,,,,,,,,,,,,,,,,,,,,,,,,,,,,,,,,,,,,,,,,,1139.4762399640003,1146.6223893469996,,,,,,,101221,0,2,0,3,0,1,2,0,18,2021_Oct_12_1029,listening_fmri,3.2.4,60.22514967412528,
6,parcelated_audio/42/42_14.ogg,,,,,,,,,0,0,0,0,0,6,6,6,0,0,0,0,,,,,,,,,,,,,0,0,0,0,0,13,13,13,,,,,,,,,,,,,,,,,,,,,,,,,,,,,,,,,,,,,,,,,,,,,,,,,,,,,,,,,,,,,,,,,,,,,,,,,,,,,,,,,,,,,,,,,,,,,,,,,,,,,,,,,1146.6228760329996,1151.3438055120005,,,,,,,101221,0,2,0,3,0,1,2,0,18,2021_Oct_12_1029,listening_fmri,3.2.4,60.22514967412528,
6,parcelated_audio/42/42_15.ogg,,,,,,,,,0,0,0,0,0,6,6,6,0,0,0,0,,,,,,,,,,,,,0,0,0,0,0,14,14,14,,,,,,,,,,,,,,,,,,,,,,,,,,,,,,,,,,,,,,,,,,,,,,,,,,,,,,,,,,,,,,,,,,,,,,,,,,,,,,,,,,,,,,,,,,,,,,,,,,,,,,,,,1151.3441727520003,1157.204905049999,,,,,,,101221,0,2,0,3,0,1,2,0,18,2021_Oct_12_1029,listening_fmri,3.2.4,60.22514967412528,
6,parcelated_audio/42/42_16.ogg,,,,,,,,,0,0,0,0,0,6,6,6,0,0,0,0,,,,,,,,,,,,,0,0,0,0,0,15,15,15,,,,,,,,,,,,,,,,,,,,,,,,,,,,,,,,,,,,,,,,,,,,,,,,,,,,,,,,,,,,,,,,,,,,,,,,,,,,,,,,,,,,,,,,,,,,,,,,,,,,,,,,,1157.2052689779994,1162.7840099309997,,,,,,,101221,0,2,0,3,0,1,2,0,18,2021_Oct_12_1029,listening_fmri,3.2.4,60.22514967412528,
6,parcelated_audio/42/42_17.ogg,,,,,,,,,0,0,0,0,0,6,6,6,0,0,0,0,,,,,,,,,,,,,0,0,0,0,0,16,16,16,,,,,,,,,,,,,,,,,,,,,,,,,,,,,,,,,,,,,,,,,,,,,,,,,,,,,,,,,,,,,,,,,,,,,,,,,,,,,,,,,,,,,,,,,,,,,,,,,,,,,,,,,1162.7845122889994,1172.4644892729993,,,,,,,101221,0,2,0,3,0,1,2,0,18,2021_Oct_12_1029,listening_fmri,3.2.4,60.22514967412528,
6,parcelated_audio/42/42_18.ogg,,,,,,,,,0,0,0,0,0,6,6,6,0,0,0,0,,,,,,,,,,,,,0,0,0,0,0,17,17,17,,,,,,,,,,,,,,,,,,,,,,,,,,,,,,,,,,,,,,,,,,,,,,,,,,,,,,,,,,,,,,,,,,,,,,,,,,,,,,,,,,,,,,,,,,,,,,,,,,,,,,,,,1172.4648529229999,1177.8965417870004,,,,,,,101221,0,2,0,3,0,1,2,0,18,2021_Oct_12_1029,listening_fmri,3.2.4,60.22514967412528,
6,parcelated_audio/42/42_19.ogg,,,,,,,,,0,0,0,0,0,6,6,6,0,0,0,0,,,,,,,,,,,,,0,0,0,0,0,18,18,18,,,,,,,,,,,,,,,,,,,,,,,,,,,,,,,,,,,,,,,,,,,,,,,,,,,,,,,,,,,,,,,,,,,,,,,,,,,,,,,,,,,,,,,,,,,,,,,,,,,,,,,,,1177.8969040680004,1187.044808474,,,,,,,101221,0,2,0,3,0,1,2,0,18,2021_Oct_12_1029,listening_fmri,3.2.4,60.22514967412528,
6,parcelated_audio/42/42_20.ogg,,,,,,,,,0,0,0,0,0,6,6,6,0,0,0,0,,,,,,,,,,,,,0,0,0,0,0,19,19,19,,,,,,,,,,,,,,,,,,,,,,,,,,,,,,,,,,,,,,,,,,,,,,,,,,,,,,,,,,,,,,,,,,,,,,,,,,,,,,,,,,,,,,,,,,,,,,,,,,,,,,,,,1187.0452869500004,1191.787806979999,,,,,,,101221,0,2,0,3,0,1,2,0,18,2021_Oct_12_1029,listening_fmri,3.2.4,60.22514967412528,
6,parcelated_audio/42/42_21.ogg,,,,,,,,,0,0,0,0,0,6,6,6,0,0,0,0,,,,,,,,,,,,,0,0,0,0,0,20,20,20,,,,,,,,,,,,,,,,,,,,,,,,,,,,,,,,,,,,,,,,,,,,,,,,,,,,,,,,,,,,,,,,,,,,,,,,,,,,,,,,,,,,,,,,,,,,,,,,,,,,,,,,,1191.7881701610004,1201.6891498509995,,,,,,,101221,0,2,0,3,0,1,2,0,18,2021_Oct_12_1029,listening_fmri,3.2.4,60.22514967412528,
6,parcelated_audio/42/42_22.ogg,,,,,,,,,0,0,0,0,0,6,6,6,0,0,0,0,,,,,,,,,,,,,0,0,0,0,0,21,21,21,,,,,,,,,,,,,,,,,,,,,,,,,,,,,,,,,,,,,,,,,,,,,,,,,,,,,,,,,,,,,,,,,,,,,,,,,,,,,,,,,,,,,,,,,,,,,,,,,,,,,,,,,1201.6896469040003,1206.4597676510002,,,,,,,101221,0,2,0,3,0,1,2,0,18,2021_Oct_12_1029,listening_fmri,3.2.4,60.22514967412528,
6,parcelated_audio/42/42_23.ogg,,,,,,,,,0,0,0,0,0,6,6,6,0,0,0,0,,,,,,,,,,,,,0,0,0,0,0,22,22,22,,,,,,,,,,,,,,,,,,,,,,,,,,,,,,,,,,,,,,,,,,,,,,,,,,,,,,,,,,,,,,,,,,,,,,,,,,,,,,,,,,,,,,,,,,,,,,,,,,,,,,,,,1206.4601272759992,1212.6786142870005,,,,,,,101221,0,2,0,3,0,1,2,0,18,2021_Oct_12_1029,listening_fmri,3.2.4,60.22514967412528,
6,parcelated_audio/42/42_24.ogg,,,,,,,,,0,0,0,0,0,6,6,6,0,0,0,0,,,,,,,,,,,,,0,0,0,0,0,23,23,23,,,,,,,,,,,,,,,,,,,,,,,,,,,,,,,,,,,,,,,,,,,,,,,,,,,,,,,,,,,,,,,,,,,,,,,,,,,,,,,,,,,,,,,,,,,,,,,,,,,,,,,,,1212.6791261039998,1221.1398663119999,,,,,,,101221,0,2,0,3,0,1,2,0,18,2021_Oct_12_1029,listening_fmri,3.2.4,60.22514967412528,
6,parcelated_audio/42/42_25.ogg,,,,,,,,,0,0,0,0,0,6,6,6,0,0,0,0,,,,,,,,,,,,,0,0,0,0,0,24,24,24,,,,,,,,,,,,,,,,,,,,,,,,,,,,,,,,,,,,,,,,,,,,,,,,,,,,,,,,,,,,,,,,,,,,,,,,,,,,,,,,,,,,,,,,,,,,,,,,,,,,,,,,,1221.1402294439995,1227.3755507339993,,,,,,,101221,0,2,0,3,0,1,2,0,18,2021_Oct_12_1029,listening_fmri,3.2.4,60.22514967412528,
6,parcelated_audio/42/42_26.ogg,,,,,,,,,0,0,0,0,0,6,6,6,0,0,0,0,,,,,,,,,,,,,0,0,0,0,0,25,25,25,,,,,,,,,,,,,,,,,,,,,,,,,,,,,,,,,,,,,,,,,,,,,,,,,,,,,,,,,,,,,,,,,,,,,,,,,,,,,,,,,,,,,,,,,,,,,,,,,,,,,,,,,1227.3760407600003,1233.2766072649993,,,,,,,101221,0,2,0,3,0,1,2,0,18,2021_Oct_12_1029,listening_fmri,3.2.4,60.22514967412528,
6,parcelated_audio/42/42_27.ogg,,,,,,,,,0,0,0,0,0,6,6,6,0,0,0,0,,,,,,,,,,,,,0,0,0,0,0,26,26,26,,,,,,,,,,,,,,,,,,,,,,,,,,,,,,,,,,,,,,,,,,,,,,,,,,,,,,,,,,,,,,,,,,,,,,,,,,,,,,,,,,,,,,,,,,,,,,,,,,,,,,,,,1233.276986974999,1240.945046634999,,,,,,,101221,0,2,0,3,0,1,2,0,18,2021_Oct_12_1029,listening_fmri,3.2.4,60.22514967412528,
6,parcelated_audio/42/42_28.ogg,,,,,,,,,0,0,0,0,0,6,6,6,0,0,0,0,,,,,,,,,,,,,0,0,0,0,0,27,27,27,,,,,,,,,,,,,,,,,,,,,,,,,,,,,,,,,,,,,,,,,,,,,,,,,,,,,,,,,,,,,,,,,,,,,,,,,,,,,,,,,,,,,,,,,,,,,,,,,,,,,,,,,1240.9460150679988,1246.6036416440002,,,,,,,101221,0,2,0,3,0,1,2,0,18,2021_Oct_12_1029,listening_fmri,3.2.4,60.22514967412528,
6,parcelated_audio/42/42_29.ogg,,,,,,,,,0,0,0,0,0,6,6,6,0,0,0,0,,,,,,,,,,,,,0,0,0,0,0,28,28,28,,,,,,,,,,,,,,,,,,,,,,,,,,,,,,,,,,,,,,,,,,,,,,,,,,,,,,,,,,,,,,,,,,,,,,,,,,,,,,,,,,,,,,,,,,,,,,,,,,,,,,,,,1246.6040520499992,1253.5002583980004,,,,,,,101221,0,2,0,3,0,1,2,0,18,2021_Oct_12_1029,listening_fmri,3.2.4,60.22514967412528,
6,parcelated_audio/42/42_30.ogg,,,,,,,,,0,0,0,0,0,6,6,6,0,0,0,0,,,,,,,,,,,,,0,0,0,0,0,29,29,29,,,,,,,,,,,,,,,,,,,,,,,,,,,,,,,,,,,,,,,,,,,,,,,,,,,,,,,,,,,,,,,,,,,,,,,,,,,,,,,,,,,,,,,,,,,,,,,,,,,,,,,,,1253.5005801400002,1264.38002907,,,,,,,101221,0,2,0,3,0,1,2,0,18,2021_Oct_12_1029,listening_fmri,3.2.4,60.22514967412528,
6,parcelated_audio/42/42_31.ogg,,,,,,,,,0,0,0,0,0,6,6,6,0,0,0,0,,,,,,,,,,,,,0,0,0,0,0,30,30,30,,,,,,,,,,,,,,,,,,,,,,,,,,,,,,,,,,,,,,,,,,,,,,,,,,,,,,,,,,,,,,,,,,,,,,,,,,,,,,,,,,,,,,,,,,,,,,,,,,,,,,,,,1264.3803992239991,1270.5665744069993,,,,,,,101221,0,2,0,3,0,1,2,0,18,2021_Oct_12_1029,listening_fmri,3.2.4,60.22514967412528,
6,parcelated_audio/42/42_32.ogg,,,,,,,,,0,0,0,0,0,6,6,6,0,0,0,0,,,,,,,,,,,,,0,0,0,0,0,31,31,31,,,,,,,,,,,,,,,,,,,,,,,,,,,,,,,,,,,,,,,,,,,,,,,,,,,,,,,,,,,,,,,,,,,,,,,,,,,,,,,,,,,,,,,,,,,,,,,,,,,,,,,,,1270.5677210060003,1278.729275873,,,,,,,101221,0,2,0,3,0,1,2,0,18,2021_Oct_12_1029,listening_fmri,3.2.4,60.22514967412528,
6,parcelated_audio/42/42_33.ogg,,,,,,,,,0,0,0,0,0,6,6,6,0,0,0,0,,,,,,,,,,,,,0,0,0,0,0,32,32,32,,,,,,,,,,,,,,,,,,,,,,,,,,,,,,,,,,,,,,,,,,,,,,,,,,,,,,,,,,,,,,,,,,,,,,,,,,,,,,,,,,,,,,,,,,,,,,,,,,,,,,,,,1278.7295525049994,1285.7834312960003,,,,,,,101221,0,2,0,3,0,1,2,0,18,2021_Oct_12_1029,listening_fmri,3.2.4,60.22514967412528,
6,parcelated_audio/42/42_34.ogg,,,,,,,,,0,0,0,0,0,6,6,6,0,0,0,0,,,,,,,,,,,,,0,0,0,0,0,33,33,33,,,,,,,,,,,,,,,,,,,,,,,,,,,,,,,,,,,,,,,,,,,,,,,,,,,,,,,,,,,,,,,,,,,,,,,,,,,,,,,,,,,,,,,,,,,,,,,,,,,,,,,,,1285.7846695089993,1296.4947317499991,,,,,,,101221,0,2,0,3,0,1,2,0,18,2021_Oct_12_1029,listening_fmri,3.2.4,60.22514967412528,
6,parcelated_audio/42/42_35.ogg,,,,,,,,,0,0,0,0,0,6,6,6,0,0,0,0,,,,,,,,,,,,,0,0,0,0,0,34,34,34,,,,,,,,,,,,,,,,,,,,,,,,,,,,,,,,,,,,,,,,,,,,,,,,,,,,,,,,,,,,,,,,,,,,,,,,,,,,,,,,,,,,,,,,,,,,,,,,,,,,,,,,,1296.4950721209989,1306.2519321199998,,,,,,,101221,0,2,0,3,0,1,2,0,18,2021_Oct_12_1029,listening_fmri,3.2.4,60.22514967412528,
6,,,,,,,,,,0,0,0,0,0,6,6,6,0,0,0,0,,,,,,,,,,,,,0,0,0,0,,,,,,,,,,,,,,,,,,,,,,,,,,,,,,,,,,,,,,,,,,,,,,,,,,,,,,,,,,,,,,,,,,,,,,,,,,,,,,,,,,,,,,,,,,,,,,,,,,,,,,,,,,,,,,,,,,,,,101221,0,2,0,3,0,1,2,0,18,2021_Oct_12_1029,listening_fmri,3.2.4,60.22514967412528,
6,,,,,,,,,,0,0,0,0,0,6,6,6,0,0,0,0,,,,,,,,,,,,,,,,,,,,,,,,,,,,,,,,,,,,,,,,,,1306.252441269,1312.250416130999,1357.67703051,None,,,,,,,,,,,,,,,,,,,,,,,,,,,,,,,,,,,,,,,,,,,,,,,,,,,,,,,,,,,,,,,,,,,,,,,,,,,,,,,,,,1363.6769294869991,None,1363.6769294869991,None,,,101221,0,2,0,3,0,1,2,0,18,2021_Oct_12_1029,listening_fmri,3.2.4,60.22514967412528,
6,,,,,,,,,,0,0,0,0,0,6,6,6,,,,,,,,,,,,,,,,,,,,,,,,,,,,,,,,,,,,,,,,,,,,,,,,,,,,,,,,,,,,,,,,,,,,,,,,,,,,,,,,,,,,,,,,,,,,,,,,,,,,,,,,,,,,,,,,,,,,,,,,,,,,,,,,,,,,,,,,,101221,0,2,0,3,0,1,2,0,18,2021_Oct_12_1029,listening_fmri,3.2.4,60.22514967412528,
7,,,,,,,,,,0,0,0,0,0,7,7,7,0,0,0,0,0,0,0,0,0,0,0,0,,,,,,,,,,,,,,,,,,,,,,,,,,,,,,,,,,,,,,1364.7100144209999,None,1364.7100144209999,None,2,1.150716686001033,1364.7100144209999,None,1364.7100144209999,None,1365.893858681,None,2,0.7508924510002544,1365.893858681,None,1365.893858681,None,1366.6942614579984,None,1366.6942614579984,None,1366.6942614579984,None,2,0.5416452490007941,1366.6942614579984,None,1367.2612365139994,None,2,0.5906690169995272,1367.2612365139994,None,1367.2612365139994,None,1367.9607289839987,None,1367.9607289839987,None,1367.9607289839987,None,1367.9607289839987,None,1367.9607289839987,None,1367.9607289839987,None,1367.9607289839987,None,None,1367.9607289839987,None,,,,,,,,,,,,,,,,,,,,,,,,,,,,,,,,,,,101221,0,2,0,3,0,1,2,0,18,2021_Oct_12_1029,listening_fmri,3.2.4,60.22514967412528,
7,,,,,,,,,,0,0,0,0,0,7,7,7,0,0,0,0,0,0,0,0,,,,,,,,,,,,,,,,,,,,,,,,,,,,,,,,,,,,,,,,,,,,,,,,,,,,,,,,,,,,,,,,,,,,,,,,,,,,,,,,,,,,,,,,,,,,,,,1388.476778504999,None,2,2.3211220240009425,1388.476778504999,None,1388.476778504999,None,1390.8445479909988,None,1390.8445479909988,None,1390.8445479909988,None,2,0.6233680580007785,1390.8445479909988,None,,,,,,,,,,,,,,,,,101221,0,2,0,3,0,1,2,0,18,2021_Oct_12_1029,listening_fmri,3.2.4,60.22514967412528,
7,parcelated_audio/33/33_1.ogg,,,,,,,,,0,0,0,0,0,7,7,7,0,0,0,0,,,,,,,,,,,,,0,0,0,0,0,0,0,0,,,,,,,,,,,,,,,,,,,,,,,,,,,,,,,,,,,,,,,,,,,,,,,,,,,,,,,,,,,,,,,,,,,,,,,,,,,,,,,,,,,,,,,,,,,,,,,,,1391.4946208379988,None,2,1.0952737859988702,1391.4946208379988,None,1341.2148669260005,1344.2175713889992,1344.2232619709994,1354.2834858860006,,,,,,,101221,0,2,0,3,0,1,2,0,18,2021_Oct_12_1029,listening_fmri,3.2.4,60.22514967412528,
7,parcelated_audio/33/33_2.ogg,,,,,,,,,0,0,0,0,0,7,7,7,0,0,0,0,,,,,,,,,,,,,0,0,0,0,0,1,1,1,,,,,,,,,,,,,,,,,,,,,,,,,,,,,,,,,,,,,,,,,,,,,,,,,,,,,,,,,,,,,,,,,,,,,,,,,,,,,,,,,,,,,,,,,,,,,,,,,,,,,,,,,1354.2838513089991,1364.7208175809992,,,,,,,101221,0,2,0,3,0,1,2,0,18,2021_Oct_12_1029,listening_fmri,3.2.4,60.22514967412528,
7,parcelated_audio/33/33_3.ogg,,,,,,,,,0,0,0,0,0,7,7,7,0,0,0,0,,,,,,,,,,,,,0,0,0,0,0,2,2,2,,,,,,,,,,,,,,,,,,,,,,,,,,,,,,,,,,,,,,,,,,,,,,,,,,,,,,,,,,,,,,,,,,,,,,,,,,,,,,,,,,,,,,,,,,,,,,,,,,,,,,,,,1364.7213793720002,1371.2559109459999,,,,,,,101221,0,2,0,3,0,1,2,0,18,2021_Oct_12_1029,listening_fmri,3.2.4,60.22514967412528,
7,parcelated_audio/33/33_4.ogg,,,,,,,,,0,0,0,0,0,7,7,7,0,0,0,0,,,,,,,,,,,,,0,0,0,0,0,3,3,3,,,,,,,,,,,,,,,,,,,,,,,,,,,,,,,,,,,,,,,,,,,,,,,,,,,,,,,,,,,,,,,,,,,,,,,,,,,,,,,,,,,,,,,,,,,,,,,,,,,,,,,,,1371.257324618,1374.843888129999,,,,,,,101221,0,2,0,3,0,1,2,0,18,2021_Oct_12_1029,listening_fmri,3.2.4,60.22514967412528,
7,parcelated_audio/33/33_5.ogg,,,,,,,,,0,0,0,0,0,7,7,7,0,0,0,0,,,,,,,,,,,,,0,0,0,0,0,4,4,4,,,,,,,,,,,,,,,,,,,,,,,,,,,,,,,,,,,,,,,,,,,,,,,,,,,,,,,,,,,,,,,,,,,,,,,,,,,,,,,,,,,,,,,,,,,,,,,,,,,,,,,,,1374.8441699609994,1386.1024040899993,,,,,,,101221,0,2,0,3,0,1,2,0,18,2021_Oct_12_1029,listening_fmri,3.2.4,60.22514967412528,
7,parcelated_audio/33/33_6.ogg,,,,,,,,,0,0,0,0,0,7,7,7,0,0,0,0,,,,,,,,,,,,,0,0,0,0,0,5,5,5,,,,,,,,,,,,,,,,,,,,,,,,,,,,,,,,,,,,,,,,,,,,,,,,,,,,,,,,,,,,,,,,,,,,,,,,,,,,,,,,,,,,,,,,,,,,,,,,,,,,,,,,,1386.102770775,1397.7947073609994,,,,,,,101221,0,2,0,3,0,1,2,0,18,2021_Oct_12_1029,listening_fmri,3.2.4,60.22514967412528,
7,parcelated_audio/33/33_7.ogg,,,,,,,,,0,0,0,0,0,7,7,7,0,0,0,0,,,,,,,,,,,,,0,0,0,0,0,6,6,6,,,,,,,,,,,,,,,,,,,,,,,,,,,,,,,,,,,,,,,,,,,,,,,,,,,,,,,,,,,,,,,,,,,,,,,,,,,,,,,,,,,,,,,,,,,,,,,,,,,,,,,,,1397.7950703379993,1412.3558257219993,,,,,,,101221,0,2,0,3,0,1,2,0,18,2021_Oct_12_1029,listening_fmri,3.2.4,60.22514967412528,
7,parcelated_audio/33/33_8.ogg,,,,,,,,,0,0,0,0,0,7,7,7,0,0,0,0,,,,,,,,,,,,,0,0,0,0,0,7,7,7,,,,,,,,,,,,,,,,,,,,,,,,,,,,,,,,,,,,,,,,,,,,,,,,,,,,,,,,,,,,,,,,,,,,,,,,,,,,,,,,,,,,,,,,,,,,,,,,,,,,,,,,,1412.3561785439997,1418.4891240359993,,,,,,,101221,0,2,0,3,0,1,2,0,18,2021_Oct_12_1029,listening_fmri,3.2.4,60.22514967412528,
7,parcelated_audio/33/33_9.ogg,,,,,,,,,0,0,0,0,0,7,7,7,0,0,0,0,,,,,,,,,,,,,0,0,0,0,0,8,8,8,,,,,,,,,,,,,,,,,,,,,,,,,,,,,,,,,,,,,,,,,,,,,,,,,,,,,,,,,,,,,,,,,,,,,,,,,,,,,,,,,,,,,,,,,,,,,,,,,,,,,,,,,1418.4895009009997,1422.1978237330004,,,,,,,101221,0,2,0,3,0,1,2,0,18,2021_Oct_12_1029,listening_fmri,3.2.4,60.22514967412528,
7,parcelated_audio/33/33_10.ogg,,,,,,,,,0,0,0,0,0,7,7,7,0,0,0,0,,,,,,,,,,,,,0,0,0,0,0,9,9,9,,,,,,,,,,,,,,,,,,,,,,,,,,,,,,,,,,,,,,,,,,,,,,,,,,,,,,,,,,,,,,,,,,,,,,,,,,,,,,,,,,,,,,,,,,,,,,,,,,,,,,,,,1422.19815724,1427.563060254999,,,,,,,101221,0,2,0,3,0,1,2,0,18,2021_Oct_12_1029,listening_fmri,3.2.4,60.22514967412528,
7,parcelated_audio/33/33_11.ogg,,,,,,,,,0,0,0,0,0,7,7,7,0,0,0,0,,,,,,,,,,,,,0,0,0,0,0,10,10,10,,,,,,,,,,,,,,,,,,,,,,,,,,,,,,,,,,,,,,,,,,,,,,,,,,,,,,,,,,,,,,,,,,,,,,,,,,,,,,,,,,,,,,,,,,,,,,,,,,,,,,,,,1427.5634254159995,1441.9777630400004,,,,,,,101221,0,2,0,3,0,1,2,0,18,2021_Oct_12_1029,listening_fmri,3.2.4,60.22514967412528,
7,parcelated_audio/33/33_12.ogg,,,,,,,,,0,0,0,0,0,7,7,7,0,0,0,0,,,,,,,,,,,,,0,0,0,0,0,11,11,11,,,,,,,,,,,,,,,,,,,,,,,,,,,,,,,,,,,,,,,,,,,,,,,,,,,,,,,,,,,,,,,,,,,,,,,,,,,,,,,,,,,,,,,,,,,,,,,,,,,,,,,,,1441.9808171879995,1448.0813085909995,,,,,,,101221,0,2,0,3,0,1,2,0,18,2021_Oct_12_1029,listening_fmri,3.2.4,60.22514967412528,
7,parcelated_audio/33/33_13.ogg,,,,,,,,,0,0,0,0,0,7,7,7,0,0,0,0,,,,,,,,,,,,,0,0,0,0,0,12,12,12,,,,,,,,,,,,,,,,,,,,,,,,,,,,,,,,,,,,,,,,,,,,,,,,,,,,,,,,,,,,,,,,,,,,,,,,,,,,,,,,,,,,,,,,,,,,,,,,,,,,,,,,,1448.081888826,1455.473371795999,,,,,,,101221,0,2,0,3,0,1,2,0,18,2021_Oct_12_1029,listening_fmri,3.2.4,60.22514967412528,
7,parcelated_audio/33/33_14.ogg,,,,,,,,,0,0,0,0,0,7,7,7,0,0,0,0,,,,,,,,,,,,,0,0,0,0,0,13,13,13,,,,,,,,,,,,,,,,,,,,,,,,,,,,,,,,,,,,,,,,,,,,,,,,,,,,,,,,,,,,,,,,,,,,,,,,,,,,,,,,,,,,,,,,,,,,,,,,,,,,,,,,,1455.4739362950004,1467.901117080999,,,,,,,101221,0,2,0,3,0,1,2,0,18,2021_Oct_12_1029,listening_fmri,3.2.4,60.22514967412528,
7,parcelated_audio/33/33_15.ogg,,,,,,,,,0,0,0,0,0,7,7,7,0,0,0,0,,,,,,,,,,,,,0,0,0,0,0,14,14,14,,,,,,,,,,,,,,,,,,,,,,,,,,,,,,,,,,,,,,,,,,,,,,,,,,,,,,,,,,,,,,,,,,,,,,,,,,,,,,,,,,,,,,,,,,,,,,,,,,,,,,,,,1467.9014785090003,1486.440916005,,,,,,,101221,0,2,0,3,0,1,2,0,18,2021_Oct_12_1029,listening_fmri,3.2.4,60.22514967412528,
7,parcelated_audio/33/33_16.ogg,,,,,,,,,0,0,0,0,0,7,7,7,0,0,0,0,,,,,,,,,,,,,0,0,0,0,0,15,15,15,,,,,,,,,,,,,,,,,,,,,,,,,,,,,,,,,,,,,,,,,,,,,,,,,,,,,,,,,,,,,,,,,,,,,,,,,,,,,,,,,,,,,,,,,,,,,,,,,,,,,,,,,1486.441279053999,1498.6637854580003,,,,,,,101221,0,2,0,3,0,1,2,0,18,2021_Oct_12_1029,listening_fmri,3.2.4,60.22514967412528,
7,parcelated_audio/33/33_17.ogg,,,,,,,,,0,0,0,0,0,7,7,7,0,0,0,0,,,,,,,,,,,,,0,0,0,0,0,16,16,16,,,,,,,,,,,,,,,,,,,,,,,,,,,,,,,,,,,,,,,,,,,,,,,,,,,,,,,,,,,,,,,,,,,,,,,,,,,,,,,,,,,,,,,,,,,,,,,,,,,,,,,,,1498.6643857629988,1509.8827750340006,,,,,,,101221,0,2,0,3,0,1,2,0,18,2021_Oct_12_1029,listening_fmri,3.2.4,60.22514967412528,
7,parcelated_audio/33/33_18.ogg,,,,,,,,,0,0,0,0,0,7,7,7,0,0,0,0,,,,,,,,,,,,,0,0,0,0,0,17,17,17,,,,,,,,,,,,,,,,,,,,,,,,,,,,,,,,,,,,,,,,,,,,,,,,,,,,,,,,,,,,,,,,,,,,,,,,,,,,,,,,,,,,,,,,,,,,,,,,,,,,,,,,,1509.8831401919997,1518.3413376150002,,,,,,,101221,0,2,0,3,0,1,2,0,18,2021_Oct_12_1029,listening_fmri,3.2.4,60.22514967412528,
7,parcelated_audio/33/33_19.ogg,,,,,,,,,0,0,0,0,0,7,7,7,0,0,0,0,,,,,,,,,,,,,0,0,0,0,0,18,18,18,,,,,,,,,,,,,,,,,,,,,,,,,,,,,,,,,,,,,,,,,,,,,,,,,,,,,,,,,,,,,,,,,,,,,,,,,,,,,,,,,,,,,,,,,,,,,,,,,,,,,,,,,1518.3418959219998,1521.7917316719995,,,,,,,101221,0,2,0,3,0,1,2,0,18,2021_Oct_12_1029,listening_fmri,3.2.4,60.22514967412528,
7,parcelated_audio/33/33_20.ogg,,,,,,,,,0,0,0,0,0,7,7,7,0,0,0,0,,,,,,,,,,,,,0,0,0,0,0,19,19,19,,,,,,,,,,,,,,,,,,,,,,,,,,,,,,,,,,,,,,,,,,,,,,,,,,,,,,,,,,,,,,,,,,,,,,,,,,,,,,,,,,,,,,,,,,,,,,,,,,,,,,,,,1521.7926320490005,1528.6666472300003,,,,,,,101221,0,2,0,3,0,1,2,0,18,2021_Oct_12_1029,listening_fmri,3.2.4,60.22514967412528,
7,parcelated_audio/33/33_21.ogg,,,,,,,,,0,0,0,0,0,7,7,7,0,0,0,0,,,,,,,,,,,,,0,0,0,0,0,20,20,20,,,,,,,,,,,,,,,,,,,,,,,,,,,,,,,,,,,,,,,,,,,,,,,,,,,,,,,,,,,,,,,,,,,,,,,,,,,,,,,,,,,,,,,,,,,,,,,,,,,,,,,,,1528.6670085919995,1532.80240633,,,,,,,101221,0,2,0,3,0,1,2,0,18,2021_Oct_12_1029,listening_fmri,3.2.4,60.22514967412528,
7,parcelated_audio/33/33_22.ogg,,,,,,,,,0,0,0,0,0,7,7,7,0,0,0,0,,,,,,,,,,,,,0,0,0,0,0,21,21,21,,,,,,,,,,,,,,,,,,,,,,,,,,,,,,,,,,,,,,,,,,,,,,,,,,,,,,,,,,,,,,,,,,,,,,,,,,,,,,,,,,,,,,,,,,,,,,,,,,,,,,,,,1532.8027700969997,1544.6370795359999,,,,,,,101221,0,2,0,3,0,1,2,0,18,2021_Oct_12_1029,listening_fmri,3.2.4,60.22514967412528,
7,parcelated_audio/33/33_23.ogg,,,,,,,,,0,0,0,0,0,7,7,7,0,0,0,0,,,,,,,,,,,,,0,0,0,0,0,22,22,22,,,,,,,,,,,,,,,,,,,,,,,,,,,,,,,,,,,,,,,,,,,,,,,,,,,,,,,,,,,,,,,,,,,,,,,,,,,,,,,,,,,,,,,,,,,,,,,,,,,,,,,,,1544.637451618999,1555.1161582619989,,,,,,,101221,0,2,0,3,0,1,2,0,18,2021_Oct_12_1029,listening_fmri,3.2.4,60.22514967412528,
7,parcelated_audio/33/33_24.ogg,,,,,,,,,0,0,0,0,0,7,7,7,0,0,0,0,,,,,,,,,,,,,0,0,0,0,0,23,23,23,,,,,,,,,,,,,,,,,,,,,,,,,,,,,,,,,,,,,,,,,,,,,,,,,,,,,,,,,,,,,,,,,,,,,,,,,,,,,,,,,,,,,,,,,,,,,,,,,,,,,,,,,1555.1164883689999,1561.3788772459993,,,,,,,101221,0,2,0,3,0,1,2,0,18,2021_Oct_12_1029,listening_fmri,3.2.4,60.22514967412528,
7,parcelated_audio/33/33_25.ogg,,,,,,,,,0,0,0,0,0,7,7,7,0,0,0,0,,,,,,,,,,,,,0,0,0,0,0,24,24,24,,,,,,,,,,,,,,,,,,,,,,,,,,,,,,,,,,,,,,,,,,,,,,,,,,,,,,,,,,,,,,,,,,,,,,,,,,,,,,,,,,,,,,,,,,,,,,,,,,,,,,,,,1561.379244586,1569.5827408749992,,,,,,,101221,0,2,0,3,0,1,2,0,18,2021_Oct_12_1029,listening_fmri,3.2.4,60.22514967412528,
7,parcelated_audio/33/33_26.ogg,,,,,,,,,0,0,0,0,0,7,7,7,0,0,0,0,,,,,,,,,,,,,0,0,0,0,0,25,25,25,,,,,,,,,,,,,,,,,,,,,,,,,,,,,,,,,,,,,,,,,,,,,,,,,,,,,,,,,,,,,,,,,,,,,,,,,,,,,,,,,,,,,,,,,,,,,,,,,,,,,,,,,1569.583312486,1576.6386354709994,,,,,,,101221,0,2,0,3,0,1,2,0,18,2021_Oct_12_1029,listening_fmri,3.2.4,60.22514967412528,
7,parcelated_audio/33/33_27.ogg,,,,,,,,,0,0,0,0,0,7,7,7,0,0,0,0,,,,,,,,,,,,,0,0,0,0,0,26,26,26,,,,,,,,,,,,,,,,,,,,,,,,,,,,,,,,,,,,,,,,,,,,,,,,,,,,,,,,,,,,,,,,,,,,,,,,,,,,,,,,,,,,,,,,,,,,,,,,,,,,,,,,,1576.6390503049988,1584.2706795279992,,,,,,,101221,0,2,0,3,0,1,2,0,18,2021_Oct_12_1029,listening_fmri,3.2.4,60.22514967412528,
7,parcelated_audio/33/33_28.ogg,,,,,,,,,0,0,0,0,0,7,7,7,0,0,0,0,,,,,,,,,,,,,0,0,0,0,0,27,27,27,,,,,,,,,,,,,,,,,,,,,,,,,,,,,,,,,,,,,,,,,,,,,,,,,,,,,,,,,,,,,,,,,,,,,,,,,,,,,,,,,,,,,,,,,,,,,,,,,,,,,,,,,1584.271054322,1589.933924265999,,,,,,,101221,0,2,0,3,0,1,2,0,18,2021_Oct_12_1029,listening_fmri,3.2.4,60.22514967412528,
7,parcelated_audio/33/33_29.ogg,,,,,,,,,0,0,0,0,0,7,7,7,0,0,0,0,,,,,,,,,,,,,0,0,0,0,0,28,28,28,,,,,,,,,,,,,,,,,,,,,,,,,,,,,,,,,,,,,,,,,,,,,,,,,,,,,,,,,,,,,,,,,,,,,,,,,,,,,,,,,,,,,,,,,,,,,,,,,,,,,,,,,1589.9342847200005,1597.8439200529992,,,,,,,101221,0,2,0,3,0,1,2,0,18,2021_Oct_12_1029,listening_fmri,3.2.4,60.22514967412528,
7,parcelated_audio/33/33_30.ogg,,,,,,,,,0,0,0,0,0,7,7,7,0,0,0,0,,,,,,,,,,,,,0,0,0,0,0,29,29,29,,,,,,,,,,,,,,,,,,,,,,,,,,,,,,,,,,,,,,,,,,,,,,,,,,,,,,,,,,,,,,,,,,,,,,,,,,,,,,,,,,,,,,,,,,,,,,,,,,,,,,,,,1597.8444866589998,1612.7997949050005,,,,,,,101221,0,2,0,3,0,1,2,0,18,2021_Oct_12_1029,listening_fmri,3.2.4,60.22514967412528,
7,parcelated_audio/33/33_31.ogg,,,,,,,,,0,0,0,0,0,7,7,7,0,0,0,0,,,,,,,,,,,,,0,0,0,0,0,30,30,30,,,,,,,,,,,,,,,,,,,,,,,,,,,,,,,,,,,,,,,,,,,,,,,,,,,,,,,,,,,,,,,,,,,,,,,,,,,,,,,,,,,,,,,,,,,,,,,,,,,,,,,,,1612.8001586350001,1622.634944759,,,,,,,101221,0,2,0,3,0,1,2,0,18,2021_Oct_12_1029,listening_fmri,3.2.4,60.22514967412528,
7,parcelated_audio/33/33_32.ogg,,,,,,,,,0,0,0,0,0,7,7,7,0,0,0,0,,,,,,,,,,,,,0,0,0,0,0,31,31,31,,,,,,,,,,,,,,,,,,,,,,,,,,,,,,,,,,,,,,,,,,,,,,,,,,,,,,,,,,,,,,,,,,,,,,,,,,,,,,,,,,,,,,,,,,,,,,,,,,,,,,,,,1622.6353052140003,1628.2489435879997,,,,,,,101221,0,2,0,3,0,1,2,0,18,2021_Oct_12_1029,listening_fmri,3.2.4,60.22514967412528,
7,,,,,,,,,,0,0,0,0,0,7,7,7,0,0,0,0,,,,,,,,,,,,,0,0,0,0,,,,,,,,,,,,,,,,,,,,,,,,,,,,,,,,,,,,,,,,,,,,,,,,,,,,,,,,,,,,,,,,,,,,,,,,,,,,,,,,,,,,,,,,,,,,,,,,,,,,,,,,,,,,,,,,,,,,,101221,0,2,0,3,0,1,2,0,18,2021_Oct_12_1029,listening_fmri,3.2.4,60.22514967412528,
7,,,,,,,,,,0,0,0,0,0,7,7,7,0,0,0,0,,,,,,,,,,,,,,,,,,,,,,,,,,,,,,,,,,,,,,,,,,1628.249432307999,1634.2505134879993,1679.6760389169995,None,,,,,,,,,,,,,,,,,,,,,,,,,,,,,,,,,,,,,,,,,,,,,,,,,,,,,,,,,,,,,,,,,,,,,,,,,,,,,,,,,,1685.678537034999,None,1685.678537034999,None,,,101221,0,2,0,3,0,1,2,0,18,2021_Oct_12_1029,listening_fmri,3.2.4,60.22514967412528,
7,,,,,,,,,,0,0,0,0,0,7,7,7,,,,,,,,,,,,,,,,,,,,,,,,,,,,,,,,,,,,,,,,,,,,,,,,,,,,,,,,,,,,,,,,,,,,,,,,,,,,,,,,,,,,,,,,,,,,,,,,,,,,,,,,,,,,,,,,,,,,,,,,,,,,,,,,,,,,,,,,,101221,0,2,0,3,0,1,2,0,18,2021_Oct_12_1029,listening_fmri,3.2.4,60.22514967412528,
,,,,,,,,,,0,0,0,0,,,,,,,,,,,,,,,,,,,,,,,,,,,,,,,,,,,,,,,,,,,,,,,,,,,,,,,,,,,,,,,,,,,,,,,,,,,,,,,,,,,,,,,,,,,,,,,,,,,,,,,,,,,,,,,,,,,,,,,,,,,,,,,,,,,,,,,,,,,,,101221,0,2,0,3,0,1,2,0,18,2021_Oct_12_1029,listening_fmri,3.2.4,60.22514967412528,
,,,,,,,,,,,,,,,,,,,,,,,,,,,,,,,,,,,,,,,,,,,,,,0,0,0,0,,,,,,,,,,,,,,,,,,,,,,,,,,,,,,,,,,,,,,,,,,,,,,,,,,,,,,,,,,,,,,,,,,,,,,,,,,,,,,,,,,,,,,,,,,,,,,,,,,,,,,,1686.7095484099991,None,101221,0,2,0,3,0,1,2,0,18,2021_Oct_12_1029,listening_fmri,3.2.4,60.22514967412528,
,,,,,,,,,,,,,,,,,,,,,,,,,,,,,,,,,,,,,,,,,,,,,,1,0,1,0,,,,,,,,,,,,,,,,,,,,,,,,,,,,,,,,,,,,,,,,,,,,,,,,,,,,,,,,,,,,,,,,,,,,,,,,,,,,,,,,,,,,,,,,,,,,,,,,,,,,,,,1687.1778732120001,None,101221,0,2,0,3,0,1,2,0,18,2021_Oct_12_1029,listening_fmri,3.2.4,60.22514967412528,
,,,,,,,,,,,,,,,,,,,,,,,,,,,,,,,,,,,,,,,,,,,,,,2,0,2,0,,,,,,,,,,,,,,,,,,,,,,,,,,,,,,,,,,,,,,,,,,,,,,,,,,,,,,,,,,,,,,,,,,,,,,,,,,,,,,,,,,,,,,,,,,,,,,,,,,,,,,,1687.678091980999,None,101221,0,2,0,3,0,1,2,0,18,2021_Oct_12_1029,listening_fmri,3.2.4,60.22514967412528,
,,,,,,,,,,,,,,,,,,,,,,,,,,,,,,,,,,,,,,,,,,,,,,3,0,3,0,,,,,,,,,,,,,,,,,,,,,,,,,,,,,,,,,,,,,,,,,,,,,,,,,,,,,,,,,,,,,,,,,,,,,,,,,,,,,,,,,,,,,,,,,,,,,,,,,,,,,,,1688.1777386869999,None,101221,0,2,0,3,0,1,2,0,18,2021_Oct_12_1029,listening_fmri,3.2.4,60.22514967412528,
,,,,,,,,,,,,,,,,,,,,,,,,,,,,,,,,,,,,,,,,,,,,,,4,0,4,0,,,,,,,,,,,,,,,,,,,,,,,,,,,,,,,,,,,,,,,,,,,,,,,,,,,,,,,,,,,,,,,,,,,,,,,,,,,,,,,,,,,,,,,,,,,,,,,,,,,,,,,1688.677919587999,None,101221,0,2,0,3,0,1,2,0,18,2021_Oct_12_1029,listening_fmri,3.2.4,60.22514967412528,
