count,audio,trials_14.thisRepN,trials_14.thisTrialN,trials_14.thisN,trials_14.thisIndex,trials_3.thisRepN,trials_3.thisTrialN,trials_3.thisN,trials_3.thisIndex,trials_4.thisRepN,trials_4.thisTrialN,trials_4.thisN,trials_4.thisIndex,trials_6.thisRepN,trials_6.thisTrialN,trials_6.thisN,trials_6.thisIndex,trials_9.thisRepN,trials_9.thisTrialN,trials_9.thisN,trials_9.thisIndex,trials_10.thisRepN,trials_10.thisTrialN,trials_10.thisN,trials_10.thisIndex,trials_11.thisRepN,trials_11.thisTrialN,trials_11.thisN,trials_11.thisIndex,trials_12.thisRepN,trials_12.thisTrialN,trials_12.thisN,trials_12.thisIndex,trials_25.thisRepN,trials_25.thisTrialN,trials_25.thisN,trials_25.thisIndex,trials_15.thisRepN,trials_15.thisTrialN,trials_15.thisN,trials_15.thisIndex,trials_26.thisRepN,trials_26.thisTrialN,trials_26.thisN,trials_26.thisIndex,story_list_block2,action_list_block2,textTrigger.started,textTrigger.stopped,getTrigger.keys,getTrigger.rt,getTrigger.started,getTrigger.stopped,triggerTime,text_76.started,text_76.stopped,text_77.started,text_77.stopped,startWait,endWait,image_23.started,image_23.stopped,text_55.started,text_55.stopped,text_56.started,text_56.stopped,key_resp_2.keys,key_resp_2.rt,key_resp_2.started,key_resp_2.stopped,text_82.started,text_82.stopped,text_57.started,text_57.stopped,key_resp_17.keys,key_resp_17.rt,key_resp_17.started,key_resp_17.stopped,text_83.started,text_83.stopped,text_60.started,text_60.stopped,image_2.started,image_2.stopped,text_58.started,text_58.stopped,key_resp_23.keys,key_resp_23.rt,key_resp_23.started,key_resp_23.stopped,text_62.started,text_62.stopped,key_resp_18.keys,key_resp_18.rt,key_resp_18.started,key_resp_18.stopped,text_84.started,text_84.stopped,question1_2.started,question1_2.stopped,question2_2.started,question2_2.stopped,question3_2.started,question3_2.stopped,question4_2.started,question4_2.stopped,question5_2.started,question5_2.stopped,question6_2.started,question6_2.stopped,image_15.started,image_15.stopped,key_resp.keys,key_resp.started,key_resp.stopped,text_59.started,text_59.stopped,key_resp_19.keys,key_resp_19.rt,key_resp_19.started,key_resp_19.stopped,text_85.started,text_85.stopped,text_61.started,text_61.stopped,image_17.started,image_17.stopped,text_63.started,text_63.stopped,key_resp_24.keys,key_resp_24.rt,key_resp_24.started,key_resp_24.stopped,text_64.started,text_64.stopped,key_resp_20.keys,key_resp_20.rt,key_resp_20.started,key_resp_20.stopped,storyImage_StartTime,storyImage_EndTime,clip_StartTime,clip_EndTime,text_67.started,text_67.stopped,text_68.started,text_68.stopped,participant,sA,sB,lA,lB,block_struct,play_stories,block,behavioral,random_seed,date,expName,psychopyVersion,frameRate,
0,,,,,,,,,,0,0,0,0,0,0,0,0,,,,,,,,,,,,,,,,,,,,,,,,,,,,,[42 33 13 11 22 24 44 31],[3 1 4 2 2 4 1 3],15.859340700000303,None,equal,32.03437529199982,15.859340700000303,None,32.05979642500006,15.859340700000303,None,15.859340700000303,None,0.00038347300005625584,5.998746427999777,47.91757142100005,None,,,,,,,,,,,,,,,,,,,,,,,,,,,,,,,,,,,,,,,,,,,,,,,,,,,,,,,,,,,,,,,,,,,,,,,,,,,,,,,,,,,,,,031722,2,3,0,1,0,1,2,0,62,2022_Mar_17_1320,listening_fmri,3.2.4,60.29512086036776,
1,,,,,,,,,,0,0,0,0,0,1,1,1,0,0,0,0,0,0,0,0,0,0,0,0,,,,,,,,,,,,,,,,,,,,,,,,,,,,,,,,,,53.925880229000086,None,53.925880229000086,None,8,1.7199046830000952,53.925880229000086,None,53.925880229000086,None,55.675945613000295,None,2,1.2299167999999554,55.675945613000295,None,55.675945613000295,None,56.94276481199995,None,56.94276481199995,None,56.94276481199995,None,7,1.010090886999933,56.94276481199995,None,57.976367006000146,None,7,7.31545650399994,57.976367006000146,None,57.976367006000146,None,65.3840010050003,None,65.3840010050003,None,65.3840010050003,None,65.3840010050003,None,65.3840010050003,None,65.3840010050003,None,65.3840010050003,None,None,65.3840010050003,None,,,,,,,,,,,,,,,,,,,,,,,,,,,,,,,,,031722,2,3,0,1,0,1,2,0,62,2022_Mar_17_1320,listening_fmri,3.2.4,60.29512086036776,
1,,,,,,,,,,0,0,0,0,0,1,1,1,0,0,0,0,0,0,0,0,,,,,,,,,,,,,,,,,,,,,,,,,,,,,,,,,,,,,,,,,,,,,,,,,,,,,,,,,,,,,,,,,,,,,,,,,,,,,,,,,,,,,,,,,,,90.69256671799985,None,2,2.117246054000134,90.69256671799985,None,90.69256671799985,None,92.8428654270001,None,92.8428654270001,None,92.8428654270001,None,2,2.171911178999835,92.8428654270001,None,,,,,,,,,,,,,,,031722,2,3,0,1,0,1,2,0,62,2022_Mar_17_1320,listening_fmri,3.2.4,60.29512086036776,
1,parcelated_audio/33/33_1.ogg,,,,,,,,,0,0,0,0,0,1,1,1,0,0,0,0,,,,,,,,,,,,,0,0,0,0,0,0,0,0,,,,,,,,,,,,,,,,,,,,,,,,,,,,,,,,,,,,,,,,,,,,,,,,,,,,,,,,,,,,,,,,,,,,,,,,,,,,,,,,,,,,,,,,,,,,,95.04288281500021,None,2,2.3248619340001824,95.04288281500021,None,49.48217959299973,52.49112563599965,52.49784213599969,62.47881103899999,,,,,031722,2,3,0,1,0,1,2,0,62,2022_Mar_17_1320,listening_fmri,3.2.4,60.29512086036776,
1,parcelated_audio/33/33_2.ogg,,,,,,,,,0,0,0,0,0,1,1,1,0,0,0,0,,,,,,,,,,,,,0,0,0,0,0,1,1,1,,,,,,,,,,,,,,,,,,,,,,,,,,,,,,,,,,,,,,,,,,,,,,,,,,,,,,,,,,,,,,,,,,,,,,,,,,,,,,,,,,,,,,,,,,,,,,,,,,,,,62.480003934999786,72.93624533599996,,,,,031722,2,3,0,1,0,1,2,0,62,2022_Mar_17_1320,listening_fmri,3.2.4,60.29512086036776,
1,parcelated_audio/33/33_3.ogg,,,,,,,,,0,0,0,0,0,1,1,1,0,0,0,0,,,,,,,,,,,,,0,0,0,0,0,2,2,2,,,,,,,,,,,,,,,,,,,,,,,,,,,,,,,,,,,,,,,,,,,,,,,,,,,,,,,,,,,,,,,,,,,,,,,,,,,,,,,,,,,,,,,,,,,,,,,,,,,,,72.9368129659997,79.49397489099965,,,,,031722,2,3,0,1,0,1,2,0,62,2022_Mar_17_1320,listening_fmri,3.2.4,60.29512086036776,
1,parcelated_audio/33/33_4.ogg,,,,,,,,,0,0,0,0,0,1,1,1,0,0,0,0,,,,,,,,,,,,,0,0,0,0,0,3,3,3,,,,,,,,,,,,,,,,,,,,,,,,,,,,,,,,,,,,,,,,,,,,,,,,,,,,,,,,,,,,,,,,,,,,,,,,,,,,,,,,,,,,,,,,,,,,,,,,,,,,,79.4943199129998,83.08785479700009,,,,,031722,2,3,0,1,0,1,2,0,62,2022_Mar_17_1320,listening_fmri,3.2.4,60.29512086036776,
1,parcelated_audio/33/33_5.ogg,,,,,,,,,0,0,0,0,0,1,1,1,0,0,0,0,,,,,,,,,,,,,0,0,0,0,0,4,4,4,,,,,,,,,,,,,,,,,,,,,,,,,,,,,,,,,,,,,,,,,,,,,,,,,,,,,,,,,,,,,,,,,,,,,,,,,,,,,,,,,,,,,,,,,,,,,,,,,,,,,83.08843333599998,94.3495051609998,,,,,031722,2,3,0,1,0,1,2,0,62,2022_Mar_17_1320,listening_fmri,3.2.4,60.29512086036776,
1,parcelated_audio/33/33_6.ogg,,,,,,,,,0,0,0,0,0,1,1,1,0,0,0,0,,,,,,,,,,,,,0,0,0,0,0,5,5,5,,,,,,,,,,,,,,,,,,,,,,,,,,,,,,,,,,,,,,,,,,,,,,,,,,,,,,,,,,,,,,,,,,,,,,,,,,,,,,,,,,,,,,,,,,,,,,,,,,,,,94.34986034899975,106.06068866199985,,,,,031722,2,3,0,1,0,1,2,0,62,2022_Mar_17_1320,listening_fmri,3.2.4,60.29512086036776,
1,parcelated_audio/33/33_7.ogg,,,,,,,,,0,0,0,0,0,1,1,1,0,0,0,0,,,,,,,,,,,,,0,0,0,0,0,6,6,6,,,,,,,,,,,,,,,,,,,,,,,,,,,,,,,,,,,,,,,,,,,,,,,,,,,,,,,,,,,,,,,,,,,,,,,,,,,,,,,,,,,,,,,,,,,,,,,,,,,,,106.06104598699994,120.63764595099974,,,,,031722,2,3,0,1,0,1,2,0,62,2022_Mar_17_1320,listening_fmri,3.2.4,60.29512086036776,
1,parcelated_audio/33/33_8.ogg,,,,,,,,,0,0,0,0,0,1,1,1,0,0,0,0,,,,,,,,,,,,,0,0,0,0,0,7,7,7,,,,,,,,,,,,,,,,,,,,,,,,,,,,,,,,,,,,,,,,,,,,,,,,,,,,,,,,,,,,,,,,,,,,,,,,,,,,,,,,,,,,,,,,,,,,,,,,,,,,,120.6380021089999,126.78571671999998,,,,,031722,2,3,0,1,0,1,2,0,62,2022_Mar_17_1320,listening_fmri,3.2.4,60.29512086036776,
1,parcelated_audio/33/33_9.ogg,,,,,,,,,0,0,0,0,0,1,1,1,0,0,0,0,,,,,,,,,,,,,0,0,0,0,0,8,8,8,,,,,,,,,,,,,,,,,,,,,,,,,,,,,,,,,,,,,,,,,,,,,,,,,,,,,,,,,,,,,,,,,,,,,,,,,,,,,,,,,,,,,,,,,,,,,,,,,,,,,126.78608620499972,130.494729817,,,,,031722,2,3,0,1,0,1,2,0,62,2022_Mar_17_1320,listening_fmri,3.2.4,60.29512086036776,
1,parcelated_audio/33/33_10.ogg,,,,,,,,,0,0,0,0,0,1,1,1,0,0,0,0,,,,,,,,,,,,,0,0,0,0,0,9,9,9,,,,,,,,,,,,,,,,,,,,,,,,,,,,,,,,,,,,,,,,,,,,,,,,,,,,,,,,,,,,,,,,,,,,,,,,,,,,,,,,,,,,,,,,,,,,,,,,,,,,,130.4952747110001,135.86674073999984,,,,,031722,2,3,0,1,0,1,2,0,62,2022_Mar_17_1320,listening_fmri,3.2.4,60.29512086036776,
1,parcelated_audio/33/33_11.ogg,,,,,,,,,0,0,0,0,0,1,1,1,0,0,0,0,,,,,,,,,,,,,0,0,0,0,0,10,10,10,,,,,,,,,,,,,,,,,,,,,,,,,,,,,,,,,,,,,,,,,,,,,,,,,,,,,,,,,,,,,,,,,,,,,,,,,,,,,,,,,,,,,,,,,,,,,,,,,,,,,135.86714555199978,150.30352232699988,,,,,031722,2,3,0,1,0,1,2,0,62,2022_Mar_17_1320,listening_fmri,3.2.4,60.29512086036776,
1,parcelated_audio/33/33_12.ogg,,,,,,,,,0,0,0,0,0,1,1,1,0,0,0,0,,,,,,,,,,,,,0,0,0,0,0,11,11,11,,,,,,,,,,,,,,,,,,,,,,,,,,,,,,,,,,,,,,,,,,,,,,,,,,,,,,,,,,,,,,,,,,,,,,,,,,,,,,,,,,,,,,,,,,,,,,,,,,,,,150.3038595359999,156.4206656839997,,,,,031722,2,3,0,1,0,1,2,0,62,2022_Mar_17_1320,listening_fmri,3.2.4,60.29512086036776,
1,parcelated_audio/33/33_13.ogg,,,,,,,,,0,0,0,0,0,1,1,1,0,0,0,0,,,,,,,,,,,,,0,0,0,0,0,12,12,12,,,,,,,,,,,,,,,,,,,,,,,,,,,,,,,,,,,,,,,,,,,,,,,,,,,,,,,,,,,,,,,,,,,,,,,,,,,,,,,,,,,,,,,,,,,,,,,,,,,,,156.4210268859997,163.85516881600006,,,,,031722,2,3,0,1,0,1,2,0,62,2022_Mar_17_1320,listening_fmri,3.2.4,60.29512086036776,
1,parcelated_audio/33/33_14.ogg,,,,,,,,,0,0,0,0,0,1,1,1,0,0,0,0,,,,,,,,,,,,,0,0,0,0,0,13,13,13,,,,,,,,,,,,,,,,,,,,,,,,,,,,,,,,,,,,,,,,,,,,,,,,,,,,,,,,,,,,,,,,,,,,,,,,,,,,,,,,,,,,,,,,,,,,,,,,,,,,,163.85552694199987,176.29974700999992,,,,,031722,2,3,0,1,0,1,2,0,62,2022_Mar_17_1320,listening_fmri,3.2.4,60.29512086036776,
1,parcelated_audio/33/33_15.ogg,,,,,,,,,0,0,0,0,0,1,1,1,0,0,0,0,,,,,,,,,,,,,0,0,0,0,0,14,14,14,,,,,,,,,,,,,,,,,,,,,,,,,,,,,,,,,,,,,,,,,,,,,,,,,,,,,,,,,,,,,,,,,,,,,,,,,,,,,,,,,,,,,,,,,,,,,,,,,,,,,176.30020775100002,194.84296870499975,,,,,031722,2,3,0,1,0,1,2,0,62,2022_Mar_17_1320,listening_fmri,3.2.4,60.29512086036776,
1,parcelated_audio/33/33_16.ogg,,,,,,,,,0,0,0,0,0,1,1,1,0,0,0,0,,,,,,,,,,,,,0,0,0,0,0,15,15,15,,,,,,,,,,,,,,,,,,,,,,,,,,,,,,,,,,,,,,,,,,,,,,,,,,,,,,,,,,,,,,,,,,,,,,,,,,,,,,,,,,,,,,,,,,,,,,,,,,,,,194.84332583700007,207.07679914799974,,,,,031722,2,3,0,1,0,1,2,0,62,2022_Mar_17_1320,listening_fmri,3.2.4,60.29512086036776,
1,parcelated_audio/33/33_17.ogg,,,,,,,,,0,0,0,0,0,1,1,1,0,0,0,0,,,,,,,,,,,,,0,0,0,0,0,16,16,16,,,,,,,,,,,,,,,,,,,,,,,,,,,,,,,,,,,,,,,,,,,,,,,,,,,,,,,,,,,,,,,,,,,,,,,,,,,,,,,,,,,,,,,,,,,,,,,,,,,,,207.07726482299995,218.30182149799975,,,,,031722,2,3,0,1,0,1,2,0,62,2022_Mar_17_1320,listening_fmri,3.2.4,60.29512086036776,
1,parcelated_audio/33/33_18.ogg,,,,,,,,,0,0,0,0,0,1,1,1,0,0,0,0,,,,,,,,,,,,,0,0,0,0,0,17,17,17,,,,,,,,,,,,,,,,,,,,,,,,,,,,,,,,,,,,,,,,,,,,,,,,,,,,,,,,,,,,,,,,,,,,,,,,,,,,,,,,,,,,,,,,,,,,,,,,,,,,,218.3022740030001,226.87748910799974,,,,,031722,2,3,0,1,0,1,2,0,62,2022_Mar_17_1320,listening_fmri,3.2.4,60.29512086036776,
1,parcelated_audio/33/33_19.ogg,,,,,,,,,0,0,0,0,0,1,1,1,0,0,0,0,,,,,,,,,,,,,0,0,0,0,0,18,18,18,,,,,,,,,,,,,,,,,,,,,,,,,,,,,,,,,,,,,,,,,,,,,,,,,,,,,,,,,,,,,,,,,,,,,,,,,,,,,,,,,,,,,,,,,,,,,,,,,,,,,226.87785151399976,230.33120686499979,,,,,031722,2,3,0,1,0,1,2,0,62,2022_Mar_17_1320,listening_fmri,3.2.4,60.29512086036776,
1,parcelated_audio/33/33_20.ogg,,,,,,,,,0,0,0,0,0,1,1,1,0,0,0,0,,,,,,,,,,,,,0,0,0,0,0,19,19,19,,,,,,,,,,,,,,,,,,,,,,,,,,,,,,,,,,,,,,,,,,,,,,,,,,,,,,,,,,,,,,,,,,,,,,,,,,,,,,,,,,,,,,,,,,,,,,,,,,,,,230.33166697399975,237.22088672900009,,,,,031722,2,3,0,1,0,1,2,0,62,2022_Mar_17_1320,listening_fmri,3.2.4,60.29512086036776,
1,parcelated_audio/33/33_21.ogg,,,,,,,,,0,0,0,0,0,1,1,1,0,0,0,0,,,,,,,,,,,,,0,0,0,0,0,20,20,20,,,,,,,,,,,,,,,,,,,,,,,,,,,,,,,,,,,,,,,,,,,,,,,,,,,,,,,,,,,,,,,,,,,,,,,,,,,,,,,,,,,,,,,,,,,,,,,,,,,,,237.221255293,241.2707432909997,,,,,031722,2,3,0,1,0,1,2,0,62,2022_Mar_17_1320,listening_fmri,3.2.4,60.29512086036776,
1,parcelated_audio/33/33_22.ogg,,,,,,,,,0,0,0,0,0,1,1,1,0,0,0,0,,,,,,,,,,,,,0,0,0,0,0,21,21,21,,,,,,,,,,,,,,,,,,,,,,,,,,,,,,,,,,,,,,,,,,,,,,,,,,,,,,,,,,,,,,,,,,,,,,,,,,,,,,,,,,,,,,,,,,,,,,,,,,,,,241.27110496499972,253.0950799039997,,,,,031722,2,3,0,1,0,1,2,0,62,2022_Mar_17_1320,listening_fmri,3.2.4,60.29512086036776,
1,parcelated_audio/33/33_23.ogg,,,,,,,,,0,0,0,0,0,1,1,1,0,0,0,0,,,,,,,,,,,,,0,0,0,0,0,22,22,22,,,,,,,,,,,,,,,,,,,,,,,,,,,,,,,,,,,,,,,,,,,,,,,,,,,,,,,,,,,,,,,,,,,,,,,,,,,,,,,,,,,,,,,,,,,,,,,,,,,,,253.09544205299972,263.60010818599994,,,,,031722,2,3,0,1,0,1,2,0,62,2022_Mar_17_1320,listening_fmri,3.2.4,60.29512086036776,
1,parcelated_audio/33/33_24.ogg,,,,,,,,,0,0,0,0,0,1,1,1,0,0,0,0,,,,,,,,,,,,,0,0,0,0,0,23,23,23,,,,,,,,,,,,,,,,,,,,,,,,,,,,,,,,,,,,,,,,,,,,,,,,,,,,,,,,,,,,,,,,,,,,,,,,,,,,,,,,,,,,,,,,,,,,,,,,,,,,,263.60039827699984,269.8801401779997,,,,,031722,2,3,0,1,0,1,2,0,62,2022_Mar_17_1320,listening_fmri,3.2.4,60.29512086036776,
1,parcelated_audio/33/33_25.ogg,,,,,,,,,0,0,0,0,0,1,1,1,0,0,0,0,,,,,,,,,,,,,0,0,0,0,0,24,24,24,,,,,,,,,,,,,,,,,,,,,,,,,,,,,,,,,,,,,,,,,,,,,,,,,,,,,,,,,,,,,,,,,,,,,,,,,,,,,,,,,,,,,,,,,,,,,,,,,,,,,269.8804518510001,278.0998801239998,,,,,031722,2,3,0,1,0,1,2,0,62,2022_Mar_17_1320,listening_fmri,3.2.4,60.29512086036776,
1,parcelated_audio/33/33_26.ogg,,,,,,,,,0,0,0,0,0,1,1,1,0,0,0,0,,,,,,,,,,,,,0,0,0,0,0,25,25,25,,,,,,,,,,,,,,,,,,,,,,,,,,,,,,,,,,,,,,,,,,,,,,,,,,,,,,,,,,,,,,,,,,,,,,,,,,,,,,,,,,,,,,,,,,,,,,,,,,,,,278.1011694589997,285.1868452389999,,,,,031722,2,3,0,1,0,1,2,0,62,2022_Mar_17_1320,listening_fmri,3.2.4,60.29512086036776,
1,parcelated_audio/33/33_27.ogg,,,,,,,,,0,0,0,0,0,1,1,1,0,0,0,0,,,,,,,,,,,,,0,0,0,0,0,26,26,26,,,,,,,,,,,,,,,,,,,,,,,,,,,,,,,,,,,,,,,,,,,,,,,,,,,,,,,,,,,,,,,,,,,,,,,,,,,,,,,,,,,,,,,,,,,,,,,,,,,,,285.18795511999997,292.744354038,,,,,031722,2,3,0,1,0,1,2,0,62,2022_Mar_17_1320,listening_fmri,3.2.4,60.29512086036776,
1,parcelated_audio/33/33_28.ogg,,,,,,,,,0,0,0,0,0,1,1,1,0,0,0,0,,,,,,,,,,,,,0,0,0,0,0,27,27,27,,,,,,,,,,,,,,,,,,,,,,,,,,,,,,,,,,,,,,,,,,,,,,,,,,,,,,,,,,,,,,,,,,,,,,,,,,,,,,,,,,,,,,,,,,,,,,,,,,,,,292.745418946,298.41877973500004,,,,,031722,2,3,0,1,0,1,2,0,62,2022_Mar_17_1320,listening_fmri,3.2.4,60.29512086036776,
1,parcelated_audio/33/33_29.ogg,,,,,,,,,0,0,0,0,0,1,1,1,0,0,0,0,,,,,,,,,,,,,0,0,0,0,0,28,28,28,,,,,,,,,,,,,,,,,,,,,,,,,,,,,,,,,,,,,,,,,,,,,,,,,,,,,,,,,,,,,,,,,,,,,,,,,,,,,,,,,,,,,,,,,,,,,,,,,,,,,298.41988479099973,306.3403456010001,,,,,031722,2,3,0,1,0,1,2,0,62,2022_Mar_17_1320,listening_fmri,3.2.4,60.29512086036776,
1,parcelated_audio/33/33_30.ogg,,,,,,,,,0,0,0,0,0,1,1,1,0,0,0,0,,,,,,,,,,,,,0,0,0,0,0,29,29,29,,,,,,,,,,,,,,,,,,,,,,,,,,,,,,,,,,,,,,,,,,,,,,,,,,,,,,,,,,,,,,,,,,,,,,,,,,,,,,,,,,,,,,,,,,,,,,,,,,,,,306.34078948399974,321.32476395899994,,,,,031722,2,3,0,1,0,1,2,0,62,2022_Mar_17_1320,listening_fmri,3.2.4,60.29512086036776,
1,parcelated_audio/33/33_31.ogg,,,,,,,,,0,0,0,0,0,1,1,1,0,0,0,0,,,,,,,,,,,,,0,0,0,0,0,30,30,30,,,,,,,,,,,,,,,,,,,,,,,,,,,,,,,,,,,,,,,,,,,,,,,,,,,,,,,,,,,,,,,,,,,,,,,,,,,,,,,,,,,,,,,,,,,,,,,,,,,,,321.3251256469998,331.09076692100007,,,,,031722,2,3,0,1,0,1,2,0,62,2022_Mar_17_1320,listening_fmri,3.2.4,60.29512086036776,
1,parcelated_audio/33/33_32.ogg,,,,,,,,,0,0,0,0,0,1,1,1,0,0,0,0,,,,,,,,,,,,,0,0,0,0,0,31,31,31,,,,,,,,,,,,,,,,,,,,,,,,,,,,,,,,,,,,,,,,,,,,,,,,,,,,,,,,,,,,,,,,,,,,,,,,,,,,,,,,,,,,,,,,,,,,,,,,,,,,,331.0911293529998,336.7084688169998,,,,,031722,2,3,0,1,0,1,2,0,62,2022_Mar_17_1320,listening_fmri,3.2.4,60.29512086036776,
1,,,,,,,,,,0,0,0,0,0,1,1,1,0,0,0,0,,,,,,,,,,,,,0,0,0,0,,,,,,,,,,,,,,,,,,,,,,,,,,,,,,,,,,,,,,,,,,,,,,,,,,,,,,,,,,,,,,,,,,,,,,,,,,,,,,,,,,,,,,,,,,,,,,,,,,,,,,,,,,,,,,,031722,2,3,0,1,0,1,2,0,62,2022_Mar_17_1320,listening_fmri,3.2.4,60.29512086036776,
,,,,,,,,,,,,,,,,,,,,,,,,,,,,,,,,,,,,,,,,,,,,,,,,,,,,,,,,,,,336.70898460599983,342.707688211,384.62644563999993,None,,,,,,,,,,,,,,,,,,,,,,,,,,,,,,,,,,,,,,,,,,,,,,,,,,,,,,,,,,,,,,,,,,,,,,,,,,,,,,,,,,390.6270033850001,None,390.6270033850001,None,,,,,,,,,,,,,,,
﻿count,audio,trials_14.thisRepN,trials_14.thisTrialN,trials_14.thisN,trials_14.thisIndex,trials_3.thisRepN,trials_3.thisTrialN,trials_3.thisN,trials_3.thisIndex,trials_4.thisRepN,trials_4.thisTrialN,trials_4.thisN,trials_4.thisIndex,trials_6.thisRepN,trials_6.thisTrialN,trials_6.thisN,trials_6.thisIndex,trials_9.thisRepN,trials_9.thisTrialN,trials_9.thisN,trials_9.thisIndex,trials_10.thisRepN,trials_10.thisTrialN,trials_10.thisN,trials_10.thisIndex,trials_11.thisRepN,trials_11.thisTrialN,trials_11.thisN,trials_11.thisIndex,trials_12.thisRepN,trials_12.thisTrialN,trials_12.thisN,trials_12.thisIndex,trials_25.thisRepN,trials_25.thisTrialN,trials_25.thisN,trials_25.thisIndex,trials_15.thisRepN,trials_15.thisTrialN,trials_15.thisN,trials_15.thisIndex,trials_26.thisRepN,trials_26.thisTrialN,trials_26.thisN,trials_26.thisIndex,story_list_block2,action_list_block2,textTrigger.started,textTrigger.stopped,getTrigger.keys,getTrigger.rt,getTrigger.started,getTrigger.stopped,triggerTime,text_76.started,text_76.stopped,text_77.started,text_77.stopped,startWait,endWait,image_23.started,image_23.stopped,text_55.started,text_55.stopped,text_56.started,text_56.stopped,key_resp_2.keys,key_resp_2.rt,key_resp_2.started,key_resp_2.stopped,text_82.started,text_82.stopped,text_57.started,text_57.stopped,key_resp_17.keys,key_resp_17.rt,key_resp_17.started,key_resp_17.stopped,text_83.started,text_83.stopped,text_60.started,text_60.stopped,image_2.started,image_2.stopped,text_58.started,text_58.stopped,key_resp_23.keys,key_resp_23.rt,key_resp_23.started,key_resp_23.stopped,text_62.started,text_62.stopped,key_resp_18.keys,key_resp_18.rt,key_resp_18.started,key_resp_18.stopped,text_84.started,text_84.stopped,question1_2.started,question1_2.stopped,question2_2.started,question2_2.stopped,question3_2.started,question3_2.stopped,question4_2.started,question4_2.stopped,question5_2.started,question5_2.stopped,question6_2.started,question6_2.stopped,image_15.started,image_15.stopped,key_resp.keys,key_resp.started,key_resp.stopped,text_59.started,text_59.stopped,key_resp_19.keys,key_resp_19.rt,key_resp_19.started,key_resp_19.stopped,text_85.started,text_85.stopped,text_61.started,text_61.stopped,image_17.started,image_17.stopped,text_63.started,text_63.stopped,key_resp_24.keys,key_resp_24.rt,key_resp_24.started,key_resp_24.stopped,text_64.started,text_64.stopped,key_resp_20.keys,key_resp_20.rt,key_resp_20.started,key_resp_20.stopped,storyImage_StartTime,storyImage_EndTime,clip_StartTime,clip_EndTime,text_67.started,text_67.stopped,text_68.started,text_68.stopped,participant,sA,sB,lA,lB,block_struct,play_stories,block,behavioral,random_seed,date,expName,psychopyVersion,frameRate,
0,,,,,,,,,,0,0,0,0,0,0,0,0,,,,,,,,,,,,,,,,,,,,,,,,,,,,,[42 33 13 11 22 24 44 31],[3 1 4 2 2 4 1 3],15.859340700000303,None,equal,32.03437529199982,15.859340700000303,None,32.05979642500006,15.859340700000303,None,15.859340700000303,None,0.00038347300005625584,5.998746427999777,47.91757142100005,None,,,,,,,,,,,,,,,,,,,,,,,,,,,,,,,,,,,,,,,,,,,,,,,,,,,,,,,,,,,,,,,,,,,,,,,,,,,,,,,,,,,,,,031722,2,3,0,1,0,1,2,0,62,2022_Mar_17_1320,listening_fmri,3.2.4,60.29512086036776,
1,,,,,,,,,,0,0,0,0,0,1,1,1,0,0,0,0,0,0,0,0,0,0,0,0,,,,,,,,,,,,,,,,,,,,,,,,,,,,,,,,,,53.925880229000086,None,53.925880229000086,None,8,1.7199046830000952,53.925880229000086,None,53.925880229000086,None,55.675945613000295,None,2,1.2299167999999554,55.675945613000295,None,55.675945613000295,None,56.94276481199995,None,56.94276481199995,None,56.94276481199995,None,7,1.010090886999933,56.94276481199995,None,57.976367006000146,None,7,7.31545650399994,57.976367006000146,None,57.976367006000146,None,65.3840010050003,None,65.3840010050003,None,65.3840010050003,None,65.3840010050003,None,65.3840010050003,None,65.3840010050003,None,65.3840010050003,None,None,65.3840010050003,None,,,,,,,,,,,,,,,,,,,,,,,,,,,,,,,,,031722,2,3,0,1,0,1,2,0,62,2022_Mar_17_1320,listening_fmri,3.2.4,60.29512086036776,
1,,,,,,,,,,0,0,0,0,0,1,1,1,0,0,0,0,0,0,0,0,,,,,,,,,,,,,,,,,,,,,,,,,,,,,,,,,,,,,,,,,,,,,,,,,,,,,,,,,,,,,,,,,,,,,,,,,,,,,,,,,,,,,,,,,,,90.69256671799985,None,2,2.117246054000134,90.69256671799985,None,90.69256671799985,None,92.8428654270001,None,92.8428654270001,None,92.8428654270001,None,2,2.171911178999835,92.8428654270001,None,,,,,,,,,,,,,,,031722,2,3,0,1,0,1,2,0,62,2022_Mar_17_1320,listening_fmri,3.2.4,60.29512086036776,
1,parcelated_audio/33/33_1.ogg,,,,,,,,,0,0,0,0,0,1,1,1,0,0,0,0,,,,,,,,,,,,,0,0,0,0,0,0,0,0,,,,,,,,,,,,,,,,,,,,,,,,,,,,,,,,,,,,,,,,,,,,,,,,,,,,,,,,,,,,,,,,,,,,,,,,,,,,,,,,,,,,,,,,,,,,,95.04288281500021,None,2,2.3248619340001824,95.04288281500021,None,49.48217959299973,52.49112563599965,52.49784213599969,62.47881103899999,,,,,031722,2,3,0,1,0,1,2,0,62,2022_Mar_17_1320,listening_fmri,3.2.4,60.29512086036776,
1,parcelated_audio/33/33_2.ogg,,,,,,,,,0,0,0,0,0,1,1,1,0,0,0,0,,,,,,,,,,,,,0,0,0,0,0,1,1,1,,,,,,,,,,,,,,,,,,,,,,,,,,,,,,,,,,,,,,,,,,,,,,,,,,,,,,,,,,,,,,,,,,,,,,,,,,,,,,,,,,,,,,,,,,,,,,,,,,,,,62.480003934999786,72.93624533599996,,,,,031722,2,3,0,1,0,1,2,0,62,2022_Mar_17_1320,listening_fmri,3.2.4,60.29512086036776,
1,parcelated_audio/33/33_3.ogg,,,,,,,,,0,0,0,0,0,1,1,1,0,0,0,0,,,,,,,,,,,,,0,0,0,0,0,2,2,2,,,,,,,,,,,,,,,,,,,,,,,,,,,,,,,,,,,,,,,,,,,,,,,,,,,,,,,,,,,,,,,,,,,,,,,,,,,,,,,,,,,,,,,,,,,,,,,,,,,,,72.9368129659997,79.49397489099965,,,,,031722,2,3,0,1,0,1,2,0,62,2022_Mar_17_1320,listening_fmri,3.2.4,60.29512086036776,
1,parcelated_audio/33/33_4.ogg,,,,,,,,,0,0,0,0,0,1,1,1,0,0,0,0,,,,,,,,,,,,,0,0,0,0,0,3,3,3,,,,,,,,,,,,,,,,,,,,,,,,,,,,,,,,,,,,,,,,,,,,,,,,,,,,,,,,,,,,,,,,,,,,,,,,,,,,,,,,,,,,,,,,,,,,,,,,,,,,,79.4943199129998,83.08785479700009,,,,,031722,2,3,0,1,0,1,2,0,62,2022_Mar_17_1320,listening_fmri,3.2.4,60.29512086036776,
1,parcelated_audio/33/33_5.ogg,,,,,,,,,0,0,0,0,0,1,1,1,0,0,0,0,,,,,,,,,,,,,0,0,0,0,0,4,4,4,,,,,,,,,,,,,,,,,,,,,,,,,,,,,,,,,,,,,,,,,,,,,,,,,,,,,,,,,,,,,,,,,,,,,,,,,,,,,,,,,,,,,,,,,,,,,,,,,,,,,83.08843333599998,94.3495051609998,,,,,031722,2,3,0,1,0,1,2,0,62,2022_Mar_17_1320,listening_fmri,3.2.4,60.29512086036776,
1,parcelated_audio/33/33_6.ogg,,,,,,,,,0,0,0,0,0,1,1,1,0,0,0,0,,,,,,,,,,,,,0,0,0,0,0,5,5,5,,,,,,,,,,,,,,,,,,,,,,,,,,,,,,,,,,,,,,,,,,,,,,,,,,,,,,,,,,,,,,,,,,,,,,,,,,,,,,,,,,,,,,,,,,,,,,,,,,,,,94.34986034899975,106.06068866199985,,,,,031722,2,3,0,1,0,1,2,0,62,2022_Mar_17_1320,listening_fmri,3.2.4,60.29512086036776,
1,parcelated_audio/33/33_7.ogg,,,,,,,,,0,0,0,0,0,1,1,1,0,0,0,0,,,,,,,,,,,,,0,0,0,0,0,6,6,6,,,,,,,,,,,,,,,,,,,,,,,,,,,,,,,,,,,,,,,,,,,,,,,,,,,,,,,,,,,,,,,,,,,,,,,,,,,,,,,,,,,,,,,,,,,,,,,,,,,,,106.06104598699994,120.63764595099974,,,,,031722,2,3,0,1,0,1,2,0,62,2022_Mar_17_1320,listening_fmri,3.2.4,60.29512086036776,
1,parcelated_audio/33/33_8.ogg,,,,,,,,,0,0,0,0,0,1,1,1,0,0,0,0,,,,,,,,,,,,,0,0,0,0,0,7,7,7,,,,,,,,,,,,,,,,,,,,,,,,,,,,,,,,,,,,,,,,,,,,,,,,,,,,,,,,,,,,,,,,,,,,,,,,,,,,,,,,,,,,,,,,,,,,,,,,,,,,,120.6380021089999,126.78571671999998,,,,,031722,2,3,0,1,0,1,2,0,62,2022_Mar_17_1320,listening_fmri,3.2.4,60.29512086036776,
1,parcelated_audio/33/33_9.ogg,,,,,,,,,0,0,0,0,0,1,1,1,0,0,0,0,,,,,,,,,,,,,0,0,0,0,0,8,8,8,,,,,,,,,,,,,,,,,,,,,,,,,,,,,,,,,,,,,,,,,,,,,,,,,,,,,,,,,,,,,,,,,,,,,,,,,,,,,,,,,,,,,,,,,,,,,,,,,,,,,126.78608620499972,130.494729817,,,,,031722,2,3,0,1,0,1,2,0,62,2022_Mar_17_1320,listening_fmri,3.2.4,60.29512086036776,
1,parcelated_audio/33/33_10.ogg,,,,,,,,,0,0,0,0,0,1,1,1,0,0,0,0,,,,,,,,,,,,,0,0,0,0,0,9,9,9,,,,,,,,,,,,,,,,,,,,,,,,,,,,,,,,,,,,,,,,,,,,,,,,,,,,,,,,,,,,,,,,,,,,,,,,,,,,,,,,,,,,,,,,,,,,,,,,,,,,,130.4952747110001,135.86674073999984,,,,,031722,2,3,0,1,0,1,2,0,62,2022_Mar_17_1320,listening_fmri,3.2.4,60.29512086036776,
1,parcelated_audio/33/33_11.ogg,,,,,,,,,0,0,0,0,0,1,1,1,0,0,0,0,,,,,,,,,,,,,0,0,0,0,0,10,10,10,,,,,,,,,,,,,,,,,,,,,,,,,,,,,,,,,,,,,,,,,,,,,,,,,,,,,,,,,,,,,,,,,,,,,,,,,,,,,,,,,,,,,,,,,,,,,,,,,,,,,135.86714555199978,150.30352232699988,,,,,031722,2,3,0,1,0,1,2,0,62,2022_Mar_17_1320,listening_fmri,3.2.4,60.29512086036776,
1,parcelated_audio/33/33_12.ogg,,,,,,,,,0,0,0,0,0,1,1,1,0,0,0,0,,,,,,,,,,,,,0,0,0,0,0,11,11,11,,,,,,,,,,,,,,,,,,,,,,,,,,,,,,,,,,,,,,,,,,,,,,,,,,,,,,,,,,,,,,,,,,,,,,,,,,,,,,,,,,,,,,,,,,,,,,,,,,,,,150.3038595359999,156.4206656839997,,,,,031722,2,3,0,1,0,1,2,0,62,2022_Mar_17_1320,listening_fmri,3.2.4,60.29512086036776,
1,parcelated_audio/33/33_13.ogg,,,,,,,,,0,0,0,0,0,1,1,1,0,0,0,0,,,,,,,,,,,,,0,0,0,0,0,12,12,12,,,,,,,,,,,,,,,,,,,,,,,,,,,,,,,,,,,,,,,,,,,,,,,,,,,,,,,,,,,,,,,,,,,,,,,,,,,,,,,,,,,,,,,,,,,,,,,,,,,,,156.4210268859997,163.85516881600006,,,,,031722,2,3,0,1,0,1,2,0,62,2022_Mar_17_1320,listening_fmri,3.2.4,60.29512086036776,
1,parcelated_audio/33/33_14.ogg,,,,,,,,,0,0,0,0,0,1,1,1,0,0,0,0,,,,,,,,,,,,,0,0,0,0,0,13,13,13,,,,,,,,,,,,,,,,,,,,,,,,,,,,,,,,,,,,,,,,,,,,,,,,,,,,,,,,,,,,,,,,,,,,,,,,,,,,,,,,,,,,,,,,,,,,,,,,,,,,,163.85552694199987,176.29974700999992,,,,,031722,2,3,0,1,0,1,2,0,62,2022_Mar_17_1320,listening_fmri,3.2.4,60.29512086036776,
1,parcelated_audio/33/33_15.ogg,,,,,,,,,0,0,0,0,0,1,1,1,0,0,0,0,,,,,,,,,,,,,0,0,0,0,0,14,14,14,,,,,,,,,,,,,,,,,,,,,,,,,,,,,,,,,,,,,,,,,,,,,,,,,,,,,,,,,,,,,,,,,,,,,,,,,,,,,,,,,,,,,,,,,,,,,,,,,,,,,176.30020775100002,194.84296870499975,,,,,031722,2,3,0,1,0,1,2,0,62,2022_Mar_17_1320,listening_fmri,3.2.4,60.29512086036776,
1,parcelated_audio/33/33_16.ogg,,,,,,,,,0,0,0,0,0,1,1,1,0,0,0,0,,,,,,,,,,,,,0,0,0,0,0,15,15,15,,,,,,,,,,,,,,,,,,,,,,,,,,,,,,,,,,,,,,,,,,,,,,,,,,,,,,,,,,,,,,,,,,,,,,,,,,,,,,,,,,,,,,,,,,,,,,,,,,,,,194.84332583700007,207.07679914799974,,,,,031722,2,3,0,1,0,1,2,0,62,2022_Mar_17_1320,listening_fmri,3.2.4,60.29512086036776,
1,parcelated_audio/33/33_17.ogg,,,,,,,,,0,0,0,0,0,1,1,1,0,0,0,0,,,,,,,,,,,,,0,0,0,0,0,16,16,16,,,,,,,,,,,,,,,,,,,,,,,,,,,,,,,,,,,,,,,,,,,,,,,,,,,,,,,,,,,,,,,,,,,,,,,,,,,,,,,,,,,,,,,,,,,,,,,,,,,,,207.07726482299995,218.30182149799975,,,,,031722,2,3,0,1,0,1,2,0,62,2022_Mar_17_1320,listening_fmri,3.2.4,60.29512086036776,
1,parcelated_audio/33/33_18.ogg,,,,,,,,,0,0,0,0,0,1,1,1,0,0,0,0,,,,,,,,,,,,,0,0,0,0,0,17,17,17,,,,,,,,,,,,,,,,,,,,,,,,,,,,,,,,,,,,,,,,,,,,,,,,,,,,,,,,,,,,,,,,,,,,,,,,,,,,,,,,,,,,,,,,,,,,,,,,,,,,,218.3022740030001,226.87748910799974,,,,,031722,2,3,0,1,0,1,2,0,62,2022_Mar_17_1320,listening_fmri,3.2.4,60.29512086036776,
1,parcelated_audio/33/33_19.ogg,,,,,,,,,0,0,0,0,0,1,1,1,0,0,0,0,,,,,,,,,,,,,0,0,0,0,0,18,18,18,,,,,,,,,,,,,,,,,,,,,,,,,,,,,,,,,,,,,,,,,,,,,,,,,,,,,,,,,,,,,,,,,,,,,,,,,,,,,,,,,,,,,,,,,,,,,,,,,,,,,226.87785151399976,230.33120686499979,,,,,031722,2,3,0,1,0,1,2,0,62,2022_Mar_17_1320,listening_fmri,3.2.4,60.29512086036776,
1,parcelated_audio/33/33_20.ogg,,,,,,,,,0,0,0,0,0,1,1,1,0,0,0,0,,,,,,,,,,,,,0,0,0,0,0,19,19,19,,,,,,,,,,,,,,,,,,,,,,,,,,,,,,,,,,,,,,,,,,,,,,,,,,,,,,,,,,,,,,,,,,,,,,,,,,,,,,,,,,,,,,,,,,,,,,,,,,,,,230.33166697399975,237.22088672900009,,,,,031722,2,3,0,1,0,1,2,0,62,2022_Mar_17_1320,listening_fmri,3.2.4,60.29512086036776,
1,parcelated_audio/33/33_21.ogg,,,,,,,,,0,0,0,0,0,1,1,1,0,0,0,0,,,,,,,,,,,,,0,0,0,0,0,20,20,20,,,,,,,,,,,,,,,,,,,,,,,,,,,,,,,,,,,,,,,,,,,,,,,,,,,,,,,,,,,,,,,,,,,,,,,,,,,,,,,,,,,,,,,,,,,,,,,,,,,,,237.221255293,241.2707432909997,,,,,031722,2,3,0,1,0,1,2,0,62,2022_Mar_17_1320,listening_fmri,3.2.4,60.29512086036776,
1,parcelated_audio/33/33_22.ogg,,,,,,,,,0,0,0,0,0,1,1,1,0,0,0,0,,,,,,,,,,,,,0,0,0,0,0,21,21,21,,,,,,,,,,,,,,,,,,,,,,,,,,,,,,,,,,,,,,,,,,,,,,,,,,,,,,,,,,,,,,,,,,,,,,,,,,,,,,,,,,,,,,,,,,,,,,,,,,,,,241.27110496499972,253.0950799039997,,,,,031722,2,3,0,1,0,1,2,0,62,2022_Mar_17_1320,listening_fmri,3.2.4,60.29512086036776,
1,parcelated_audio/33/33_23.ogg,,,,,,,,,0,0,0,0,0,1,1,1,0,0,0,0,,,,,,,,,,,,,0,0,0,0,0,22,22,22,,,,,,,,,,,,,,,,,,,,,,,,,,,,,,,,,,,,,,,,,,,,,,,,,,,,,,,,,,,,,,,,,,,,,,,,,,,,,,,,,,,,,,,,,,,,,,,,,,,,,253.09544205299972,263.60010818599994,,,,,031722,2,3,0,1,0,1,2,0,62,2022_Mar_17_1320,listening_fmri,3.2.4,60.29512086036776,
1,parcelated_audio/33/33_24.ogg,,,,,,,,,0,0,0,0,0,1,1,1,0,0,0,0,,,,,,,,,,,,,0,0,0,0,0,23,23,23,,,,,,,,,,,,,,,,,,,,,,,,,,,,,,,,,,,,,,,,,,,,,,,,,,,,,,,,,,,,,,,,,,,,,,,,,,,,,,,,,,,,,,,,,,,,,,,,,,,,,263.60039827699984,269.8801401779997,,,,,031722,2,3,0,1,0,1,2,0,62,2022_Mar_17_1320,listening_fmri,3.2.4,60.29512086036776,
1,parcelated_audio/33/33_25.ogg,,,,,,,,,0,0,0,0,0,1,1,1,0,0,0,0,,,,,,,,,,,,,0,0,0,0,0,24,24,24,,,,,,,,,,,,,,,,,,,,,,,,,,,,,,,,,,,,,,,,,,,,,,,,,,,,,,,,,,,,,,,,,,,,,,,,,,,,,,,,,,,,,,,,,,,,,,,,,,,,,269.8804518510001,278.0998801239998,,,,,031722,2,3,0,1,0,1,2,0,62,2022_Mar_17_1320,listening_fmri,3.2.4,60.29512086036776,
1,parcelated_audio/33/33_26.ogg,,,,,,,,,0,0,0,0,0,1,1,1,0,0,0,0,,,,,,,,,,,,,0,0,0,0,0,25,25,25,,,,,,,,,,,,,,,,,,,,,,,,,,,,,,,,,,,,,,,,,,,,,,,,,,,,,,,,,,,,,,,,,,,,,,,,,,,,,,,,,,,,,,,,,,,,,,,,,,,,,278.1011694589997,285.1868452389999,,,,,031722,2,3,0,1,0,1,2,0,62,2022_Mar_17_1320,listening_fmri,3.2.4,60.29512086036776,
1,parcelated_audio/33/33_27.ogg,,,,,,,,,0,0,0,0,0,1,1,1,0,0,0,0,,,,,,,,,,,,,0,0,0,0,0,26,26,26,,,,,,,,,,,,,,,,,,,,,,,,,,,,,,,,,,,,,,,,,,,,,,,,,,,,,,,,,,,,,,,,,,,,,,,,,,,,,,,,,,,,,,,,,,,,,,,,,,,,,285.18795511999997,292.744354038,,,,,031722,2,3,0,1,0,1,2,0,62,2022_Mar_17_1320,listening_fmri,3.2.4,60.29512086036776,
1,parcelated_audio/33/33_28.ogg,,,,,,,,,0,0,0,0,0,1,1,1,0,0,0,0,,,,,,,,,,,,,0,0,0,0,0,27,27,27,,,,,,,,,,,,,,,,,,,,,,,,,,,,,,,,,,,,,,,,,,,,,,,,,,,,,,,,,,,,,,,,,,,,,,,,,,,,,,,,,,,,,,,,,,,,,,,,,,,,,292.745418946,298.41877973500004,,,,,031722,2,3,0,1,0,1,2,0,62,2022_Mar_17_1320,listening_fmri,3.2.4,60.29512086036776,
1,parcelated_audio/33/33_29.ogg,,,,,,,,,0,0,0,0,0,1,1,1,0,0,0,0,,,,,,,,,,,,,0,0,0,0,0,28,28,28,,,,,,,,,,,,,,,,,,,,,,,,,,,,,,,,,,,,,,,,,,,,,,,,,,,,,,,,,,,,,,,,,,,,,,,,,,,,,,,,,,,,,,,,,,,,,,,,,,,,,298.41988479099973,306.3403456010001,,,,,031722,2,3,0,1,0,1,2,0,62,2022_Mar_17_1320,listening_fmri,3.2.4,60.29512086036776,
1,parcelated_audio/33/33_30.ogg,,,,,,,,,0,0,0,0,0,1,1,1,0,0,0,0,,,,,,,,,,,,,0,0,0,0,0,29,29,29,,,,,,,,,,,,,,,,,,,,,,,,,,,,,,,,,,,,,,,,,,,,,,,,,,,,,,,,,,,,,,,,,,,,,,,,,,,,,,,,,,,,,,,,,,,,,,,,,,,,,306.34078948399974,321.32476395899994,,,,,031722,2,3,0,1,0,1,2,0,62,2022_Mar_17_1320,listening_fmri,3.2.4,60.29512086036776,
1,parcelated_audio/33/33_31.ogg,,,,,,,,,0,0,0,0,0,1,1,1,0,0,0,0,,,,,,,,,,,,,0,0,0,0,0,30,30,30,,,,,,,,,,,,,,,,,,,,,,,,,,,,,,,,,,,,,,,,,,,,,,,,,,,,,,,,,,,,,,,,,,,,,,,,,,,,,,,,,,,,,,,,,,,,,,,,,,,,,321.3251256469998,331.09076692100007,,,,,031722,2,3,0,1,0,1,2,0,62,2022_Mar_17_1320,listening_fmri,3.2.4,60.29512086036776,
1,parcelated_audio/33/33_32.ogg,,,,,,,,,0,0,0,0,0,1,1,1,0,0,0,0,,,,,,,,,,,,,0,0,0,0,0,31,31,31,,,,,,,,,,,,,,,,,,,,,,,,,,,,,,,,,,,,,,,,,,,,,,,,,,,,,,,,,,,,,,,,,,,,,,,,,,,,,,,,,,,,,,,,,,,,,,,,,,,,,331.0911293529998,336.7084688169998,,,,,031722,2,3,0,1,0,1,2,0,62,2022_Mar_17_1320,listening_fmri,3.2.4,60.29512086036776,
1,,,,,,,,,,0,0,0,0,0,1,1,1,0,0,0,0,,,,,,,,,,,,,0,0,0,0,,,,,,,,,,,,,,,,,,,,,,,,,,,,,,,,,,,,,,,,,,,,,,,,,,,,,,,,,,,,,,,,,,,,,,,,,,,,,,,,,,,,,,,,,,,,,,,,,,,,,,,,,,,,,,,031722,2,3,0,1,0,1,2,0,62,2022_Mar_17_1320,listening_fmri,3.2.4,60.29512086036776,
1,,,,,,,,,,0,0,0,0,0,1,1,1,0,0,0,0,,,,,,,,,,,,,,,,,,,,,,,,,,,,,,,,,,,,,,336.70898460599983,342.707688211,384.62644563999993,None,,,,,,,,,,,,,,,,,,,,,,,,,,,,,,,,,,,,,,,,,,,,,,,,,,,,,,,,,,,,,,,,,,,,,,,,,,,,,,,,,,390.6270033850001,None,390.6270033850001,None,031722,2,3,0,1,0,1,2,0,62,2022_Mar_17_1320,listening_fmri,3.2.4,60.29512086036776,
1,,,,,,,,,,0,0,0,0,0,1,1,1,,,,,,,,,,,,,,,,,,,,,,,,,,,,,,,,,,,,,,,,,,,,,,,,,,,,,,,,,,,,,,,,,,,,,,,,,,,,,,,,,,,,,,,,,,,,,,,,,,,,,,,,,,,,,,,,,,,,,,,,,,,,,,,,,,,031722,2,3,0,1,0,1,2,0,62,2022_Mar_17_1320,listening_fmri,3.2.4,60.29512086036776,
2,parcelated_audio/13/13_1.ogg,,,,,,,,,0,0,0,0,0,2,2,2,0,0,0,0,,,,,,,,,,,,,0,0,0,0,0,0,0,0,,,,,,,,,,,,,,,,,,,,,,391.62948919400014,None,391.62948919400014,None,8,4.060344955999881,391.62948919400014,None,391.62948919400014,None,,,,,,,,,,,,,,,,,,,,,,,,,,,,,,,,,,,,,,,,,,,,,,,,,,,,,,,,,,,,,,395.71000294800024,None,7,3.2818633960000625,395.71000294800024,None,351.1000396049999,354.10804767399986,354.11471437299997,365.80458435699984,,,,,031722,2,3,0,1,0,1,2,0,62,2022_Mar_17_1320,listening_fmri,3.2.4,60.29512086036776,
2,parcelated_audio/13/13_2.ogg,,,,,,,,,0,0,0,0,0,2,2,2,0,0,0,0,,,,,,,,,,,,,0,0,0,0,0,1,1,1,,,,,,,,,,,,,,,,,,,,,,,,,,,,,,,,,,,,,,,,,,,,,,,,,,,,,,,,,,,,,,,,,,,,,,,,,,,,,,,,,,,,,,,,,,,,,,,,,,,,,365.80494229999977,371.92361642299966,,,,,031722,2,3,0,1,0,1,2,0,62,2022_Mar_17_1320,listening_fmri,3.2.4,60.29512086036776,
2,parcelated_audio/13/13_3.ogg,,,,,,,,,0,0,0,0,0,2,2,2,0,0,0,0,,,,,,,,,,,,,0,0,0,0,0,2,2,2,,,,,,,,,,,,,,,,,,,,,,,,,,,,,,,,,,,,,,,,,,,,,,,,,,,,,,,,,,,,,,,,,,,,,,,,,,,,,,,,,,,,,,,,,,,,,,,,,,,,,371.9240040949999,380.3246170550001,,,,,031722,2,3,0,1,0,1,2,0,62,2022_Mar_17_1320,listening_fmri,3.2.4,60.29512086036776,
2,parcelated_audio/13/13_4.ogg,,,,,,,,,0,0,0,0,0,2,2,2,0,0,0,0,,,,,,,,,,,,,0,0,0,0,0,3,3,3,,,,,,,,,,,,,,,,,,,,,,,,,,,,,,,,,,,,,,,,,,,,,,,,,,,,,,,,,,,,,,,,,,,,,,,,,,,,,,,,,,,,,,,,,,,,,,,,,,,,,380.324976459,390.5876581499997,,,,,031722,2,3,0,1,0,1,2,0,62,2022_Mar_17_1320,listening_fmri,3.2.4,60.29512086036776,
2,parcelated_audio/13/13_5.ogg,,,,,,,,,0,0,0,0,0,2,2,2,0,0,0,0,,,,,,,,,,,,,0,0,0,0,0,4,4,4,,,,,,,,,,,,,,,,,,,,,,,,,,,,,,,,,,,,,,,,,,,,,,,,,,,,,,,,,,,,,,,,,,,,,,,,,,,,,,,,,,,,,,,,,,,,,,,,,,,,,390.58793811999976,396.64079291999997,,,,,031722,2,3,0,1,0,1,2,0,62,2022_Mar_17_1320,listening_fmri,3.2.4,60.29512086036776,
2,parcelated_audio/13/13_6.ogg,,,,,,,,,0,0,0,0,0,2,2,2,0,0,0,0,,,,,,,,,,,,,0,0,0,0,0,5,5,5,,,,,,,,,,,,,,,,,,,,,,,,,,,,,,,,,,,,,,,,,,,,,,,,,,,,,,,,,,,,,,,,,,,,,,,,,,,,,,,,,,,,,,,,,,,,,,,,,,,,,396.64104785599966,401.3575818700001,,,,,031722,2,3,0,1,0,1,2,0,62,2022_Mar_17_1320,listening_fmri,3.2.4,60.29512086036776,
2,parcelated_audio/13/13_7.ogg,,,,,,,,,0,0,0,0,0,2,2,2,0,0,0,0,,,,,,,,,,,,,0,0,0,0,0,6,6,6,,,,,,,,,,,,,,,,,,,,,,,,,,,,,,,,,,,,,,,,,,,,,,,,,,,,,,,,,,,,,,,,,,,,,,,,,,,,,,,,,,,,,,,,,,,,,,,,,,,,,401.35794850699995,409.0080951709997,,,,,031722,2,3,0,1,0,1,2,0,62,2022_Mar_17_1320,listening_fmri,3.2.4,60.29512086036776,
2,parcelated_audio/13/13_8.ogg,,,,,,,,,0,0,0,0,0,2,2,2,0,0,0,0,,,,,,,,,,,,,0,0,0,0,0,7,7,7,,,,,,,,,,,,,,,,,,,,,,,,,,,,,,,,,,,,,,,,,,,,,,,,,,,,,,,,,,,,,,,,,,,,,,,,,,,,,,,,,,,,,,,,,,,,,,,,,,,,,409.0084513080001,414.30795419299966,,,,,031722,2,3,0,1,0,1,2,0,62,2022_Mar_17_1320,listening_fmri,3.2.4,60.29512086036776,
2,parcelated_audio/13/13_9.ogg,,,,,,,,,0,0,0,0,0,2,2,2,0,0,0,0,,,,,,,,,,,,,0,0,0,0,0,8,8,8,,,,,,,,,,,,,,,,,,,,,,,,,,,,,,,,,,,,,,,,,,,,,,,,,,,,,,,,,,,,,,,,,,,,,,,,,,,,,,,,,,,,,,,,,,,,,,,,,,,,,414.308412975,418.925298828,,,,,031722,2,3,0,1,0,1,2,0,62,2022_Mar_17_1320,listening_fmri,3.2.4,60.29512086036776,
2,parcelated_audio/13/13_10.ogg,,,,,,,,,0,0,0,0,0,2,2,2,0,0,0,0,,,,,,,,,,,,,0,0,0,0,0,9,9,9,,,,,,,,,,,,,,,,,,,,,,,,,,,,,,,,,,,,,,,,,,,,,,,,,,,,,,,,,,,,,,,,,,,,,,,,,,,,,,,,,,,,,,,,,,,,,,,,,,,,,418.92565668999987,424.7285592549997,,,,,031722,2,3,0,1,0,1,2,0,62,2022_Mar_17_1320,listening_fmri,3.2.4,60.29512086036776,
2,parcelated_audio/13/13_11.ogg,,,,,,,,,0,0,0,0,0,2,2,2,0,0,0,0,,,,,,,,,,,,,0,0,0,0,0,10,10,10,,,,,,,,,,,,,,,,,,,,,,,,,,,,,,,,,,,,,,,,,,,,,,,,,,,,,,,,,,,,,,,,,,,,,,,,,,,,,,,,,,,,,,,,,,,,,,,,,,,,,424.72888866899984,429.25465582900006,,,,,031722,2,3,0,1,0,1,2,0,62,2022_Mar_17_1320,listening_fmri,3.2.4,60.29512086036776,
2,parcelated_audio/13/13_12.ogg,,,,,,,,,0,0,0,0,0,2,2,2,0,0,0,0,,,,,,,,,,,,,0,0,0,0,0,11,11,11,,,,,,,,,,,,,,,,,,,,,,,,,,,,,,,,,,,,,,,,,,,,,,,,,,,,,,,,,,,,,,,,,,,,,,,,,,,,,,,,,,,,,,,,,,,,,,,,,,,,,429.25505906499984,437.72027869999965,,,,,031722,2,3,0,1,0,1,2,0,62,2022_Mar_17_1320,listening_fmri,3.2.4,60.29512086036776,
2,parcelated_audio/13/13_13.ogg,,,,,,,,,0,0,0,0,0,2,2,2,0,0,0,0,,,,,,,,,,,,,0,0,0,0,0,12,12,12,,,,,,,,,,,,,,,,,,,,,,,,,,,,,,,,,,,,,,,,,,,,,,,,,,,,,,,,,,,,,,,,,,,,,,,,,,,,,,,,,,,,,,,,,,,,,,,,,,,,,437.720637207,447.613640047,,,,,031722,2,3,0,1,0,1,2,0,62,2022_Mar_17_1320,listening_fmri,3.2.4,60.29512086036776,
2,parcelated_audio/13/13_14.ogg,,,,,,,,,0,0,0,0,0,2,2,2,0,0,0,0,,,,,,,,,,,,,0,0,0,0,0,13,13,13,,,,,,,,,,,,,,,,,,,,,,,,,,,,,,,,,,,,,,,,,,,,,,,,,,,,,,,,,,,,,,,,,,,,,,,,,,,,,,,,,,,,,,,,,,,,,,,,,,,,,447.61404661000006,455.7808801819997,,,,,031722,2,3,0,1,0,1,2,0,62,2022_Mar_17_1320,listening_fmri,3.2.4,60.29512086036776,
2,parcelated_audio/13/13_15.ogg,,,,,,,,,0,0,0,0,0,2,2,2,0,0,0,0,,,,,,,,,,,,,0,0,0,0,0,14,14,14,,,,,,,,,,,,,,,,,,,,,,,,,,,,,,,,,,,,,,,,,,,,,,,,,,,,,,,,,,,,,,,,,,,,,,,,,,,,,,,,,,,,,,,,,,,,,,,,,,,,,455.7820682419997,464.4561225369998,,,,,031722,2,3,0,1,0,1,2,0,62,2022_Mar_17_1320,listening_fmri,3.2.4,60.29512086036776,
2,parcelated_audio/13/13_16.ogg,,,,,,,,,0,0,0,0,0,2,2,2,0,0,0,0,,,,,,,,,,,,,0,0,0,0,0,15,15,15,,,,,,,,,,,,,,,,,,,,,,,,,,,,,,,,,,,,,,,,,,,,,,,,,,,,,,,,,,,,,,,,,,,,,,,,,,,,,,,,,,,,,,,,,,,,,,,,,,,,,464.4566254020001,466.77260593899973,,,,,031722,2,3,0,1,0,1,2,0,62,2022_Mar_17_1320,listening_fmri,3.2.4,60.29512086036776,
2,parcelated_audio/13/13_17.ogg,,,,,,,,,0,0,0,0,0,2,2,2,0,0,0,0,,,,,,,,,,,,,0,0,0,0,0,16,16,16,,,,,,,,,,,,,,,,,,,,,,,,,,,,,,,,,,,,,,,,,,,,,,,,,,,,,,,,,,,,,,,,,,,,,,,,,,,,,,,,,,,,,,,,,,,,,,,,,,,,,466.772972663,474.34424405699974,,,,,031722,2,3,0,1,0,1,2,0,62,2022_Mar_17_1320,listening_fmri,3.2.4,60.29512086036776,
2,parcelated_audio/13/13_18.ogg,,,,,,,,,0,0,0,0,0,2,2,2,0,0,0,0,,,,,,,,,,,,,0,0,0,0,0,17,17,17,,,,,,,,,,,,,,,,,,,,,,,,,,,,,,,,,,,,,,,,,,,,,,,,,,,,,,,,,,,,,,,,,,,,,,,,,,,,,,,,,,,,,,,,,,,,,,,,,,,,,474.34461840999984,484.56535467599997,,,,,031722,2,3,0,1,0,1,2,0,62,2022_Mar_17_1320,listening_fmri,3.2.4,60.29512086036776,
2,parcelated_audio/13/13_19.ogg,,,,,,,,,0,0,0,0,0,2,2,2,0,0,0,0,,,,,,,,,,,,,0,0,0,0,0,18,18,18,,,,,,,,,,,,,,,,,,,,,,,,,,,,,,,,,,,,,,,,,,,,,,,,,,,,,,,,,,,,,,,,,,,,,,,,,,,,,,,,,,,,,,,,,,,,,,,,,,,,,484.5663195100001,492.540941493,,,,,031722,2,3,0,1,0,1,2,0,62,2022_Mar_17_1320,listening_fmri,3.2.4,60.29512086036776,
2,parcelated_audio/13/13_20.ogg,,,,,,,,,0,0,0,0,0,2,2,2,0,0,0,0,,,,,,,,,,,,,0,0,0,0,0,19,19,19,,,,,,,,,,,,,,,,,,,,,,,,,,,,,,,,,,,,,,,,,,,,,,,,,,,,,,,,,,,,,,,,,,,,,,,,,,,,,,,,,,,,,,,,,,,,,,,,,,,,,492.5413177539999,497.75838825799974,,,,,031722,2,3,0,1,0,1,2,0,62,2022_Mar_17_1320,listening_fmri,3.2.4,60.29512086036776,
2,parcelated_audio/13/13_21.ogg,,,,,,,,,0,0,0,0,0,2,2,2,0,0,0,0,,,,,,,,,,,,,0,0,0,0,0,20,20,20,,,,,,,,,,,,,,,,,,,,,,,,,,,,,,,,,,,,,,,,,,,,,,,,,,,,,,,,,,,,,,,,,,,,,,,,,,,,,,,,,,,,,,,,,,,,,,,,,,,,,497.75866928799996,501.0766001029997,,,,,031722,2,3,0,1,0,1,2,0,62,2022_Mar_17_1320,listening_fmri,3.2.4,60.29512086036776,
2,parcelated_audio/13/13_22.ogg,,,,,,,,,0,0,0,0,0,2,2,2,0,0,0,0,,,,,,,,,,,,,0,0,0,0,0,21,21,21,,,,,,,,,,,,,,,,,,,,,,,,,,,,,,,,,,,,,,,,,,,,,,,,,,,,,,,,,,,,,,,,,,,,,,,,,,,,,,,,,,,,,,,,,,,,,,,,,,,,,501.0769583460001,504.49777446999997,,,,,031722,2,3,0,1,0,1,2,0,62,2022_Mar_17_1320,listening_fmri,3.2.4,60.29512086036776,
2,parcelated_audio/13/13_23.ogg,,,,,,,,,0,0,0,0,0,2,2,2,0,0,0,0,,,,,,,,,,,,,0,0,0,0,0,22,22,22,,,,,,,,,,,,,,,,,,,,,,,,,,,,,,,,,,,,,,,,,,,,,,,,,,,,,,,,,,,,,,,,,,,,,,,,,,,,,,,,,,,,,,,,,,,,,,,,,,,,,504.4983353739999,509.76071320899973,,,,,031722,2,3,0,1,0,1,2,0,62,2022_Mar_17_1320,listening_fmri,3.2.4,60.29512086036776,
2,parcelated_audio/13/13_24.ogg,,,,,,,,,0,0,0,0,0,2,2,2,0,0,0,0,,,,,,,,,,,,,0,0,0,0,0,23,23,23,,,,,,,,,,,,,,,,,,,,,,,,,,,,,,,,,,,,,,,,,,,,,,,,,,,,,,,,,,,,,,,,,,,,,,,,,,,,,,,,,,,,,,,,,,,,,,,,,,,,,509.76104994599973,519.4857233959997,,,,,031722,2,3,0,1,0,1,2,0,62,2022_Mar_17_1320,listening_fmri,3.2.4,60.29512086036776,
2,parcelated_audio/13/13_25.ogg,,,,,,,,,0,0,0,0,0,2,2,2,0,0,0,0,,,,,,,,,,,,,0,0,0,0,0,24,24,24,,,,,,,,,,,,,,,,,,,,,,,,,,,,,,,,,,,,,,,,,,,,,,,,,,,,,,,,,,,,,,,,,,,,,,,,,,,,,,,,,,,,,,,,,,,,,,,,,,,,,519.4860820099998,526.7868554329998,,,,,031722,2,3,0,1,0,1,2,0,62,2022_Mar_17_1320,listening_fmri,3.2.4,60.29512086036776,
2,parcelated_audio/13/13_26.ogg,,,,,,,,,0,0,0,0,0,2,2,2,0,0,0,0,,,,,,,,,,,,,0,0,0,0,0,25,25,25,,,,,,,,,,,,,,,,,,,,,,,,,,,,,,,,,,,,,,,,,,,,,,,,,,,,,,,,,,,,,,,,,,,,,,,,,,,,,,,,,,,,,,,,,,,,,,,,,,,,,526.787420571,532.9934660929998,,,,,031722,2,3,0,1,0,1,2,0,62,2022_Mar_17_1320,listening_fmri,3.2.4,60.29512086036776,
2,parcelated_audio/13/13_27.ogg,,,,,,,,,0,0,0,0,0,2,2,2,0,0,0,0,,,,,,,,,,,,,0,0,0,0,0,26,26,26,,,,,,,,,,,,,,,,,,,,,,,,,,,,,,,,,,,,,,,,,,,,,,,,,,,,,,,,,,,,,,,,,,,,,,,,,,,,,,,,,,,,,,,,,,,,,,,,,,,,,532.99379404,538.2384234399997,,,,,031722,2,3,0,1,0,1,2,0,62,2022_Mar_17_1320,listening_fmri,3.2.4,60.29512086036776,
2,parcelated_audio/13/13_28.ogg,,,,,,,,,0,0,0,0,0,2,2,2,0,0,0,0,,,,,,,,,,,,,0,0,0,0,0,27,27,27,,,,,,,,,,,,,,,,,,,,,,,,,,,,,,,,,,,,,,,,,,,,,,,,,,,,,,,,,,,,,,,,,,,,,,,,,,,,,,,,,,,,,,,,,,,,,,,,,,,,,538.2394551970001,543.686713392,,,,,031722,2,3,0,1,0,1,2,0,62,2022_Mar_17_1320,listening_fmri,3.2.4,60.29512086036776,
2,parcelated_audio/13/13_29.ogg,,,,,,,,,0,0,0,0,0,2,2,2,0,0,0,0,,,,,,,,,,,,,0,0,0,0,0,28,28,28,,,,,,,,,,,,,,,,,,,,,,,,,,,,,,,,,,,,,,,,,,,,,,,,,,,,,,,,,,,,,,,,,,,,,,,,,,,,,,,,,,,,,,,,,,,,,,,,,,,,,543.6870797009997,546.990577088,,,,,031722,2,3,0,1,0,1,2,0,62,2022_Mar_17_1320,listening_fmri,3.2.4,60.29512086036776,
2,parcelated_audio/13/13_30.ogg,,,,,,,,,0,0,0,0,0,2,2,2,0,0,0,0,,,,,,,,,,,,,0,0,0,0,0,29,29,29,,,,,,,,,,,,,,,,,,,,,,,,,,,,,,,,,,,,,,,,,,,,,,,,,,,,,,,,,,,,,,,,,,,,,,,,,,,,,,,,,,,,,,,,,,,,,,,,,,,,,546.9909319509998,550.4607524029998,,,,,031722,2,3,0,1,0,1,2,0,62,2022_Mar_17_1320,listening_fmri,3.2.4,60.29512086036776,
2,parcelated_audio/13/13_31.ogg,,,,,,,,,0,0,0,0,0,2,2,2,0,0,0,0,,,,,,,,,,,,,0,0,0,0,0,30,30,30,,,,,,,,,,,,,,,,,,,,,,,,,,,,,,,,,,,,,,,,,,,,,,,,,,,,,,,,,,,,,,,,,,,,,,,,,,,,,,,,,,,,,,,,,,,,,,,,,,,,,550.4611144119999,556.4197311549997,,,,,031722,2,3,0,1,0,1,2,0,62,2022_Mar_17_1320,listening_fmri,3.2.4,60.29512086036776,
2,,,,,,,,,,0,0,0,0,0,2,2,2,0,0,0,0,,,,,,,,,,,,,0,0,0,0,,,,,,,,,,,,,,,,,,,,,,,,,,,,,,,,,,,,,,,,,,,,,,,,,,,,,,,,,,,,,,,,,,,,,,,,,,,,,,,,,,,,,,,,,,,,,,,,,,,,,,,,,,,,,,,031722,2,3,0,1,0,1,2,0,62,2022_Mar_17_1320,listening_fmri,3.2.4,60.29512086036776,
,,,,,,,,,,,,,,,,,,,,,,,,,,,,,,,,,,,,,,,,,,,,,,,,,,,,,,,,,,,556.42023479,562.4079596050001,604.3269956690001,None,,,,,,,,,,,,,,,,,,,,,,,,,,,,,,,,,,,,,,,,,,,,,,,,,,,,,,,,,,,,,,,,,,,,,,,,,,,,,,,,,,610.3271069120001,None,610.3271069120001,None,,,,,,,,,,,,,,,
﻿count,audio,trials_14.thisRepN,trials_14.thisTrialN,trials_14.thisN,trials_14.thisIndex,trials_3.thisRepN,trials_3.thisTrialN,trials_3.thisN,trials_3.thisIndex,trials_4.thisRepN,trials_4.thisTrialN,trials_4.thisN,trials_4.thisIndex,trials_6.thisRepN,trials_6.thisTrialN,trials_6.thisN,trials_6.thisIndex,trials_9.thisRepN,trials_9.thisTrialN,trials_9.thisN,trials_9.thisIndex,trials_10.thisRepN,trials_10.thisTrialN,trials_10.thisN,trials_10.thisIndex,trials_11.thisRepN,trials_11.thisTrialN,trials_11.thisN,trials_11.thisIndex,trials_12.thisRepN,trials_12.thisTrialN,trials_12.thisN,trials_12.thisIndex,trials_25.thisRepN,trials_25.thisTrialN,trials_25.thisN,trials_25.thisIndex,trials_15.thisRepN,trials_15.thisTrialN,trials_15.thisN,trials_15.thisIndex,trials_26.thisRepN,trials_26.thisTrialN,trials_26.thisN,trials_26.thisIndex,story_list_block2,action_list_block2,textTrigger.started,textTrigger.stopped,getTrigger.keys,getTrigger.rt,getTrigger.started,getTrigger.stopped,triggerTime,text_76.started,text_76.stopped,text_77.started,text_77.stopped,startWait,endWait,image_23.started,image_23.stopped,text_55.started,text_55.stopped,text_56.started,text_56.stopped,key_resp_2.keys,key_resp_2.rt,key_resp_2.started,key_resp_2.stopped,text_82.started,text_82.stopped,text_57.started,text_57.stopped,key_resp_17.keys,key_resp_17.rt,key_resp_17.started,key_resp_17.stopped,text_83.started,text_83.stopped,text_60.started,text_60.stopped,image_2.started,image_2.stopped,text_58.started,text_58.stopped,key_resp_23.keys,key_resp_23.rt,key_resp_23.started,key_resp_23.stopped,text_62.started,text_62.stopped,key_resp_18.keys,key_resp_18.rt,key_resp_18.started,key_resp_18.stopped,text_84.started,text_84.stopped,question1_2.started,question1_2.stopped,question2_2.started,question2_2.stopped,question3_2.started,question3_2.stopped,question4_2.started,question4_2.stopped,question5_2.started,question5_2.stopped,question6_2.started,question6_2.stopped,image_15.started,image_15.stopped,key_resp.keys,key_resp.started,key_resp.stopped,text_59.started,text_59.stopped,key_resp_19.keys,key_resp_19.rt,key_resp_19.started,key_resp_19.stopped,text_85.started,text_85.stopped,text_61.started,text_61.stopped,image_17.started,image_17.stopped,text_63.started,text_63.stopped,key_resp_24.keys,key_resp_24.rt,key_resp_24.started,key_resp_24.stopped,text_64.started,text_64.stopped,key_resp_20.keys,key_resp_20.rt,key_resp_20.started,key_resp_20.stopped,storyImage_StartTime,storyImage_EndTime,clip_StartTime,clip_EndTime,text_67.started,text_67.stopped,text_68.started,text_68.stopped,participant,sA,sB,lA,lB,block_struct,play_stories,block,behavioral,random_seed,date,expName,psychopyVersion,frameRate,
0,,,,,,,,,,0,0,0,0,0,0,0,0,,,,,,,,,,,,,,,,,,,,,,,,,,,,,[42 33 13 11 22 24 44 31],[3 1 4 2 2 4 1 3],15.859340700000303,None,equal,32.03437529199982,15.859340700000303,None,32.05979642500006,15.859340700000303,None,15.859340700000303,None,0.00038347300005625584,5.998746427999777,47.91757142100005,None,,,,,,,,,,,,,,,,,,,,,,,,,,,,,,,,,,,,,,,,,,,,,,,,,,,,,,,,,,,,,,,,,,,,,,,,,,,,,,,,,,,,,,031722,2,3,0,1,0,1,2,0,62,2022_Mar_17_1320,listening_fmri,3.2.4,60.29512086036776,
1,,,,,,,,,,0,0,0,0,0,1,1,1,0,0,0,0,0,0,0,0,0,0,0,0,,,,,,,,,,,,,,,,,,,,,,,,,,,,,,,,,,53.925880229000086,None,53.925880229000086,None,8,1.7199046830000952,53.925880229000086,None,53.925880229000086,None,55.675945613000295,None,2,1.2299167999999554,55.675945613000295,None,55.675945613000295,None,56.94276481199995,None,56.94276481199995,None,56.94276481199995,None,7,1.010090886999933,56.94276481199995,None,57.976367006000146,None,7,7.31545650399994,57.976367006000146,None,57.976367006000146,None,65.3840010050003,None,65.3840010050003,None,65.3840010050003,None,65.3840010050003,None,65.3840010050003,None,65.3840010050003,None,65.3840010050003,None,None,65.3840010050003,None,,,,,,,,,,,,,,,,,,,,,,,,,,,,,,,,,031722,2,3,0,1,0,1,2,0,62,2022_Mar_17_1320,listening_fmri,3.2.4,60.29512086036776,
1,,,,,,,,,,0,0,0,0,0,1,1,1,0,0,0,0,0,0,0,0,,,,,,,,,,,,,,,,,,,,,,,,,,,,,,,,,,,,,,,,,,,,,,,,,,,,,,,,,,,,,,,,,,,,,,,,,,,,,,,,,,,,,,,,,,,90.69256671799985,None,2,2.117246054000134,90.69256671799985,None,90.69256671799985,None,92.8428654270001,None,92.8428654270001,None,92.8428654270001,None,2,2.171911178999835,92.8428654270001,None,,,,,,,,,,,,,,,031722,2,3,0,1,0,1,2,0,62,2022_Mar_17_1320,listening_fmri,3.2.4,60.29512086036776,
1,parcelated_audio/33/33_1.ogg,,,,,,,,,0,0,0,0,0,1,1,1,0,0,0,0,,,,,,,,,,,,,0,0,0,0,0,0,0,0,,,,,,,,,,,,,,,,,,,,,,,,,,,,,,,,,,,,,,,,,,,,,,,,,,,,,,,,,,,,,,,,,,,,,,,,,,,,,,,,,,,,,,,,,,,,,95.04288281500021,None,2,2.3248619340001824,95.04288281500021,None,49.48217959299973,52.49112563599965,52.49784213599969,62.47881103899999,,,,,031722,2,3,0,1,0,1,2,0,62,2022_Mar_17_1320,listening_fmri,3.2.4,60.29512086036776,
1,parcelated_audio/33/33_2.ogg,,,,,,,,,0,0,0,0,0,1,1,1,0,0,0,0,,,,,,,,,,,,,0,0,0,0,0,1,1,1,,,,,,,,,,,,,,,,,,,,,,,,,,,,,,,,,,,,,,,,,,,,,,,,,,,,,,,,,,,,,,,,,,,,,,,,,,,,,,,,,,,,,,,,,,,,,,,,,,,,,62.480003934999786,72.93624533599996,,,,,031722,2,3,0,1,0,1,2,0,62,2022_Mar_17_1320,listening_fmri,3.2.4,60.29512086036776,
1,parcelated_audio/33/33_3.ogg,,,,,,,,,0,0,0,0,0,1,1,1,0,0,0,0,,,,,,,,,,,,,0,0,0,0,0,2,2,2,,,,,,,,,,,,,,,,,,,,,,,,,,,,,,,,,,,,,,,,,,,,,,,,,,,,,,,,,,,,,,,,,,,,,,,,,,,,,,,,,,,,,,,,,,,,,,,,,,,,,72.9368129659997,79.49397489099965,,,,,031722,2,3,0,1,0,1,2,0,62,2022_Mar_17_1320,listening_fmri,3.2.4,60.29512086036776,
1,parcelated_audio/33/33_4.ogg,,,,,,,,,0,0,0,0,0,1,1,1,0,0,0,0,,,,,,,,,,,,,0,0,0,0,0,3,3,3,,,,,,,,,,,,,,,,,,,,,,,,,,,,,,,,,,,,,,,,,,,,,,,,,,,,,,,,,,,,,,,,,,,,,,,,,,,,,,,,,,,,,,,,,,,,,,,,,,,,,79.4943199129998,83.08785479700009,,,,,031722,2,3,0,1,0,1,2,0,62,2022_Mar_17_1320,listening_fmri,3.2.4,60.29512086036776,
1,parcelated_audio/33/33_5.ogg,,,,,,,,,0,0,0,0,0,1,1,1,0,0,0,0,,,,,,,,,,,,,0,0,0,0,0,4,4,4,,,,,,,,,,,,,,,,,,,,,,,,,,,,,,,,,,,,,,,,,,,,,,,,,,,,,,,,,,,,,,,,,,,,,,,,,,,,,,,,,,,,,,,,,,,,,,,,,,,,,83.08843333599998,94.3495051609998,,,,,031722,2,3,0,1,0,1,2,0,62,2022_Mar_17_1320,listening_fmri,3.2.4,60.29512086036776,
1,parcelated_audio/33/33_6.ogg,,,,,,,,,0,0,0,0,0,1,1,1,0,0,0,0,,,,,,,,,,,,,0,0,0,0,0,5,5,5,,,,,,,,,,,,,,,,,,,,,,,,,,,,,,,,,,,,,,,,,,,,,,,,,,,,,,,,,,,,,,,,,,,,,,,,,,,,,,,,,,,,,,,,,,,,,,,,,,,,,94.34986034899975,106.06068866199985,,,,,031722,2,3,0,1,0,1,2,0,62,2022_Mar_17_1320,listening_fmri,3.2.4,60.29512086036776,
1,parcelated_audio/33/33_7.ogg,,,,,,,,,0,0,0,0,0,1,1,1,0,0,0,0,,,,,,,,,,,,,0,0,0,0,0,6,6,6,,,,,,,,,,,,,,,,,,,,,,,,,,,,,,,,,,,,,,,,,,,,,,,,,,,,,,,,,,,,,,,,,,,,,,,,,,,,,,,,,,,,,,,,,,,,,,,,,,,,,106.06104598699994,120.63764595099974,,,,,031722,2,3,0,1,0,1,2,0,62,2022_Mar_17_1320,listening_fmri,3.2.4,60.29512086036776,
1,parcelated_audio/33/33_8.ogg,,,,,,,,,0,0,0,0,0,1,1,1,0,0,0,0,,,,,,,,,,,,,0,0,0,0,0,7,7,7,,,,,,,,,,,,,,,,,,,,,,,,,,,,,,,,,,,,,,,,,,,,,,,,,,,,,,,,,,,,,,,,,,,,,,,,,,,,,,,,,,,,,,,,,,,,,,,,,,,,,120.6380021089999,126.78571671999998,,,,,031722,2,3,0,1,0,1,2,0,62,2022_Mar_17_1320,listening_fmri,3.2.4,60.29512086036776,
1,parcelated_audio/33/33_9.ogg,,,,,,,,,0,0,0,0,0,1,1,1,0,0,0,0,,,,,,,,,,,,,0,0,0,0,0,8,8,8,,,,,,,,,,,,,,,,,,,,,,,,,,,,,,,,,,,,,,,,,,,,,,,,,,,,,,,,,,,,,,,,,,,,,,,,,,,,,,,,,,,,,,,,,,,,,,,,,,,,,126.78608620499972,130.494729817,,,,,031722,2,3,0,1,0,1,2,0,62,2022_Mar_17_1320,listening_fmri,3.2.4,60.29512086036776,
1,parcelated_audio/33/33_10.ogg,,,,,,,,,0,0,0,0,0,1,1,1,0,0,0,0,,,,,,,,,,,,,0,0,0,0,0,9,9,9,,,,,,,,,,,,,,,,,,,,,,,,,,,,,,,,,,,,,,,,,,,,,,,,,,,,,,,,,,,,,,,,,,,,,,,,,,,,,,,,,,,,,,,,,,,,,,,,,,,,,130.4952747110001,135.86674073999984,,,,,031722,2,3,0,1,0,1,2,0,62,2022_Mar_17_1320,listening_fmri,3.2.4,60.29512086036776,
1,parcelated_audio/33/33_11.ogg,,,,,,,,,0,0,0,0,0,1,1,1,0,0,0,0,,,,,,,,,,,,,0,0,0,0,0,10,10,10,,,,,,,,,,,,,,,,,,,,,,,,,,,,,,,,,,,,,,,,,,,,,,,,,,,,,,,,,,,,,,,,,,,,,,,,,,,,,,,,,,,,,,,,,,,,,,,,,,,,,135.86714555199978,150.30352232699988,,,,,031722,2,3,0,1,0,1,2,0,62,2022_Mar_17_1320,listening_fmri,3.2.4,60.29512086036776,
1,parcelated_audio/33/33_12.ogg,,,,,,,,,0,0,0,0,0,1,1,1,0,0,0,0,,,,,,,,,,,,,0,0,0,0,0,11,11,11,,,,,,,,,,,,,,,,,,,,,,,,,,,,,,,,,,,,,,,,,,,,,,,,,,,,,,,,,,,,,,,,,,,,,,,,,,,,,,,,,,,,,,,,,,,,,,,,,,,,,150.3038595359999,156.4206656839997,,,,,031722,2,3,0,1,0,1,2,0,62,2022_Mar_17_1320,listening_fmri,3.2.4,60.29512086036776,
1,parcelated_audio/33/33_13.ogg,,,,,,,,,0,0,0,0,0,1,1,1,0,0,0,0,,,,,,,,,,,,,0,0,0,0,0,12,12,12,,,,,,,,,,,,,,,,,,,,,,,,,,,,,,,,,,,,,,,,,,,,,,,,,,,,,,,,,,,,,,,,,,,,,,,,,,,,,,,,,,,,,,,,,,,,,,,,,,,,,156.4210268859997,163.85516881600006,,,,,031722,2,3,0,1,0,1,2,0,62,2022_Mar_17_1320,listening_fmri,3.2.4,60.29512086036776,
1,parcelated_audio/33/33_14.ogg,,,,,,,,,0,0,0,0,0,1,1,1,0,0,0,0,,,,,,,,,,,,,0,0,0,0,0,13,13,13,,,,,,,,,,,,,,,,,,,,,,,,,,,,,,,,,,,,,,,,,,,,,,,,,,,,,,,,,,,,,,,,,,,,,,,,,,,,,,,,,,,,,,,,,,,,,,,,,,,,,163.85552694199987,176.29974700999992,,,,,031722,2,3,0,1,0,1,2,0,62,2022_Mar_17_1320,listening_fmri,3.2.4,60.29512086036776,
1,parcelated_audio/33/33_15.ogg,,,,,,,,,0,0,0,0,0,1,1,1,0,0,0,0,,,,,,,,,,,,,0,0,0,0,0,14,14,14,,,,,,,,,,,,,,,,,,,,,,,,,,,,,,,,,,,,,,,,,,,,,,,,,,,,,,,,,,,,,,,,,,,,,,,,,,,,,,,,,,,,,,,,,,,,,,,,,,,,,176.30020775100002,194.84296870499975,,,,,031722,2,3,0,1,0,1,2,0,62,2022_Mar_17_1320,listening_fmri,3.2.4,60.29512086036776,
1,parcelated_audio/33/33_16.ogg,,,,,,,,,0,0,0,0,0,1,1,1,0,0,0,0,,,,,,,,,,,,,0,0,0,0,0,15,15,15,,,,,,,,,,,,,,,,,,,,,,,,,,,,,,,,,,,,,,,,,,,,,,,,,,,,,,,,,,,,,,,,,,,,,,,,,,,,,,,,,,,,,,,,,,,,,,,,,,,,,194.84332583700007,207.07679914799974,,,,,031722,2,3,0,1,0,1,2,0,62,2022_Mar_17_1320,listening_fmri,3.2.4,60.29512086036776,
1,parcelated_audio/33/33_17.ogg,,,,,,,,,0,0,0,0,0,1,1,1,0,0,0,0,,,,,,,,,,,,,0,0,0,0,0,16,16,16,,,,,,,,,,,,,,,,,,,,,,,,,,,,,,,,,,,,,,,,,,,,,,,,,,,,,,,,,,,,,,,,,,,,,,,,,,,,,,,,,,,,,,,,,,,,,,,,,,,,,207.07726482299995,218.30182149799975,,,,,031722,2,3,0,1,0,1,2,0,62,2022_Mar_17_1320,listening_fmri,3.2.4,60.29512086036776,
1,parcelated_audio/33/33_18.ogg,,,,,,,,,0,0,0,0,0,1,1,1,0,0,0,0,,,,,,,,,,,,,0,0,0,0,0,17,17,17,,,,,,,,,,,,,,,,,,,,,,,,,,,,,,,,,,,,,,,,,,,,,,,,,,,,,,,,,,,,,,,,,,,,,,,,,,,,,,,,,,,,,,,,,,,,,,,,,,,,,218.3022740030001,226.87748910799974,,,,,031722,2,3,0,1,0,1,2,0,62,2022_Mar_17_1320,listening_fmri,3.2.4,60.29512086036776,
1,parcelated_audio/33/33_19.ogg,,,,,,,,,0,0,0,0,0,1,1,1,0,0,0,0,,,,,,,,,,,,,0,0,0,0,0,18,18,18,,,,,,,,,,,,,,,,,,,,,,,,,,,,,,,,,,,,,,,,,,,,,,,,,,,,,,,,,,,,,,,,,,,,,,,,,,,,,,,,,,,,,,,,,,,,,,,,,,,,,226.87785151399976,230.33120686499979,,,,,031722,2,3,0,1,0,1,2,0,62,2022_Mar_17_1320,listening_fmri,3.2.4,60.29512086036776,
1,parcelated_audio/33/33_20.ogg,,,,,,,,,0,0,0,0,0,1,1,1,0,0,0,0,,,,,,,,,,,,,0,0,0,0,0,19,19,19,,,,,,,,,,,,,,,,,,,,,,,,,,,,,,,,,,,,,,,,,,,,,,,,,,,,,,,,,,,,,,,,,,,,,,,,,,,,,,,,,,,,,,,,,,,,,,,,,,,,,230.33166697399975,237.22088672900009,,,,,031722,2,3,0,1,0,1,2,0,62,2022_Mar_17_1320,listening_fmri,3.2.4,60.29512086036776,
1,parcelated_audio/33/33_21.ogg,,,,,,,,,0,0,0,0,0,1,1,1,0,0,0,0,,,,,,,,,,,,,0,0,0,0,0,20,20,20,,,,,,,,,,,,,,,,,,,,,,,,,,,,,,,,,,,,,,,,,,,,,,,,,,,,,,,,,,,,,,,,,,,,,,,,,,,,,,,,,,,,,,,,,,,,,,,,,,,,,237.221255293,241.2707432909997,,,,,031722,2,3,0,1,0,1,2,0,62,2022_Mar_17_1320,listening_fmri,3.2.4,60.29512086036776,
1,parcelated_audio/33/33_22.ogg,,,,,,,,,0,0,0,0,0,1,1,1,0,0,0,0,,,,,,,,,,,,,0,0,0,0,0,21,21,21,,,,,,,,,,,,,,,,,,,,,,,,,,,,,,,,,,,,,,,,,,,,,,,,,,,,,,,,,,,,,,,,,,,,,,,,,,,,,,,,,,,,,,,,,,,,,,,,,,,,,241.27110496499972,253.0950799039997,,,,,031722,2,3,0,1,0,1,2,0,62,2022_Mar_17_1320,listening_fmri,3.2.4,60.29512086036776,
1,parcelated_audio/33/33_23.ogg,,,,,,,,,0,0,0,0,0,1,1,1,0,0,0,0,,,,,,,,,,,,,0,0,0,0,0,22,22,22,,,,,,,,,,,,,,,,,,,,,,,,,,,,,,,,,,,,,,,,,,,,,,,,,,,,,,,,,,,,,,,,,,,,,,,,,,,,,,,,,,,,,,,,,,,,,,,,,,,,,253.09544205299972,263.60010818599994,,,,,031722,2,3,0,1,0,1,2,0,62,2022_Mar_17_1320,listening_fmri,3.2.4,60.29512086036776,
1,parcelated_audio/33/33_24.ogg,,,,,,,,,0,0,0,0,0,1,1,1,0,0,0,0,,,,,,,,,,,,,0,0,0,0,0,23,23,23,,,,,,,,,,,,,,,,,,,,,,,,,,,,,,,,,,,,,,,,,,,,,,,,,,,,,,,,,,,,,,,,,,,,,,,,,,,,,,,,,,,,,,,,,,,,,,,,,,,,,263.60039827699984,269.8801401779997,,,,,031722,2,3,0,1,0,1,2,0,62,2022_Mar_17_1320,listening_fmri,3.2.4,60.29512086036776,
1,parcelated_audio/33/33_25.ogg,,,,,,,,,0,0,0,0,0,1,1,1,0,0,0,0,,,,,,,,,,,,,0,0,0,0,0,24,24,24,,,,,,,,,,,,,,,,,,,,,,,,,,,,,,,,,,,,,,,,,,,,,,,,,,,,,,,,,,,,,,,,,,,,,,,,,,,,,,,,,,,,,,,,,,,,,,,,,,,,,269.8804518510001,278.0998801239998,,,,,031722,2,3,0,1,0,1,2,0,62,2022_Mar_17_1320,listening_fmri,3.2.4,60.29512086036776,
1,parcelated_audio/33/33_26.ogg,,,,,,,,,0,0,0,0,0,1,1,1,0,0,0,0,,,,,,,,,,,,,0,0,0,0,0,25,25,25,,,,,,,,,,,,,,,,,,,,,,,,,,,,,,,,,,,,,,,,,,,,,,,,,,,,,,,,,,,,,,,,,,,,,,,,,,,,,,,,,,,,,,,,,,,,,,,,,,,,,278.1011694589997,285.1868452389999,,,,,031722,2,3,0,1,0,1,2,0,62,2022_Mar_17_1320,listening_fmri,3.2.4,60.29512086036776,
1,parcelated_audio/33/33_27.ogg,,,,,,,,,0,0,0,0,0,1,1,1,0,0,0,0,,,,,,,,,,,,,0,0,0,0,0,26,26,26,,,,,,,,,,,,,,,,,,,,,,,,,,,,,,,,,,,,,,,,,,,,,,,,,,,,,,,,,,,,,,,,,,,,,,,,,,,,,,,,,,,,,,,,,,,,,,,,,,,,,285.18795511999997,292.744354038,,,,,031722,2,3,0,1,0,1,2,0,62,2022_Mar_17_1320,listening_fmri,3.2.4,60.29512086036776,
1,parcelated_audio/33/33_28.ogg,,,,,,,,,0,0,0,0,0,1,1,1,0,0,0,0,,,,,,,,,,,,,0,0,0,0,0,27,27,27,,,,,,,,,,,,,,,,,,,,,,,,,,,,,,,,,,,,,,,,,,,,,,,,,,,,,,,,,,,,,,,,,,,,,,,,,,,,,,,,,,,,,,,,,,,,,,,,,,,,,292.745418946,298.41877973500004,,,,,031722,2,3,0,1,0,1,2,0,62,2022_Mar_17_1320,listening_fmri,3.2.4,60.29512086036776,
1,parcelated_audio/33/33_29.ogg,,,,,,,,,0,0,0,0,0,1,1,1,0,0,0,0,,,,,,,,,,,,,0,0,0,0,0,28,28,28,,,,,,,,,,,,,,,,,,,,,,,,,,,,,,,,,,,,,,,,,,,,,,,,,,,,,,,,,,,,,,,,,,,,,,,,,,,,,,,,,,,,,,,,,,,,,,,,,,,,,298.41988479099973,306.3403456010001,,,,,031722,2,3,0,1,0,1,2,0,62,2022_Mar_17_1320,listening_fmri,3.2.4,60.29512086036776,
1,parcelated_audio/33/33_30.ogg,,,,,,,,,0,0,0,0,0,1,1,1,0,0,0,0,,,,,,,,,,,,,0,0,0,0,0,29,29,29,,,,,,,,,,,,,,,,,,,,,,,,,,,,,,,,,,,,,,,,,,,,,,,,,,,,,,,,,,,,,,,,,,,,,,,,,,,,,,,,,,,,,,,,,,,,,,,,,,,,,306.34078948399974,321.32476395899994,,,,,031722,2,3,0,1,0,1,2,0,62,2022_Mar_17_1320,listening_fmri,3.2.4,60.29512086036776,
1,parcelated_audio/33/33_31.ogg,,,,,,,,,0,0,0,0,0,1,1,1,0,0,0,0,,,,,,,,,,,,,0,0,0,0,0,30,30,30,,,,,,,,,,,,,,,,,,,,,,,,,,,,,,,,,,,,,,,,,,,,,,,,,,,,,,,,,,,,,,,,,,,,,,,,,,,,,,,,,,,,,,,,,,,,,,,,,,,,,321.3251256469998,331.09076692100007,,,,,031722,2,3,0,1,0,1,2,0,62,2022_Mar_17_1320,listening_fmri,3.2.4,60.29512086036776,
1,parcelated_audio/33/33_32.ogg,,,,,,,,,0,0,0,0,0,1,1,1,0,0,0,0,,,,,,,,,,,,,0,0,0,0,0,31,31,31,,,,,,,,,,,,,,,,,,,,,,,,,,,,,,,,,,,,,,,,,,,,,,,,,,,,,,,,,,,,,,,,,,,,,,,,,,,,,,,,,,,,,,,,,,,,,,,,,,,,,331.0911293529998,336.7084688169998,,,,,031722,2,3,0,1,0,1,2,0,62,2022_Mar_17_1320,listening_fmri,3.2.4,60.29512086036776,
1,,,,,,,,,,0,0,0,0,0,1,1,1,0,0,0,0,,,,,,,,,,,,,0,0,0,0,,,,,,,,,,,,,,,,,,,,,,,,,,,,,,,,,,,,,,,,,,,,,,,,,,,,,,,,,,,,,,,,,,,,,,,,,,,,,,,,,,,,,,,,,,,,,,,,,,,,,,,,,,,,,,,031722,2,3,0,1,0,1,2,0,62,2022_Mar_17_1320,listening_fmri,3.2.4,60.29512086036776,
1,,,,,,,,,,0,0,0,0,0,1,1,1,0,0,0,0,,,,,,,,,,,,,,,,,,,,,,,,,,,,,,,,,,,,,,336.70898460599983,342.707688211,384.62644563999993,None,,,,,,,,,,,,,,,,,,,,,,,,,,,,,,,,,,,,,,,,,,,,,,,,,,,,,,,,,,,,,,,,,,,,,,,,,,,,,,,,,,390.6270033850001,None,390.6270033850001,None,031722,2,3,0,1,0,1,2,0,62,2022_Mar_17_1320,listening_fmri,3.2.4,60.29512086036776,
1,,,,,,,,,,0,0,0,0,0,1,1,1,,,,,,,,,,,,,,,,,,,,,,,,,,,,,,,,,,,,,,,,,,,,,,,,,,,,,,,,,,,,,,,,,,,,,,,,,,,,,,,,,,,,,,,,,,,,,,,,,,,,,,,,,,,,,,,,,,,,,,,,,,,,,,,,,,,031722,2,3,0,1,0,1,2,0,62,2022_Mar_17_1320,listening_fmri,3.2.4,60.29512086036776,
2,parcelated_audio/13/13_1.ogg,,,,,,,,,0,0,0,0,0,2,2,2,0,0,0,0,,,,,,,,,,,,,0,0,0,0,0,0,0,0,,,,,,,,,,,,,,,,,,,,,,391.62948919400014,None,391.62948919400014,None,8,4.060344955999881,391.62948919400014,None,391.62948919400014,None,,,,,,,,,,,,,,,,,,,,,,,,,,,,,,,,,,,,,,,,,,,,,,,,,,,,,,,,,,,,,,395.71000294800024,None,7,3.2818633960000625,395.71000294800024,None,351.1000396049999,354.10804767399986,354.11471437299997,365.80458435699984,,,,,031722,2,3,0,1,0,1,2,0,62,2022_Mar_17_1320,listening_fmri,3.2.4,60.29512086036776,
2,parcelated_audio/13/13_2.ogg,,,,,,,,,0,0,0,0,0,2,2,2,0,0,0,0,,,,,,,,,,,,,0,0,0,0,0,1,1,1,,,,,,,,,,,,,,,,,,,,,,,,,,,,,,,,,,,,,,,,,,,,,,,,,,,,,,,,,,,,,,,,,,,,,,,,,,,,,,,,,,,,,,,,,,,,,,,,,,,,,365.80494229999977,371.92361642299966,,,,,031722,2,3,0,1,0,1,2,0,62,2022_Mar_17_1320,listening_fmri,3.2.4,60.29512086036776,
2,parcelated_audio/13/13_3.ogg,,,,,,,,,0,0,0,0,0,2,2,2,0,0,0,0,,,,,,,,,,,,,0,0,0,0,0,2,2,2,,,,,,,,,,,,,,,,,,,,,,,,,,,,,,,,,,,,,,,,,,,,,,,,,,,,,,,,,,,,,,,,,,,,,,,,,,,,,,,,,,,,,,,,,,,,,,,,,,,,,371.9240040949999,380.3246170550001,,,,,031722,2,3,0,1,0,1,2,0,62,2022_Mar_17_1320,listening_fmri,3.2.4,60.29512086036776,
2,parcelated_audio/13/13_4.ogg,,,,,,,,,0,0,0,0,0,2,2,2,0,0,0,0,,,,,,,,,,,,,0,0,0,0,0,3,3,3,,,,,,,,,,,,,,,,,,,,,,,,,,,,,,,,,,,,,,,,,,,,,,,,,,,,,,,,,,,,,,,,,,,,,,,,,,,,,,,,,,,,,,,,,,,,,,,,,,,,,380.324976459,390.5876581499997,,,,,031722,2,3,0,1,0,1,2,0,62,2022_Mar_17_1320,listening_fmri,3.2.4,60.29512086036776,
2,parcelated_audio/13/13_5.ogg,,,,,,,,,0,0,0,0,0,2,2,2,0,0,0,0,,,,,,,,,,,,,0,0,0,0,0,4,4,4,,,,,,,,,,,,,,,,,,,,,,,,,,,,,,,,,,,,,,,,,,,,,,,,,,,,,,,,,,,,,,,,,,,,,,,,,,,,,,,,,,,,,,,,,,,,,,,,,,,,,390.58793811999976,396.64079291999997,,,,,031722,2,3,0,1,0,1,2,0,62,2022_Mar_17_1320,listening_fmri,3.2.4,60.29512086036776,
2,parcelated_audio/13/13_6.ogg,,,,,,,,,0,0,0,0,0,2,2,2,0,0,0,0,,,,,,,,,,,,,0,0,0,0,0,5,5,5,,,,,,,,,,,,,,,,,,,,,,,,,,,,,,,,,,,,,,,,,,,,,,,,,,,,,,,,,,,,,,,,,,,,,,,,,,,,,,,,,,,,,,,,,,,,,,,,,,,,,396.64104785599966,401.3575818700001,,,,,031722,2,3,0,1,0,1,2,0,62,2022_Mar_17_1320,listening_fmri,3.2.4,60.29512086036776,
2,parcelated_audio/13/13_7.ogg,,,,,,,,,0,0,0,0,0,2,2,2,0,0,0,0,,,,,,,,,,,,,0,0,0,0,0,6,6,6,,,,,,,,,,,,,,,,,,,,,,,,,,,,,,,,,,,,,,,,,,,,,,,,,,,,,,,,,,,,,,,,,,,,,,,,,,,,,,,,,,,,,,,,,,,,,,,,,,,,,401.35794850699995,409.0080951709997,,,,,031722,2,3,0,1,0,1,2,0,62,2022_Mar_17_1320,listening_fmri,3.2.4,60.29512086036776,
2,parcelated_audio/13/13_8.ogg,,,,,,,,,0,0,0,0,0,2,2,2,0,0,0,0,,,,,,,,,,,,,0,0,0,0,0,7,7,7,,,,,,,,,,,,,,,,,,,,,,,,,,,,,,,,,,,,,,,,,,,,,,,,,,,,,,,,,,,,,,,,,,,,,,,,,,,,,,,,,,,,,,,,,,,,,,,,,,,,,409.0084513080001,414.30795419299966,,,,,031722,2,3,0,1,0,1,2,0,62,2022_Mar_17_1320,listening_fmri,3.2.4,60.29512086036776,
2,parcelated_audio/13/13_9.ogg,,,,,,,,,0,0,0,0,0,2,2,2,0,0,0,0,,,,,,,,,,,,,0,0,0,0,0,8,8,8,,,,,,,,,,,,,,,,,,,,,,,,,,,,,,,,,,,,,,,,,,,,,,,,,,,,,,,,,,,,,,,,,,,,,,,,,,,,,,,,,,,,,,,,,,,,,,,,,,,,,414.308412975,418.925298828,,,,,031722,2,3,0,1,0,1,2,0,62,2022_Mar_17_1320,listening_fmri,3.2.4,60.29512086036776,
2,parcelated_audio/13/13_10.ogg,,,,,,,,,0,0,0,0,0,2,2,2,0,0,0,0,,,,,,,,,,,,,0,0,0,0,0,9,9,9,,,,,,,,,,,,,,,,,,,,,,,,,,,,,,,,,,,,,,,,,,,,,,,,,,,,,,,,,,,,,,,,,,,,,,,,,,,,,,,,,,,,,,,,,,,,,,,,,,,,,418.92565668999987,424.7285592549997,,,,,031722,2,3,0,1,0,1,2,0,62,2022_Mar_17_1320,listening_fmri,3.2.4,60.29512086036776,
2,parcelated_audio/13/13_11.ogg,,,,,,,,,0,0,0,0,0,2,2,2,0,0,0,0,,,,,,,,,,,,,0,0,0,0,0,10,10,10,,,,,,,,,,,,,,,,,,,,,,,,,,,,,,,,,,,,,,,,,,,,,,,,,,,,,,,,,,,,,,,,,,,,,,,,,,,,,,,,,,,,,,,,,,,,,,,,,,,,,424.72888866899984,429.25465582900006,,,,,031722,2,3,0,1,0,1,2,0,62,2022_Mar_17_1320,listening_fmri,3.2.4,60.29512086036776,
2,parcelated_audio/13/13_12.ogg,,,,,,,,,0,0,0,0,0,2,2,2,0,0,0,0,,,,,,,,,,,,,0,0,0,0,0,11,11,11,,,,,,,,,,,,,,,,,,,,,,,,,,,,,,,,,,,,,,,,,,,,,,,,,,,,,,,,,,,,,,,,,,,,,,,,,,,,,,,,,,,,,,,,,,,,,,,,,,,,,429.25505906499984,437.72027869999965,,,,,031722,2,3,0,1,0,1,2,0,62,2022_Mar_17_1320,listening_fmri,3.2.4,60.29512086036776,
2,parcelated_audio/13/13_13.ogg,,,,,,,,,0,0,0,0,0,2,2,2,0,0,0,0,,,,,,,,,,,,,0,0,0,0,0,12,12,12,,,,,,,,,,,,,,,,,,,,,,,,,,,,,,,,,,,,,,,,,,,,,,,,,,,,,,,,,,,,,,,,,,,,,,,,,,,,,,,,,,,,,,,,,,,,,,,,,,,,,437.720637207,447.613640047,,,,,031722,2,3,0,1,0,1,2,0,62,2022_Mar_17_1320,listening_fmri,3.2.4,60.29512086036776,
2,parcelated_audio/13/13_14.ogg,,,,,,,,,0,0,0,0,0,2,2,2,0,0,0,0,,,,,,,,,,,,,0,0,0,0,0,13,13,13,,,,,,,,,,,,,,,,,,,,,,,,,,,,,,,,,,,,,,,,,,,,,,,,,,,,,,,,,,,,,,,,,,,,,,,,,,,,,,,,,,,,,,,,,,,,,,,,,,,,,447.61404661000006,455.7808801819997,,,,,031722,2,3,0,1,0,1,2,0,62,2022_Mar_17_1320,listening_fmri,3.2.4,60.29512086036776,
2,parcelated_audio/13/13_15.ogg,,,,,,,,,0,0,0,0,0,2,2,2,0,0,0,0,,,,,,,,,,,,,0,0,0,0,0,14,14,14,,,,,,,,,,,,,,,,,,,,,,,,,,,,,,,,,,,,,,,,,,,,,,,,,,,,,,,,,,,,,,,,,,,,,,,,,,,,,,,,,,,,,,,,,,,,,,,,,,,,,455.7820682419997,464.4561225369998,,,,,031722,2,3,0,1,0,1,2,0,62,2022_Mar_17_1320,listening_fmri,3.2.4,60.29512086036776,
2,parcelated_audio/13/13_16.ogg,,,,,,,,,0,0,0,0,0,2,2,2,0,0,0,0,,,,,,,,,,,,,0,0,0,0,0,15,15,15,,,,,,,,,,,,,,,,,,,,,,,,,,,,,,,,,,,,,,,,,,,,,,,,,,,,,,,,,,,,,,,,,,,,,,,,,,,,,,,,,,,,,,,,,,,,,,,,,,,,,464.4566254020001,466.77260593899973,,,,,031722,2,3,0,1,0,1,2,0,62,2022_Mar_17_1320,listening_fmri,3.2.4,60.29512086036776,
2,parcelated_audio/13/13_17.ogg,,,,,,,,,0,0,0,0,0,2,2,2,0,0,0,0,,,,,,,,,,,,,0,0,0,0,0,16,16,16,,,,,,,,,,,,,,,,,,,,,,,,,,,,,,,,,,,,,,,,,,,,,,,,,,,,,,,,,,,,,,,,,,,,,,,,,,,,,,,,,,,,,,,,,,,,,,,,,,,,,466.772972663,474.34424405699974,,,,,031722,2,3,0,1,0,1,2,0,62,2022_Mar_17_1320,listening_fmri,3.2.4,60.29512086036776,
2,parcelated_audio/13/13_18.ogg,,,,,,,,,0,0,0,0,0,2,2,2,0,0,0,0,,,,,,,,,,,,,0,0,0,0,0,17,17,17,,,,,,,,,,,,,,,,,,,,,,,,,,,,,,,,,,,,,,,,,,,,,,,,,,,,,,,,,,,,,,,,,,,,,,,,,,,,,,,,,,,,,,,,,,,,,,,,,,,,,474.34461840999984,484.56535467599997,,,,,031722,2,3,0,1,0,1,2,0,62,2022_Mar_17_1320,listening_fmri,3.2.4,60.29512086036776,
2,parcelated_audio/13/13_19.ogg,,,,,,,,,0,0,0,0,0,2,2,2,0,0,0,0,,,,,,,,,,,,,0,0,0,0,0,18,18,18,,,,,,,,,,,,,,,,,,,,,,,,,,,,,,,,,,,,,,,,,,,,,,,,,,,,,,,,,,,,,,,,,,,,,,,,,,,,,,,,,,,,,,,,,,,,,,,,,,,,,484.5663195100001,492.540941493,,,,,031722,2,3,0,1,0,1,2,0,62,2022_Mar_17_1320,listening_fmri,3.2.4,60.29512086036776,
2,parcelated_audio/13/13_20.ogg,,,,,,,,,0,0,0,0,0,2,2,2,0,0,0,0,,,,,,,,,,,,,0,0,0,0,0,19,19,19,,,,,,,,,,,,,,,,,,,,,,,,,,,,,,,,,,,,,,,,,,,,,,,,,,,,,,,,,,,,,,,,,,,,,,,,,,,,,,,,,,,,,,,,,,,,,,,,,,,,,492.5413177539999,497.75838825799974,,,,,031722,2,3,0,1,0,1,2,0,62,2022_Mar_17_1320,listening_fmri,3.2.4,60.29512086036776,
2,parcelated_audio/13/13_21.ogg,,,,,,,,,0,0,0,0,0,2,2,2,0,0,0,0,,,,,,,,,,,,,0,0,0,0,0,20,20,20,,,,,,,,,,,,,,,,,,,,,,,,,,,,,,,,,,,,,,,,,,,,,,,,,,,,,,,,,,,,,,,,,,,,,,,,,,,,,,,,,,,,,,,,,,,,,,,,,,,,,497.75866928799996,501.0766001029997,,,,,031722,2,3,0,1,0,1,2,0,62,2022_Mar_17_1320,listening_fmri,3.2.4,60.29512086036776,
2,parcelated_audio/13/13_22.ogg,,,,,,,,,0,0,0,0,0,2,2,2,0,0,0,0,,,,,,,,,,,,,0,0,0,0,0,21,21,21,,,,,,,,,,,,,,,,,,,,,,,,,,,,,,,,,,,,,,,,,,,,,,,,,,,,,,,,,,,,,,,,,,,,,,,,,,,,,,,,,,,,,,,,,,,,,,,,,,,,,501.0769583460001,504.49777446999997,,,,,031722,2,3,0,1,0,1,2,0,62,2022_Mar_17_1320,listening_fmri,3.2.4,60.29512086036776,
2,parcelated_audio/13/13_23.ogg,,,,,,,,,0,0,0,0,0,2,2,2,0,0,0,0,,,,,,,,,,,,,0,0,0,0,0,22,22,22,,,,,,,,,,,,,,,,,,,,,,,,,,,,,,,,,,,,,,,,,,,,,,,,,,,,,,,,,,,,,,,,,,,,,,,,,,,,,,,,,,,,,,,,,,,,,,,,,,,,,504.4983353739999,509.76071320899973,,,,,031722,2,3,0,1,0,1,2,0,62,2022_Mar_17_1320,listening_fmri,3.2.4,60.29512086036776,
2,parcelated_audio/13/13_24.ogg,,,,,,,,,0,0,0,0,0,2,2,2,0,0,0,0,,,,,,,,,,,,,0,0,0,0,0,23,23,23,,,,,,,,,,,,,,,,,,,,,,,,,,,,,,,,,,,,,,,,,,,,,,,,,,,,,,,,,,,,,,,,,,,,,,,,,,,,,,,,,,,,,,,,,,,,,,,,,,,,,509.76104994599973,519.4857233959997,,,,,031722,2,3,0,1,0,1,2,0,62,2022_Mar_17_1320,listening_fmri,3.2.4,60.29512086036776,
2,parcelated_audio/13/13_25.ogg,,,,,,,,,0,0,0,0,0,2,2,2,0,0,0,0,,,,,,,,,,,,,0,0,0,0,0,24,24,24,,,,,,,,,,,,,,,,,,,,,,,,,,,,,,,,,,,,,,,,,,,,,,,,,,,,,,,,,,,,,,,,,,,,,,,,,,,,,,,,,,,,,,,,,,,,,,,,,,,,,519.4860820099998,526.7868554329998,,,,,031722,2,3,0,1,0,1,2,0,62,2022_Mar_17_1320,listening_fmri,3.2.4,60.29512086036776,
2,parcelated_audio/13/13_26.ogg,,,,,,,,,0,0,0,0,0,2,2,2,0,0,0,0,,,,,,,,,,,,,0,0,0,0,0,25,25,25,,,,,,,,,,,,,,,,,,,,,,,,,,,,,,,,,,,,,,,,,,,,,,,,,,,,,,,,,,,,,,,,,,,,,,,,,,,,,,,,,,,,,,,,,,,,,,,,,,,,,526.787420571,532.9934660929998,,,,,031722,2,3,0,1,0,1,2,0,62,2022_Mar_17_1320,listening_fmri,3.2.4,60.29512086036776,
2,parcelated_audio/13/13_27.ogg,,,,,,,,,0,0,0,0,0,2,2,2,0,0,0,0,,,,,,,,,,,,,0,0,0,0,0,26,26,26,,,,,,,,,,,,,,,,,,,,,,,,,,,,,,,,,,,,,,,,,,,,,,,,,,,,,,,,,,,,,,,,,,,,,,,,,,,,,,,,,,,,,,,,,,,,,,,,,,,,,532.99379404,538.2384234399997,,,,,031722,2,3,0,1,0,1,2,0,62,2022_Mar_17_1320,listening_fmri,3.2.4,60.29512086036776,
2,parcelated_audio/13/13_28.ogg,,,,,,,,,0,0,0,0,0,2,2,2,0,0,0,0,,,,,,,,,,,,,0,0,0,0,0,27,27,27,,,,,,,,,,,,,,,,,,,,,,,,,,,,,,,,,,,,,,,,,,,,,,,,,,,,,,,,,,,,,,,,,,,,,,,,,,,,,,,,,,,,,,,,,,,,,,,,,,,,,538.2394551970001,543.686713392,,,,,031722,2,3,0,1,0,1,2,0,62,2022_Mar_17_1320,listening_fmri,3.2.4,60.29512086036776,
2,parcelated_audio/13/13_29.ogg,,,,,,,,,0,0,0,0,0,2,2,2,0,0,0,0,,,,,,,,,,,,,0,0,0,0,0,28,28,28,,,,,,,,,,,,,,,,,,,,,,,,,,,,,,,,,,,,,,,,,,,,,,,,,,,,,,,,,,,,,,,,,,,,,,,,,,,,,,,,,,,,,,,,,,,,,,,,,,,,,543.6870797009997,546.990577088,,,,,031722,2,3,0,1,0,1,2,0,62,2022_Mar_17_1320,listening_fmri,3.2.4,60.29512086036776,
2,parcelated_audio/13/13_30.ogg,,,,,,,,,0,0,0,0,0,2,2,2,0,0,0,0,,,,,,,,,,,,,0,0,0,0,0,29,29,29,,,,,,,,,,,,,,,,,,,,,,,,,,,,,,,,,,,,,,,,,,,,,,,,,,,,,,,,,,,,,,,,,,,,,,,,,,,,,,,,,,,,,,,,,,,,,,,,,,,,,546.9909319509998,550.4607524029998,,,,,031722,2,3,0,1,0,1,2,0,62,2022_Mar_17_1320,listening_fmri,3.2.4,60.29512086036776,
2,parcelated_audio/13/13_31.ogg,,,,,,,,,0,0,0,0,0,2,2,2,0,0,0,0,,,,,,,,,,,,,0,0,0,0,0,30,30,30,,,,,,,,,,,,,,,,,,,,,,,,,,,,,,,,,,,,,,,,,,,,,,,,,,,,,,,,,,,,,,,,,,,,,,,,,,,,,,,,,,,,,,,,,,,,,,,,,,,,,550.4611144119999,556.4197311549997,,,,,031722,2,3,0,1,0,1,2,0,62,2022_Mar_17_1320,listening_fmri,3.2.4,60.29512086036776,
2,,,,,,,,,,0,0,0,0,0,2,2,2,0,0,0,0,,,,,,,,,,,,,0,0,0,0,,,,,,,,,,,,,,,,,,,,,,,,,,,,,,,,,,,,,,,,,,,,,,,,,,,,,,,,,,,,,,,,,,,,,,,,,,,,,,,,,,,,,,,,,,,,,,,,,,,,,,,,,,,,,,,031722,2,3,0,1,0,1,2,0,62,2022_Mar_17_1320,listening_fmri,3.2.4,60.29512086036776,
2,,,,,,,,,,0,0,0,0,0,2,2,2,0,0,0,0,,,,,,,,,,,,,,,,,,,,,,,,,,,,,,,,,,,,,,556.42023479,562.4079596050001,604.3269956690001,None,,,,,,,,,,,,,,,,,,,,,,,,,,,,,,,,,,,,,,,,,,,,,,,,,,,,,,,,,,,,,,,,,,,,,,,,,,,,,,,,,,610.3271069120001,None,610.3271069120001,None,031722,2,3,0,1,0,1,2,0,62,2022_Mar_17_1320,listening_fmri,3.2.4,60.29512086036776,
2,,,,,,,,,,0,0,0,0,0,2,2,2,,,,,,,,,,,,,,,,,,,,,,,,,,,,,,,,,,,,,,,,,,,,,,,,,,,,,,,,,,,,,,,,,,,,,,,,,,,,,,,,,,,,,,,,,,,,,,,,,,,,,,,,,,,,,,,,,,,,,,,,,,,,,,,,,,,031722,2,3,0,1,0,1,2,0,62,2022_Mar_17_1320,listening_fmri,3.2.4,60.29512086036776,
3,,,,,,,,,,0,0,0,0,0,3,3,3,0,0,0,0,0,0,0,0,0,0,0,0,,,,,,,,,,,,,,,,,,,,,,,,,,,,,,,,,,611.3439482610002,None,611.3439482610002,None,2,0.9149267929997222,611.3439482610002,None,611.3439482610002,None,612.277398877,None,2,1.3214574349999566,612.277398877,None,612.277398877,None,613.644349402,None,613.644349402,None,613.644349402,None,2,5.6694512819999545,613.644349402,None,619.343188286,None,2,0.87552203200039,619.343188286,None,619.343188286,None,620.3091194809999,None,620.3091194809999,None,620.3091194809999,None,620.3091194809999,None,620.3091194809999,None,620.3091194809999,None,620.3091194809999,None,None,620.3091194809999,None,,,,,,,,,,,,,,,,,,,,,,,,,,,,,,,,,031722,2,3,0,1,0,1,2,0,62,2022_Mar_17_1320,listening_fmri,3.2.4,60.29512086036776,
3,,,,,,,,,,0,0,0,0,0,3,3,3,0,0,0,0,0,0,0,0,,,,,,,,,,,,,,,,,,,,,,,,,,,,,,,,,,,,,,,,,,,,,,,,,,,,,,,,,,,,,,,,,,,,,,,,,,,,,,,,,,,,,,,,,,,638.9096692010003,None,7,1.593218128999979,638.9096692010003,None,638.9096692010003,None,640.5430172770002,None,640.5430172770002,None,640.5430172770002,None,7,3.959642471999814,640.5430172770002,None,,,,,,,,,,,,,,,031722,2,3,0,1,0,1,2,0,62,2022_Mar_17_1320,listening_fmri,3.2.4,60.29512086036776,
3,parcelated_audio/11/11_1.ogg,,,,,,,,,0,0,0,0,0,3,3,3,0,0,0,0,,,,,,,,,,,,,0,0,0,0,0,0,0,0,,,,,,,,,,,,,,,,,,,,,,,,,,,,,,,,,,,,,,,,,,,,,,,,,,,,,,,,,,,,,,,,,,,,,,,,,,,,,,,,,,,,,,,,,,,,,644.526344116,None,7,4.14650707599958,644.526344116,None,600.8076161250001,603.8078925340001,603.8139716169999,615.8922657749999,,,,,031722,2,3,0,1,0,1,2,0,62,2022_Mar_17_1320,listening_fmri,3.2.4,60.29512086036776,
3,parcelated_audio/11/11_2.ogg,,,,,,,,,0,0,0,0,0,3,3,3,0,0,0,0,,,,,,,,,,,,,0,0,0,0,0,1,1,1,,,,,,,,,,,,,,,,,,,,,,,,,,,,,,,,,,,,,,,,,,,,,,,,,,,,,,,,,,,,,,,,,,,,,,,,,,,,,,,,,,,,,,,,,,,,,,,,,,,,,615.893781754,620.387881307,,,,,031722,2,3,0,1,0,1,2,0,62,2022_Mar_17_1320,listening_fmri,3.2.4,60.29512086036776,
3,parcelated_audio/11/11_3.ogg,,,,,,,,,0,0,0,0,0,3,3,3,0,0,0,0,,,,,,,,,,,,,0,0,0,0,0,2,2,2,,,,,,,,,,,,,,,,,,,,,,,,,,,,,,,,,,,,,,,,,,,,,,,,,,,,,,,,,,,,,,,,,,,,,,,,,,,,,,,,,,,,,,,,,,,,,,,,,,,,,620.388921319,625.389635392,,,,,031722,2,3,0,1,0,1,2,0,62,2022_Mar_17_1320,listening_fmri,3.2.4,60.29512086036776,
3,parcelated_audio/11/11_4.ogg,,,,,,,,,0,0,0,0,0,3,3,3,0,0,0,0,,,,,,,,,,,,,0,0,0,0,0,3,3,3,,,,,,,,,,,,,,,,,,,,,,,,,,,,,,,,,,,,,,,,,,,,,,,,,,,,,,,,,,,,,,,,,,,,,,,,,,,,,,,,,,,,,,,,,,,,,,,,,,,,,625.3900690129999,634.4952882369998,,,,,031722,2,3,0,1,0,1,2,0,62,2022_Mar_17_1320,listening_fmri,3.2.4,60.29512086036776,
3,parcelated_audio/11/11_5.ogg,,,,,,,,,0,0,0,0,0,3,3,3,0,0,0,0,,,,,,,,,,,,,0,0,0,0,0,4,4,4,,,,,,,,,,,,,,,,,,,,,,,,,,,,,,,,,,,,,,,,,,,,,,,,,,,,,,,,,,,,,,,,,,,,,,,,,,,,,,,,,,,,,,,,,,,,,,,,,,,,,634.495650289,640.253425801,,,,,031722,2,3,0,1,0,1,2,0,62,2022_Mar_17_1320,listening_fmri,3.2.4,60.29512086036776,
3,parcelated_audio/11/11_6.ogg,,,,,,,,,0,0,0,0,0,3,3,3,0,0,0,0,,,,,,,,,,,,,0,0,0,0,0,5,5,5,,,,,,,,,,,,,,,,,,,,,,,,,,,,,,,,,,,,,,,,,,,,,,,,,,,,,,,,,,,,,,,,,,,,,,,,,,,,,,,,,,,,,,,,,,,,,,,,,,,,,640.253898085,644.8423345010001,,,,,031722,2,3,0,1,0,1,2,0,62,2022_Mar_17_1320,listening_fmri,3.2.4,60.29512086036776,
3,parcelated_audio/11/11_7.ogg,,,,,,,,,0,0,0,0,0,3,3,3,0,0,0,0,,,,,,,,,,,,,0,0,0,0,0,6,6,6,,,,,,,,,,,,,,,,,,,,,,,,,,,,,,,,,,,,,,,,,,,,,,,,,,,,,,,,,,,,,,,,,,,,,,,,,,,,,,,,,,,,,,,,,,,,,,,,,,,,,644.8428082269998,651.403071707,,,,,031722,2,3,0,1,0,1,2,0,62,2022_Mar_17_1320,listening_fmri,3.2.4,60.29512086036776,
3,parcelated_audio/11/11_8.ogg,,,,,,,,,0,0,0,0,0,3,3,3,0,0,0,0,,,,,,,,,,,,,0,0,0,0,0,7,7,7,,,,,,,,,,,,,,,,,,,,,,,,,,,,,,,,,,,,,,,,,,,,,,,,,,,,,,,,,,,,,,,,,,,,,,,,,,,,,,,,,,,,,,,,,,,,,,,,,,,,,651.4035435999999,657.184799701,,,,,031722,2,3,0,1,0,1,2,0,62,2022_Mar_17_1320,listening_fmri,3.2.4,60.29512086036776,
3,parcelated_audio/11/11_9.ogg,,,,,,,,,0,0,0,0,0,3,3,3,0,0,0,0,,,,,,,,,,,,,0,0,0,0,0,8,8,8,,,,,,,,,,,,,,,,,,,,,,,,,,,,,,,,,,,,,,,,,,,,,,,,,,,,,,,,,,,,,,,,,,,,,,,,,,,,,,,,,,,,,,,,,,,,,,,,,,,,,657.1875903189998,661.5014418169999,,,,,031722,2,3,0,1,0,1,2,0,62,2022_Mar_17_1320,listening_fmri,3.2.4,60.29512086036776,
3,parcelated_audio/11/11_10.ogg,,,,,,,,,0,0,0,0,0,3,3,3,0,0,0,0,,,,,,,,,,,,,0,0,0,0,0,9,9,9,,,,,,,,,,,,,,,,,,,,,,,,,,,,,,,,,,,,,,,,,,,,,,,,,,,,,,,,,,,,,,,,,,,,,,,,,,,,,,,,,,,,,,,,,,,,,,,,,,,,,661.5017999419997,666.0906707179997,,,,,031722,2,3,0,1,0,1,2,0,62,2022_Mar_17_1320,listening_fmri,3.2.4,60.29512086036776,
3,parcelated_audio/11/11_11.ogg,,,,,,,,,0,0,0,0,0,3,3,3,0,0,0,0,,,,,,,,,,,,,0,0,0,0,0,10,10,10,,,,,,,,,,,,,,,,,,,,,,,,,,,,,,,,,,,,,,,,,,,,,,,,,,,,,,,,,,,,,,,,,,,,,,,,,,,,,,,,,,,,,,,,,,,,,,,,,,,,,666.0912255049998,669.2648249029999,,,,,031722,2,3,0,1,0,1,2,0,62,2022_Mar_17_1320,listening_fmri,3.2.4,60.29512086036776,
3,parcelated_audio/11/11_12.ogg,,,,,,,,,0,0,0,0,0,3,3,3,0,0,0,0,,,,,,,,,,,,,0,0,0,0,0,11,11,11,,,,,,,,,,,,,,,,,,,,,,,,,,,,,,,,,,,,,,,,,,,,,,,,,,,,,,,,,,,,,,,,,,,,,,,,,,,,,,,,,,,,,,,,,,,,,,,,,,,,,669.2651068539999,672.1067339859997,,,,,031722,2,3,0,1,0,1,2,0,62,2022_Mar_17_1320,listening_fmri,3.2.4,60.29512086036776,
3,parcelated_audio/11/11_13.ogg,,,,,,,,,0,0,0,0,0,3,3,3,0,0,0,0,,,,,,,,,,,,,0,0,0,0,0,12,12,12,,,,,,,,,,,,,,,,,,,,,,,,,,,,,,,,,,,,,,,,,,,,,,,,,,,,,,,,,,,,,,,,,,,,,,,,,,,,,,,,,,,,,,,,,,,,,,,,,,,,,672.1071063169998,675.4263130300001,,,,,031722,2,3,0,1,0,1,2,0,62,2022_Mar_17_1320,listening_fmri,3.2.4,60.29512086036776,
3,parcelated_audio/11/11_14.ogg,,,,,,,,,0,0,0,0,0,3,3,3,0,0,0,0,,,,,,,,,,,,,0,0,0,0,0,13,13,13,,,,,,,,,,,,,,,,,,,,,,,,,,,,,,,,,,,,,,,,,,,,,,,,,,,,,,,,,,,,,,,,,,,,,,,,,,,,,,,,,,,,,,,,,,,,,,,,,,,,,675.4267549669999,678.1309603330001,,,,,031722,2,3,0,1,0,1,2,0,62,2022_Mar_17_1320,listening_fmri,3.2.4,60.29512086036776,
3,parcelated_audio/11/11_15.ogg,,,,,,,,,0,0,0,0,0,3,3,3,0,0,0,0,,,,,,,,,,,,,0,0,0,0,0,14,14,14,,,,,,,,,,,,,,,,,,,,,,,,,,,,,,,,,,,,,,,,,,,,,,,,,,,,,,,,,,,,,,,,,,,,,,,,,,,,,,,,,,,,,,,,,,,,,,,,,,,,,678.1313206619998,689.3168241609997,,,,,031722,2,3,0,1,0,1,2,0,62,2022_Mar_17_1320,listening_fmri,3.2.4,60.29512086036776,
3,parcelated_audio/11/11_16.ogg,,,,,,,,,0,0,0,0,0,3,3,3,0,0,0,0,,,,,,,,,,,,,0,0,0,0,0,15,15,15,,,,,,,,,,,,,,,,,,,,,,,,,,,,,,,,,,,,,,,,,,,,,,,,,,,,,,,,,,,,,,,,,,,,,,,,,,,,,,,,,,,,,,,,,,,,,,,,,,,,,689.317197244,692.325590682,,,,,031722,2,3,0,1,0,1,2,0,62,2022_Mar_17_1320,listening_fmri,3.2.4,60.29512086036776,
3,parcelated_audio/11/11_17.ogg,,,,,,,,,0,0,0,0,0,3,3,3,0,0,0,0,,,,,,,,,,,,,0,0,0,0,0,16,16,16,,,,,,,,,,,,,,,,,,,,,,,,,,,,,,,,,,,,,,,,,,,,,,,,,,,,,,,,,,,,,,,,,,,,,,,,,,,,,,,,,,,,,,,,,,,,,,,,,,,,,692.3267867909999,699.3058161589997,,,,,031722,2,3,0,1,0,1,2,0,62,2022_Mar_17_1320,listening_fmri,3.2.4,60.29512086036776,
3,parcelated_audio/11/11_18.ogg,,,,,,,,,0,0,0,0,0,3,3,3,0,0,0,0,,,,,,,,,,,,,0,0,0,0,0,17,17,17,,,,,,,,,,,,,,,,,,,,,,,,,,,,,,,,,,,,,,,,,,,,,,,,,,,,,,,,,,,,,,,,,,,,,,,,,,,,,,,,,,,,,,,,,,,,,,,,,,,,,699.3061917340001,706.7683366799997,,,,,031722,2,3,0,1,0,1,2,0,62,2022_Mar_17_1320,listening_fmri,3.2.4,60.29512086036776,
3,parcelated_audio/11/11_19.ogg,,,,,,,,,0,0,0,0,0,3,3,3,0,0,0,0,,,,,,,,,,,,,0,0,0,0,0,18,18,18,,,,,,,,,,,,,,,,,,,,,,,,,,,,,,,,,,,,,,,,,,,,,,,,,,,,,,,,,,,,,,,,,,,,,,,,,,,,,,,,,,,,,,,,,,,,,,,,,,,,,706.7697529489997,711.449972548,,,,,031722,2,3,0,1,0,1,2,0,62,2022_Mar_17_1320,listening_fmri,3.2.4,60.29512086036776,
3,parcelated_audio/11/11_20.ogg,,,,,,,,,0,0,0,0,0,3,3,3,0,0,0,0,,,,,,,,,,,,,0,0,0,0,0,19,19,19,,,,,,,,,,,,,,,,,,,,,,,,,,,,,,,,,,,,,,,,,,,,,,,,,,,,,,,,,,,,,,,,,,,,,,,,,,,,,,,,,,,,,,,,,,,,,,,,,,,,,711.4514353649997,716.3876866579999,,,,,031722,2,3,0,1,0,1,2,0,62,2022_Mar_17_1320,listening_fmri,3.2.4,60.29512086036776,
3,parcelated_audio/11/11_21.ogg,,,,,,,,,0,0,0,0,0,3,3,3,0,0,0,0,,,,,,,,,,,,,0,0,0,0,0,20,20,20,,,,,,,,,,,,,,,,,,,,,,,,,,,,,,,,,,,,,,,,,,,,,,,,,,,,,,,,,,,,,,,,,,,,,,,,,,,,,,,,,,,,,,,,,,,,,,,,,,,,,716.3880421599997,725.1788122620001,,,,,031722,2,3,0,1,0,1,2,0,62,2022_Mar_17_1320,listening_fmri,3.2.4,60.29512086036776,
3,parcelated_audio/11/11_22.ogg,,,,,,,,,0,0,0,0,0,3,3,3,0,0,0,0,,,,,,,,,,,,,0,0,0,0,0,21,21,21,,,,,,,,,,,,,,,,,,,,,,,,,,,,,,,,,,,,,,,,,,,,,,,,,,,,,,,,,,,,,,,,,,,,,,,,,,,,,,,,,,,,,,,,,,,,,,,,,,,,,725.1792674409999,728.486720078,,,,,031722,2,3,0,1,0,1,2,0,62,2022_Mar_17_1320,listening_fmri,3.2.4,60.29512086036776,
3,parcelated_audio/11/11_23.ogg,,,,,,,,,0,0,0,0,0,3,3,3,0,0,0,0,,,,,,,,,,,,,0,0,0,0,0,22,22,22,,,,,,,,,,,,,,,,,,,,,,,,,,,,,,,,,,,,,,,,,,,,,,,,,,,,,,,,,,,,,,,,,,,,,,,,,,,,,,,,,,,,,,,,,,,,,,,,,,,,,728.4870837909998,733.2941425559998,,,,,031722,2,3,0,1,0,1,2,0,62,2022_Mar_17_1320,listening_fmri,3.2.4,60.29512086036776,
3,parcelated_audio/11/11_24.ogg,,,,,,,,,0,0,0,0,0,3,3,3,0,0,0,0,,,,,,,,,,,,,0,0,0,0,0,23,23,23,,,,,,,,,,,,,,,,,,,,,,,,,,,,,,,,,,,,,,,,,,,,,,,,,,,,,,,,,,,,,,,,,,,,,,,,,,,,,,,,,,,,,,,,,,,,,,,,,,,,,733.2944411779999,736.9092027399997,,,,,031722,2,3,0,1,0,1,2,0,62,2022_Mar_17_1320,listening_fmri,3.2.4,60.29512086036776,
3,parcelated_audio/11/11_25.ogg,,,,,,,,,0,0,0,0,0,3,3,3,0,0,0,0,,,,,,,,,,,,,0,0,0,0,0,24,24,24,,,,,,,,,,,,,,,,,,,,,,,,,,,,,,,,,,,,,,,,,,,,,,,,,,,,,,,,,,,,,,,,,,,,,,,,,,,,,,,,,,,,,,,,,,,,,,,,,,,,,736.909642647,741.660734388,,,,,031722,2,3,0,1,0,1,2,0,62,2022_Mar_17_1320,listening_fmri,3.2.4,60.29512086036776,
3,parcelated_audio/11/11_26.ogg,,,,,,,,,0,0,0,0,0,3,3,3,0,0,0,0,,,,,,,,,,,,,0,0,0,0,0,25,25,25,,,,,,,,,,,,,,,,,,,,,,,,,,,,,,,,,,,,,,,,,,,,,,,,,,,,,,,,,,,,,,,,,,,,,,,,,,,,,,,,,,,,,,,,,,,,,,,,,,,,,741.6610926779999,746.661649438,,,,,031722,2,3,0,1,0,1,2,0,62,2022_Mar_17_1320,listening_fmri,3.2.4,60.29512086036776,
3,parcelated_audio/11/11_27.ogg,,,,,,,,,0,0,0,0,0,3,3,3,0,0,0,0,,,,,,,,,,,,,0,0,0,0,0,26,26,26,,,,,,,,,,,,,,,,,,,,,,,,,,,,,,,,,,,,,,,,,,,,,,,,,,,,,,,,,,,,,,,,,,,,,,,,,,,,,,,,,,,,,,,,,,,,,,,,,,,,,746.662014127,750.6455781719997,,,,,031722,2,3,0,1,0,1,2,0,62,2022_Mar_17_1320,listening_fmri,3.2.4,60.29512086036776,
3,parcelated_audio/11/11_28.ogg,,,,,,,,,0,0,0,0,0,3,3,3,0,0,0,0,,,,,,,,,,,,,0,0,0,0,0,27,27,27,,,,,,,,,,,,,,,,,,,,,,,,,,,,,,,,,,,,,,,,,,,,,,,,,,,,,,,,,,,,,,,,,,,,,,,,,,,,,,,,,,,,,,,,,,,,,,,,,,,,,750.646037386,754.084581826,,,,,031722,2,3,0,1,0,1,2,0,62,2022_Mar_17_1320,listening_fmri,3.2.4,60.29512086036776,
3,parcelated_audio/11/11_29.ogg,,,,,,,,,0,0,0,0,0,3,3,3,0,0,0,0,,,,,,,,,,,,,0,0,0,0,0,28,28,28,,,,,,,,,,,,,,,,,,,,,,,,,,,,,,,,,,,,,,,,,,,,,,,,,,,,,,,,,,,,,,,,,,,,,,,,,,,,,,,,,,,,,,,,,,,,,,,,,,,,,754.084938895,758.272839797,,,,,031722,2,3,0,1,0,1,2,0,62,2022_Mar_17_1320,listening_fmri,3.2.4,60.29512086036776,
3,parcelated_audio/11/11_30.ogg,,,,,,,,,0,0,0,0,0,3,3,3,0,0,0,0,,,,,,,,,,,,,0,0,0,0,0,29,29,29,,,,,,,,,,,,,,,,,,,,,,,,,,,,,,,,,,,,,,,,,,,,,,,,,,,,,,,,,,,,,,,,,,,,,,,,,,,,,,,,,,,,,,,,,,,,,,,,,,,,,758.2731913089997,762.7843680749997,,,,,031722,2,3,0,1,0,1,2,0,62,2022_Mar_17_1320,listening_fmri,3.2.4,60.29512086036776,
3,parcelated_audio/11/11_31.ogg,,,,,,,,,0,0,0,0,0,3,3,3,0,0,0,0,,,,,,,,,,,,,0,0,0,0,0,30,30,30,,,,,,,,,,,,,,,,,,,,,,,,,,,,,,,,,,,,,,,,,,,,,,,,,,,,,,,,,,,,,,,,,,,,,,,,,,,,,,,,,,,,,,,,,,,,,,,,,,,,,762.7847863930001,767.6408240799997,,,,,031722,2,3,0,1,0,1,2,0,62,2022_Mar_17_1320,listening_fmri,3.2.4,60.29512086036776,
3,parcelated_audio/11/11_32.ogg,,,,,,,,,0,0,0,0,0,3,3,3,0,0,0,0,,,,,,,,,,,,,0,0,0,0,0,31,31,31,,,,,,,,,,,,,,,,,,,,,,,,,,,,,,,,,,,,,,,,,,,,,,,,,,,,,,,,,,,,,,,,,,,,,,,,,,,,,,,,,,,,,,,,,,,,,,,,,,,,,767.6418867550001,771.7122486379999,,,,,031722,2,3,0,1,0,1,2,0,62,2022_Mar_17_1320,listening_fmri,3.2.4,60.29512086036776,
3,parcelated_audio/11/11_33.ogg,,,,,,,,,0,0,0,0,0,3,3,3,0,0,0,0,,,,,,,,,,,,,0,0,0,0,0,32,32,32,,,,,,,,,,,,,,,,,,,,,,,,,,,,,,,,,,,,,,,,,,,,,,,,,,,,,,,,,,,,,,,,,,,,,,,,,,,,,,,,,,,,,,,,,,,,,,,,,,,,,771.712606955,774.2482197859999,,,,,031722,2,3,0,1,0,1,2,0,62,2022_Mar_17_1320,listening_fmri,3.2.4,60.29512086036776,
3,parcelated_audio/11/11_34.ogg,,,,,,,,,0,0,0,0,0,3,3,3,0,0,0,0,,,,,,,,,,,,,0,0,0,0,0,33,33,33,,,,,,,,,,,,,,,,,,,,,,,,,,,,,,,,,,,,,,,,,,,,,,,,,,,,,,,,,,,,,,,,,,,,,,,,,,,,,,,,,,,,,,,,,,,,,,,,,,,,,774.248592123,777.5656091840001,,,,,031722,2,3,0,1,0,1,2,0,62,2022_Mar_17_1320,listening_fmri,3.2.4,60.29512086036776,
3,parcelated_audio/11/11_35.ogg,,,,,,,,,0,0,0,0,0,3,3,3,0,0,0,0,,,,,,,,,,,,,0,0,0,0,0,34,34,34,,,,,,,,,,,,,,,,,,,,,,,,,,,,,,,,,,,,,,,,,,,,,,,,,,,,,,,,,,,,,,,,,,,,,,,,,,,,,,,,,,,,,,,,,,,,,,,,,,,,,777.5660930059998,781.94263791,,,,,031722,2,3,0,1,0,1,2,0,62,2022_Mar_17_1320,listening_fmri,3.2.4,60.29512086036776,
3,parcelated_audio/11/11_36.ogg,,,,,,,,,0,0,0,0,0,3,3,3,0,0,0,0,,,,,,,,,,,,,0,0,0,0,0,35,35,35,,,,,,,,,,,,,,,,,,,,,,,,,,,,,,,,,,,,,,,,,,,,,,,,,,,,,,,,,,,,,,,,,,,,,,,,,,,,,,,,,,,,,,,,,,,,,,,,,,,,,781.9430210609999,790.96566687,,,,,031722,2,3,0,1,0,1,2,0,62,2022_Mar_17_1320,listening_fmri,3.2.4,60.29512086036776,
3,parcelated_audio/11/11_37.ogg,,,,,,,,,0,0,0,0,0,3,3,3,0,0,0,0,,,,,,,,,,,,,0,0,0,0,0,36,36,36,,,,,,,,,,,,,,,,,,,,,,,,,,,,,,,,,,,,,,,,,,,,,,,,,,,,,,,,,,,,,,,,,,,,,,,,,,,,,,,,,,,,,,,,,,,,,,,,,,,,,790.9660280999997,795.1518113819998,,,,,031722,2,3,0,1,0,1,2,0,62,2022_Mar_17_1320,listening_fmri,3.2.4,60.29512086036776,
3,parcelated_audio/11/11_38.ogg,,,,,,,,,0,0,0,0,0,3,3,3,0,0,0,0,,,,,,,,,,,,,0,0,0,0,0,37,37,37,,,,,,,,,,,,,,,,,,,,,,,,,,,,,,,,,,,,,,,,,,,,,,,,,,,,,,,,,,,,,,,,,,,,,,,,,,,,,,,,,,,,,,,,,,,,,,,,,,,,,795.1523742549998,801.3337008230001,,,,,031722,2,3,0,1,0,1,2,0,62,2022_Mar_17_1320,listening_fmri,3.2.4,60.29512086036776,
3,parcelated_audio/11/11_39.ogg,,,,,,,,,0,0,0,0,0,3,3,3,0,0,0,0,,,,,,,,,,,,,0,0,0,0,0,38,38,38,,,,,,,,,,,,,,,,,,,,,,,,,,,,,,,,,,,,,,,,,,,,,,,,,,,,,,,,,,,,,,,,,,,,,,,,,,,,,,,,,,,,,,,,,,,,,,,,,,,,,801.3340876769998,806.528810277,,,,,031722,2,3,0,1,0,1,2,0,62,2022_Mar_17_1320,listening_fmri,3.2.4,60.29512086036776,
3,parcelated_audio/11/11_40.ogg,,,,,,,,,0,0,0,0,0,3,3,3,0,0,0,0,,,,,,,,,,,,,0,0,0,0,0,39,39,39,,,,,,,,,,,,,,,,,,,,,,,,,,,,,,,,,,,,,,,,,,,,,,,,,,,,,,,,,,,,,,,,,,,,,,,,,,,,,,,,,,,,,,,,,,,,,,,,,,,,,806.5290936739998,812.2003013099998,,,,,031722,2,3,0,1,0,1,2,0,62,2022_Mar_17_1320,listening_fmri,3.2.4,60.29512086036776,
3,parcelated_audio/11/11_41.ogg,,,,,,,,,0,0,0,0,0,3,3,3,0,0,0,0,,,,,,,,,,,,,0,0,0,0,0,40,40,40,,,,,,,,,,,,,,,,,,,,,,,,,,,,,,,,,,,,,,,,,,,,,,,,,,,,,,,,,,,,,,,,,,,,,,,,,,,,,,,,,,,,,,,,,,,,,,,,,,,,,812.200677589,818.36592415,,,,,031722,2,3,0,1,0,1,2,0,62,2022_Mar_17_1320,listening_fmri,3.2.4,60.29512086036776,
3,,,,,,,,,,0,0,0,0,0,3,3,3,0,0,0,0,,,,,,,,,,,,,0,0,0,0,,,,,,,,,,,,,,,,,,,,,,,,,,,,,,,,,,,,,,,,,,,,,,,,,,,,,,,,,,,,,,,,,,,,,,,,,,,,,,,,,,,,,,,,,,,,,,,,,,,,,,,,,,,,,,,031722,2,3,0,1,0,1,2,0,62,2022_Mar_17_1320,listening_fmri,3.2.4,60.29512086036776,
,,,,,,,,,,,,,,,,,,,,,,,,,,,,,,,,,,,,,,,,,,,,,,,,,,,,,,,,,,,818.36637053,824.358905346,866.2736868870002,None,,,,,,,,,,,,,,,,,,,,,,,,,,,,,,,,,,,,,,,,,,,,,,,,,,,,,,,,,,,,,,,,,,,,,,,,,,,,,,,,,,872.2902964959999,None,872.2902964959999,None,,,,,,,,,,,,,,,
﻿count,audio,trials_14.thisRepN,trials_14.thisTrialN,trials_14.thisN,trials_14.thisIndex,trials_3.thisRepN,trials_3.thisTrialN,trials_3.thisN,trials_3.thisIndex,trials_4.thisRepN,trials_4.thisTrialN,trials_4.thisN,trials_4.thisIndex,trials_6.thisRepN,trials_6.thisTrialN,trials_6.thisN,trials_6.thisIndex,trials_9.thisRepN,trials_9.thisTrialN,trials_9.thisN,trials_9.thisIndex,trials_10.thisRepN,trials_10.thisTrialN,trials_10.thisN,trials_10.thisIndex,trials_11.thisRepN,trials_11.thisTrialN,trials_11.thisN,trials_11.thisIndex,trials_12.thisRepN,trials_12.thisTrialN,trials_12.thisN,trials_12.thisIndex,trials_25.thisRepN,trials_25.thisTrialN,trials_25.thisN,trials_25.thisIndex,trials_15.thisRepN,trials_15.thisTrialN,trials_15.thisN,trials_15.thisIndex,trials_26.thisRepN,trials_26.thisTrialN,trials_26.thisN,trials_26.thisIndex,story_list_block2,action_list_block2,textTrigger.started,textTrigger.stopped,getTrigger.keys,getTrigger.rt,getTrigger.started,getTrigger.stopped,triggerTime,text_76.started,text_76.stopped,text_77.started,text_77.stopped,startWait,endWait,image_23.started,image_23.stopped,text_55.started,text_55.stopped,text_56.started,text_56.stopped,key_resp_2.keys,key_resp_2.rt,key_resp_2.started,key_resp_2.stopped,text_82.started,text_82.stopped,text_57.started,text_57.stopped,key_resp_17.keys,key_resp_17.rt,key_resp_17.started,key_resp_17.stopped,text_83.started,text_83.stopped,text_60.started,text_60.stopped,image_2.started,image_2.stopped,text_58.started,text_58.stopped,key_resp_23.keys,key_resp_23.rt,key_resp_23.started,key_resp_23.stopped,text_62.started,text_62.stopped,key_resp_18.keys,key_resp_18.rt,key_resp_18.started,key_resp_18.stopped,text_84.started,text_84.stopped,question1_2.started,question1_2.stopped,question2_2.started,question2_2.stopped,question3_2.started,question3_2.stopped,question4_2.started,question4_2.stopped,question5_2.started,question5_2.stopped,question6_2.started,question6_2.stopped,image_15.started,image_15.stopped,key_resp.keys,key_resp.started,key_resp.stopped,text_59.started,text_59.stopped,key_resp_19.keys,key_resp_19.rt,key_resp_19.started,key_resp_19.stopped,text_85.started,text_85.stopped,text_61.started,text_61.stopped,image_17.started,image_17.stopped,text_63.started,text_63.stopped,key_resp_24.keys,key_resp_24.rt,key_resp_24.started,key_resp_24.stopped,text_64.started,text_64.stopped,key_resp_20.keys,key_resp_20.rt,key_resp_20.started,key_resp_20.stopped,storyImage_StartTime,storyImage_EndTime,clip_StartTime,clip_EndTime,text_67.started,text_67.stopped,text_68.started,text_68.stopped,participant,sA,sB,lA,lB,block_struct,play_stories,block,behavioral,random_seed,date,expName,psychopyVersion,frameRate,
0,,,,,,,,,,0,0,0,0,0,0,0,0,,,,,,,,,,,,,,,,,,,,,,,,,,,,,[42 33 13 11 22 24 44 31],[3 1 4 2 2 4 1 3],15.859340700000303,None,equal,32.03437529199982,15.859340700000303,None,32.05979642500006,15.859340700000303,None,15.859340700000303,None,0.00038347300005625584,5.998746427999777,47.91757142100005,None,,,,,,,,,,,,,,,,,,,,,,,,,,,,,,,,,,,,,,,,,,,,,,,,,,,,,,,,,,,,,,,,,,,,,,,,,,,,,,,,,,,,,,031722,2,3,0,1,0,1,2,0,62,2022_Mar_17_1320,listening_fmri,3.2.4,60.29512086036776,
1,,,,,,,,,,0,0,0,0,0,1,1,1,0,0,0,0,0,0,0,0,0,0,0,0,,,,,,,,,,,,,,,,,,,,,,,,,,,,,,,,,,53.925880229000086,None,53.925880229000086,None,8,1.7199046830000952,53.925880229000086,None,53.925880229000086,None,55.675945613000295,None,2,1.2299167999999554,55.675945613000295,None,55.675945613000295,None,56.94276481199995,None,56.94276481199995,None,56.94276481199995,None,7,1.010090886999933,56.94276481199995,None,57.976367006000146,None,7,7.31545650399994,57.976367006000146,None,57.976367006000146,None,65.3840010050003,None,65.3840010050003,None,65.3840010050003,None,65.3840010050003,None,65.3840010050003,None,65.3840010050003,None,65.3840010050003,None,None,65.3840010050003,None,,,,,,,,,,,,,,,,,,,,,,,,,,,,,,,,,031722,2,3,0,1,0,1,2,0,62,2022_Mar_17_1320,listening_fmri,3.2.4,60.29512086036776,
1,,,,,,,,,,0,0,0,0,0,1,1,1,0,0,0,0,0,0,0,0,,,,,,,,,,,,,,,,,,,,,,,,,,,,,,,,,,,,,,,,,,,,,,,,,,,,,,,,,,,,,,,,,,,,,,,,,,,,,,,,,,,,,,,,,,,90.69256671799985,None,2,2.117246054000134,90.69256671799985,None,90.69256671799985,None,92.8428654270001,None,92.8428654270001,None,92.8428654270001,None,2,2.171911178999835,92.8428654270001,None,,,,,,,,,,,,,,,031722,2,3,0,1,0,1,2,0,62,2022_Mar_17_1320,listening_fmri,3.2.4,60.29512086036776,
1,parcelated_audio/33/33_1.ogg,,,,,,,,,0,0,0,0,0,1,1,1,0,0,0,0,,,,,,,,,,,,,0,0,0,0,0,0,0,0,,,,,,,,,,,,,,,,,,,,,,,,,,,,,,,,,,,,,,,,,,,,,,,,,,,,,,,,,,,,,,,,,,,,,,,,,,,,,,,,,,,,,,,,,,,,,95.04288281500021,None,2,2.3248619340001824,95.04288281500021,None,49.48217959299973,52.49112563599965,52.49784213599969,62.47881103899999,,,,,031722,2,3,0,1,0,1,2,0,62,2022_Mar_17_1320,listening_fmri,3.2.4,60.29512086036776,
1,parcelated_audio/33/33_2.ogg,,,,,,,,,0,0,0,0,0,1,1,1,0,0,0,0,,,,,,,,,,,,,0,0,0,0,0,1,1,1,,,,,,,,,,,,,,,,,,,,,,,,,,,,,,,,,,,,,,,,,,,,,,,,,,,,,,,,,,,,,,,,,,,,,,,,,,,,,,,,,,,,,,,,,,,,,,,,,,,,,62.480003934999786,72.93624533599996,,,,,031722,2,3,0,1,0,1,2,0,62,2022_Mar_17_1320,listening_fmri,3.2.4,60.29512086036776,
1,parcelated_audio/33/33_3.ogg,,,,,,,,,0,0,0,0,0,1,1,1,0,0,0,0,,,,,,,,,,,,,0,0,0,0,0,2,2,2,,,,,,,,,,,,,,,,,,,,,,,,,,,,,,,,,,,,,,,,,,,,,,,,,,,,,,,,,,,,,,,,,,,,,,,,,,,,,,,,,,,,,,,,,,,,,,,,,,,,,72.9368129659997,79.49397489099965,,,,,031722,2,3,0,1,0,1,2,0,62,2022_Mar_17_1320,listening_fmri,3.2.4,60.29512086036776,
1,parcelated_audio/33/33_4.ogg,,,,,,,,,0,0,0,0,0,1,1,1,0,0,0,0,,,,,,,,,,,,,0,0,0,0,0,3,3,3,,,,,,,,,,,,,,,,,,,,,,,,,,,,,,,,,,,,,,,,,,,,,,,,,,,,,,,,,,,,,,,,,,,,,,,,,,,,,,,,,,,,,,,,,,,,,,,,,,,,,79.4943199129998,83.08785479700009,,,,,031722,2,3,0,1,0,1,2,0,62,2022_Mar_17_1320,listening_fmri,3.2.4,60.29512086036776,
1,parcelated_audio/33/33_5.ogg,,,,,,,,,0,0,0,0,0,1,1,1,0,0,0,0,,,,,,,,,,,,,0,0,0,0,0,4,4,4,,,,,,,,,,,,,,,,,,,,,,,,,,,,,,,,,,,,,,,,,,,,,,,,,,,,,,,,,,,,,,,,,,,,,,,,,,,,,,,,,,,,,,,,,,,,,,,,,,,,,83.08843333599998,94.3495051609998,,,,,031722,2,3,0,1,0,1,2,0,62,2022_Mar_17_1320,listening_fmri,3.2.4,60.29512086036776,
1,parcelated_audio/33/33_6.ogg,,,,,,,,,0,0,0,0,0,1,1,1,0,0,0,0,,,,,,,,,,,,,0,0,0,0,0,5,5,5,,,,,,,,,,,,,,,,,,,,,,,,,,,,,,,,,,,,,,,,,,,,,,,,,,,,,,,,,,,,,,,,,,,,,,,,,,,,,,,,,,,,,,,,,,,,,,,,,,,,,94.34986034899975,106.06068866199985,,,,,031722,2,3,0,1,0,1,2,0,62,2022_Mar_17_1320,listening_fmri,3.2.4,60.29512086036776,
1,parcelated_audio/33/33_7.ogg,,,,,,,,,0,0,0,0,0,1,1,1,0,0,0,0,,,,,,,,,,,,,0,0,0,0,0,6,6,6,,,,,,,,,,,,,,,,,,,,,,,,,,,,,,,,,,,,,,,,,,,,,,,,,,,,,,,,,,,,,,,,,,,,,,,,,,,,,,,,,,,,,,,,,,,,,,,,,,,,,106.06104598699994,120.63764595099974,,,,,031722,2,3,0,1,0,1,2,0,62,2022_Mar_17_1320,listening_fmri,3.2.4,60.29512086036776,
1,parcelated_audio/33/33_8.ogg,,,,,,,,,0,0,0,0,0,1,1,1,0,0,0,0,,,,,,,,,,,,,0,0,0,0,0,7,7,7,,,,,,,,,,,,,,,,,,,,,,,,,,,,,,,,,,,,,,,,,,,,,,,,,,,,,,,,,,,,,,,,,,,,,,,,,,,,,,,,,,,,,,,,,,,,,,,,,,,,,120.6380021089999,126.78571671999998,,,,,031722,2,3,0,1,0,1,2,0,62,2022_Mar_17_1320,listening_fmri,3.2.4,60.29512086036776,
1,parcelated_audio/33/33_9.ogg,,,,,,,,,0,0,0,0,0,1,1,1,0,0,0,0,,,,,,,,,,,,,0,0,0,0,0,8,8,8,,,,,,,,,,,,,,,,,,,,,,,,,,,,,,,,,,,,,,,,,,,,,,,,,,,,,,,,,,,,,,,,,,,,,,,,,,,,,,,,,,,,,,,,,,,,,,,,,,,,,126.78608620499972,130.494729817,,,,,031722,2,3,0,1,0,1,2,0,62,2022_Mar_17_1320,listening_fmri,3.2.4,60.29512086036776,
1,parcelated_audio/33/33_10.ogg,,,,,,,,,0,0,0,0,0,1,1,1,0,0,0,0,,,,,,,,,,,,,0,0,0,0,0,9,9,9,,,,,,,,,,,,,,,,,,,,,,,,,,,,,,,,,,,,,,,,,,,,,,,,,,,,,,,,,,,,,,,,,,,,,,,,,,,,,,,,,,,,,,,,,,,,,,,,,,,,,130.4952747110001,135.86674073999984,,,,,031722,2,3,0,1,0,1,2,0,62,2022_Mar_17_1320,listening_fmri,3.2.4,60.29512086036776,
1,parcelated_audio/33/33_11.ogg,,,,,,,,,0,0,0,0,0,1,1,1,0,0,0,0,,,,,,,,,,,,,0,0,0,0,0,10,10,10,,,,,,,,,,,,,,,,,,,,,,,,,,,,,,,,,,,,,,,,,,,,,,,,,,,,,,,,,,,,,,,,,,,,,,,,,,,,,,,,,,,,,,,,,,,,,,,,,,,,,135.86714555199978,150.30352232699988,,,,,031722,2,3,0,1,0,1,2,0,62,2022_Mar_17_1320,listening_fmri,3.2.4,60.29512086036776,
1,parcelated_audio/33/33_12.ogg,,,,,,,,,0,0,0,0,0,1,1,1,0,0,0,0,,,,,,,,,,,,,0,0,0,0,0,11,11,11,,,,,,,,,,,,,,,,,,,,,,,,,,,,,,,,,,,,,,,,,,,,,,,,,,,,,,,,,,,,,,,,,,,,,,,,,,,,,,,,,,,,,,,,,,,,,,,,,,,,,150.3038595359999,156.4206656839997,,,,,031722,2,3,0,1,0,1,2,0,62,2022_Mar_17_1320,listening_fmri,3.2.4,60.29512086036776,
1,parcelated_audio/33/33_13.ogg,,,,,,,,,0,0,0,0,0,1,1,1,0,0,0,0,,,,,,,,,,,,,0,0,0,0,0,12,12,12,,,,,,,,,,,,,,,,,,,,,,,,,,,,,,,,,,,,,,,,,,,,,,,,,,,,,,,,,,,,,,,,,,,,,,,,,,,,,,,,,,,,,,,,,,,,,,,,,,,,,156.4210268859997,163.85516881600006,,,,,031722,2,3,0,1,0,1,2,0,62,2022_Mar_17_1320,listening_fmri,3.2.4,60.29512086036776,
1,parcelated_audio/33/33_14.ogg,,,,,,,,,0,0,0,0,0,1,1,1,0,0,0,0,,,,,,,,,,,,,0,0,0,0,0,13,13,13,,,,,,,,,,,,,,,,,,,,,,,,,,,,,,,,,,,,,,,,,,,,,,,,,,,,,,,,,,,,,,,,,,,,,,,,,,,,,,,,,,,,,,,,,,,,,,,,,,,,,163.85552694199987,176.29974700999992,,,,,031722,2,3,0,1,0,1,2,0,62,2022_Mar_17_1320,listening_fmri,3.2.4,60.29512086036776,
1,parcelated_audio/33/33_15.ogg,,,,,,,,,0,0,0,0,0,1,1,1,0,0,0,0,,,,,,,,,,,,,0,0,0,0,0,14,14,14,,,,,,,,,,,,,,,,,,,,,,,,,,,,,,,,,,,,,,,,,,,,,,,,,,,,,,,,,,,,,,,,,,,,,,,,,,,,,,,,,,,,,,,,,,,,,,,,,,,,,176.30020775100002,194.84296870499975,,,,,031722,2,3,0,1,0,1,2,0,62,2022_Mar_17_1320,listening_fmri,3.2.4,60.29512086036776,
1,parcelated_audio/33/33_16.ogg,,,,,,,,,0,0,0,0,0,1,1,1,0,0,0,0,,,,,,,,,,,,,0,0,0,0,0,15,15,15,,,,,,,,,,,,,,,,,,,,,,,,,,,,,,,,,,,,,,,,,,,,,,,,,,,,,,,,,,,,,,,,,,,,,,,,,,,,,,,,,,,,,,,,,,,,,,,,,,,,,194.84332583700007,207.07679914799974,,,,,031722,2,3,0,1,0,1,2,0,62,2022_Mar_17_1320,listening_fmri,3.2.4,60.29512086036776,
1,parcelated_audio/33/33_17.ogg,,,,,,,,,0,0,0,0,0,1,1,1,0,0,0,0,,,,,,,,,,,,,0,0,0,0,0,16,16,16,,,,,,,,,,,,,,,,,,,,,,,,,,,,,,,,,,,,,,,,,,,,,,,,,,,,,,,,,,,,,,,,,,,,,,,,,,,,,,,,,,,,,,,,,,,,,,,,,,,,,207.07726482299995,218.30182149799975,,,,,031722,2,3,0,1,0,1,2,0,62,2022_Mar_17_1320,listening_fmri,3.2.4,60.29512086036776,
1,parcelated_audio/33/33_18.ogg,,,,,,,,,0,0,0,0,0,1,1,1,0,0,0,0,,,,,,,,,,,,,0,0,0,0,0,17,17,17,,,,,,,,,,,,,,,,,,,,,,,,,,,,,,,,,,,,,,,,,,,,,,,,,,,,,,,,,,,,,,,,,,,,,,,,,,,,,,,,,,,,,,,,,,,,,,,,,,,,,218.3022740030001,226.87748910799974,,,,,031722,2,3,0,1,0,1,2,0,62,2022_Mar_17_1320,listening_fmri,3.2.4,60.29512086036776,
1,parcelated_audio/33/33_19.ogg,,,,,,,,,0,0,0,0,0,1,1,1,0,0,0,0,,,,,,,,,,,,,0,0,0,0,0,18,18,18,,,,,,,,,,,,,,,,,,,,,,,,,,,,,,,,,,,,,,,,,,,,,,,,,,,,,,,,,,,,,,,,,,,,,,,,,,,,,,,,,,,,,,,,,,,,,,,,,,,,,226.87785151399976,230.33120686499979,,,,,031722,2,3,0,1,0,1,2,0,62,2022_Mar_17_1320,listening_fmri,3.2.4,60.29512086036776,
1,parcelated_audio/33/33_20.ogg,,,,,,,,,0,0,0,0,0,1,1,1,0,0,0,0,,,,,,,,,,,,,0,0,0,0,0,19,19,19,,,,,,,,,,,,,,,,,,,,,,,,,,,,,,,,,,,,,,,,,,,,,,,,,,,,,,,,,,,,,,,,,,,,,,,,,,,,,,,,,,,,,,,,,,,,,,,,,,,,,230.33166697399975,237.22088672900009,,,,,031722,2,3,0,1,0,1,2,0,62,2022_Mar_17_1320,listening_fmri,3.2.4,60.29512086036776,
1,parcelated_audio/33/33_21.ogg,,,,,,,,,0,0,0,0,0,1,1,1,0,0,0,0,,,,,,,,,,,,,0,0,0,0,0,20,20,20,,,,,,,,,,,,,,,,,,,,,,,,,,,,,,,,,,,,,,,,,,,,,,,,,,,,,,,,,,,,,,,,,,,,,,,,,,,,,,,,,,,,,,,,,,,,,,,,,,,,,237.221255293,241.2707432909997,,,,,031722,2,3,0,1,0,1,2,0,62,2022_Mar_17_1320,listening_fmri,3.2.4,60.29512086036776,
1,parcelated_audio/33/33_22.ogg,,,,,,,,,0,0,0,0,0,1,1,1,0,0,0,0,,,,,,,,,,,,,0,0,0,0,0,21,21,21,,,,,,,,,,,,,,,,,,,,,,,,,,,,,,,,,,,,,,,,,,,,,,,,,,,,,,,,,,,,,,,,,,,,,,,,,,,,,,,,,,,,,,,,,,,,,,,,,,,,,241.27110496499972,253.0950799039997,,,,,031722,2,3,0,1,0,1,2,0,62,2022_Mar_17_1320,listening_fmri,3.2.4,60.29512086036776,
1,parcelated_audio/33/33_23.ogg,,,,,,,,,0,0,0,0,0,1,1,1,0,0,0,0,,,,,,,,,,,,,0,0,0,0,0,22,22,22,,,,,,,,,,,,,,,,,,,,,,,,,,,,,,,,,,,,,,,,,,,,,,,,,,,,,,,,,,,,,,,,,,,,,,,,,,,,,,,,,,,,,,,,,,,,,,,,,,,,,253.09544205299972,263.60010818599994,,,,,031722,2,3,0,1,0,1,2,0,62,2022_Mar_17_1320,listening_fmri,3.2.4,60.29512086036776,
1,parcelated_audio/33/33_24.ogg,,,,,,,,,0,0,0,0,0,1,1,1,0,0,0,0,,,,,,,,,,,,,0,0,0,0,0,23,23,23,,,,,,,,,,,,,,,,,,,,,,,,,,,,,,,,,,,,,,,,,,,,,,,,,,,,,,,,,,,,,,,,,,,,,,,,,,,,,,,,,,,,,,,,,,,,,,,,,,,,,263.60039827699984,269.8801401779997,,,,,031722,2,3,0,1,0,1,2,0,62,2022_Mar_17_1320,listening_fmri,3.2.4,60.29512086036776,
1,parcelated_audio/33/33_25.ogg,,,,,,,,,0,0,0,0,0,1,1,1,0,0,0,0,,,,,,,,,,,,,0,0,0,0,0,24,24,24,,,,,,,,,,,,,,,,,,,,,,,,,,,,,,,,,,,,,,,,,,,,,,,,,,,,,,,,,,,,,,,,,,,,,,,,,,,,,,,,,,,,,,,,,,,,,,,,,,,,,269.8804518510001,278.0998801239998,,,,,031722,2,3,0,1,0,1,2,0,62,2022_Mar_17_1320,listening_fmri,3.2.4,60.29512086036776,
1,parcelated_audio/33/33_26.ogg,,,,,,,,,0,0,0,0,0,1,1,1,0,0,0,0,,,,,,,,,,,,,0,0,0,0,0,25,25,25,,,,,,,,,,,,,,,,,,,,,,,,,,,,,,,,,,,,,,,,,,,,,,,,,,,,,,,,,,,,,,,,,,,,,,,,,,,,,,,,,,,,,,,,,,,,,,,,,,,,,278.1011694589997,285.1868452389999,,,,,031722,2,3,0,1,0,1,2,0,62,2022_Mar_17_1320,listening_fmri,3.2.4,60.29512086036776,
1,parcelated_audio/33/33_27.ogg,,,,,,,,,0,0,0,0,0,1,1,1,0,0,0,0,,,,,,,,,,,,,0,0,0,0,0,26,26,26,,,,,,,,,,,,,,,,,,,,,,,,,,,,,,,,,,,,,,,,,,,,,,,,,,,,,,,,,,,,,,,,,,,,,,,,,,,,,,,,,,,,,,,,,,,,,,,,,,,,,285.18795511999997,292.744354038,,,,,031722,2,3,0,1,0,1,2,0,62,2022_Mar_17_1320,listening_fmri,3.2.4,60.29512086036776,
1,parcelated_audio/33/33_28.ogg,,,,,,,,,0,0,0,0,0,1,1,1,0,0,0,0,,,,,,,,,,,,,0,0,0,0,0,27,27,27,,,,,,,,,,,,,,,,,,,,,,,,,,,,,,,,,,,,,,,,,,,,,,,,,,,,,,,,,,,,,,,,,,,,,,,,,,,,,,,,,,,,,,,,,,,,,,,,,,,,,292.745418946,298.41877973500004,,,,,031722,2,3,0,1,0,1,2,0,62,2022_Mar_17_1320,listening_fmri,3.2.4,60.29512086036776,
1,parcelated_audio/33/33_29.ogg,,,,,,,,,0,0,0,0,0,1,1,1,0,0,0,0,,,,,,,,,,,,,0,0,0,0,0,28,28,28,,,,,,,,,,,,,,,,,,,,,,,,,,,,,,,,,,,,,,,,,,,,,,,,,,,,,,,,,,,,,,,,,,,,,,,,,,,,,,,,,,,,,,,,,,,,,,,,,,,,,298.41988479099973,306.3403456010001,,,,,031722,2,3,0,1,0,1,2,0,62,2022_Mar_17_1320,listening_fmri,3.2.4,60.29512086036776,
1,parcelated_audio/33/33_30.ogg,,,,,,,,,0,0,0,0,0,1,1,1,0,0,0,0,,,,,,,,,,,,,0,0,0,0,0,29,29,29,,,,,,,,,,,,,,,,,,,,,,,,,,,,,,,,,,,,,,,,,,,,,,,,,,,,,,,,,,,,,,,,,,,,,,,,,,,,,,,,,,,,,,,,,,,,,,,,,,,,,306.34078948399974,321.32476395899994,,,,,031722,2,3,0,1,0,1,2,0,62,2022_Mar_17_1320,listening_fmri,3.2.4,60.29512086036776,
1,parcelated_audio/33/33_31.ogg,,,,,,,,,0,0,0,0,0,1,1,1,0,0,0,0,,,,,,,,,,,,,0,0,0,0,0,30,30,30,,,,,,,,,,,,,,,,,,,,,,,,,,,,,,,,,,,,,,,,,,,,,,,,,,,,,,,,,,,,,,,,,,,,,,,,,,,,,,,,,,,,,,,,,,,,,,,,,,,,,321.3251256469998,331.09076692100007,,,,,031722,2,3,0,1,0,1,2,0,62,2022_Mar_17_1320,listening_fmri,3.2.4,60.29512086036776,
1,parcelated_audio/33/33_32.ogg,,,,,,,,,0,0,0,0,0,1,1,1,0,0,0,0,,,,,,,,,,,,,0,0,0,0,0,31,31,31,,,,,,,,,,,,,,,,,,,,,,,,,,,,,,,,,,,,,,,,,,,,,,,,,,,,,,,,,,,,,,,,,,,,,,,,,,,,,,,,,,,,,,,,,,,,,,,,,,,,,331.0911293529998,336.7084688169998,,,,,031722,2,3,0,1,0,1,2,0,62,2022_Mar_17_1320,listening_fmri,3.2.4,60.29512086036776,
1,,,,,,,,,,0,0,0,0,0,1,1,1,0,0,0,0,,,,,,,,,,,,,0,0,0,0,,,,,,,,,,,,,,,,,,,,,,,,,,,,,,,,,,,,,,,,,,,,,,,,,,,,,,,,,,,,,,,,,,,,,,,,,,,,,,,,,,,,,,,,,,,,,,,,,,,,,,,,,,,,,,,031722,2,3,0,1,0,1,2,0,62,2022_Mar_17_1320,listening_fmri,3.2.4,60.29512086036776,
1,,,,,,,,,,0,0,0,0,0,1,1,1,0,0,0,0,,,,,,,,,,,,,,,,,,,,,,,,,,,,,,,,,,,,,,336.70898460599983,342.707688211,384.62644563999993,None,,,,,,,,,,,,,,,,,,,,,,,,,,,,,,,,,,,,,,,,,,,,,,,,,,,,,,,,,,,,,,,,,,,,,,,,,,,,,,,,,,390.6270033850001,None,390.6270033850001,None,031722,2,3,0,1,0,1,2,0,62,2022_Mar_17_1320,listening_fmri,3.2.4,60.29512086036776,
1,,,,,,,,,,0,0,0,0,0,1,1,1,,,,,,,,,,,,,,,,,,,,,,,,,,,,,,,,,,,,,,,,,,,,,,,,,,,,,,,,,,,,,,,,,,,,,,,,,,,,,,,,,,,,,,,,,,,,,,,,,,,,,,,,,,,,,,,,,,,,,,,,,,,,,,,,,,,031722,2,3,0,1,0,1,2,0,62,2022_Mar_17_1320,listening_fmri,3.2.4,60.29512086036776,
2,parcelated_audio/13/13_1.ogg,,,,,,,,,0,0,0,0,0,2,2,2,0,0,0,0,,,,,,,,,,,,,0,0,0,0,0,0,0,0,,,,,,,,,,,,,,,,,,,,,,391.62948919400014,None,391.62948919400014,None,8,4.060344955999881,391.62948919400014,None,391.62948919400014,None,,,,,,,,,,,,,,,,,,,,,,,,,,,,,,,,,,,,,,,,,,,,,,,,,,,,,,,,,,,,,,395.71000294800024,None,7,3.2818633960000625,395.71000294800024,None,351.1000396049999,354.10804767399986,354.11471437299997,365.80458435699984,,,,,031722,2,3,0,1,0,1,2,0,62,2022_Mar_17_1320,listening_fmri,3.2.4,60.29512086036776,
2,parcelated_audio/13/13_2.ogg,,,,,,,,,0,0,0,0,0,2,2,2,0,0,0,0,,,,,,,,,,,,,0,0,0,0,0,1,1,1,,,,,,,,,,,,,,,,,,,,,,,,,,,,,,,,,,,,,,,,,,,,,,,,,,,,,,,,,,,,,,,,,,,,,,,,,,,,,,,,,,,,,,,,,,,,,,,,,,,,,365.80494229999977,371.92361642299966,,,,,031722,2,3,0,1,0,1,2,0,62,2022_Mar_17_1320,listening_fmri,3.2.4,60.29512086036776,
2,parcelated_audio/13/13_3.ogg,,,,,,,,,0,0,0,0,0,2,2,2,0,0,0,0,,,,,,,,,,,,,0,0,0,0,0,2,2,2,,,,,,,,,,,,,,,,,,,,,,,,,,,,,,,,,,,,,,,,,,,,,,,,,,,,,,,,,,,,,,,,,,,,,,,,,,,,,,,,,,,,,,,,,,,,,,,,,,,,,371.9240040949999,380.3246170550001,,,,,031722,2,3,0,1,0,1,2,0,62,2022_Mar_17_1320,listening_fmri,3.2.4,60.29512086036776,
2,parcelated_audio/13/13_4.ogg,,,,,,,,,0,0,0,0,0,2,2,2,0,0,0,0,,,,,,,,,,,,,0,0,0,0,0,3,3,3,,,,,,,,,,,,,,,,,,,,,,,,,,,,,,,,,,,,,,,,,,,,,,,,,,,,,,,,,,,,,,,,,,,,,,,,,,,,,,,,,,,,,,,,,,,,,,,,,,,,,380.324976459,390.5876581499997,,,,,031722,2,3,0,1,0,1,2,0,62,2022_Mar_17_1320,listening_fmri,3.2.4,60.29512086036776,
2,parcelated_audio/13/13_5.ogg,,,,,,,,,0,0,0,0,0,2,2,2,0,0,0,0,,,,,,,,,,,,,0,0,0,0,0,4,4,4,,,,,,,,,,,,,,,,,,,,,,,,,,,,,,,,,,,,,,,,,,,,,,,,,,,,,,,,,,,,,,,,,,,,,,,,,,,,,,,,,,,,,,,,,,,,,,,,,,,,,390.58793811999976,396.64079291999997,,,,,031722,2,3,0,1,0,1,2,0,62,2022_Mar_17_1320,listening_fmri,3.2.4,60.29512086036776,
2,parcelated_audio/13/13_6.ogg,,,,,,,,,0,0,0,0,0,2,2,2,0,0,0,0,,,,,,,,,,,,,0,0,0,0,0,5,5,5,,,,,,,,,,,,,,,,,,,,,,,,,,,,,,,,,,,,,,,,,,,,,,,,,,,,,,,,,,,,,,,,,,,,,,,,,,,,,,,,,,,,,,,,,,,,,,,,,,,,,396.64104785599966,401.3575818700001,,,,,031722,2,3,0,1,0,1,2,0,62,2022_Mar_17_1320,listening_fmri,3.2.4,60.29512086036776,
2,parcelated_audio/13/13_7.ogg,,,,,,,,,0,0,0,0,0,2,2,2,0,0,0,0,,,,,,,,,,,,,0,0,0,0,0,6,6,6,,,,,,,,,,,,,,,,,,,,,,,,,,,,,,,,,,,,,,,,,,,,,,,,,,,,,,,,,,,,,,,,,,,,,,,,,,,,,,,,,,,,,,,,,,,,,,,,,,,,,401.35794850699995,409.0080951709997,,,,,031722,2,3,0,1,0,1,2,0,62,2022_Mar_17_1320,listening_fmri,3.2.4,60.29512086036776,
