count,audio,trials_14.thisRepN,trials_14.thisTrialN,trials_14.thisN,trials_14.thisIndex,trials_3.thisRepN,trials_3.thisTrialN,trials_3.thisN,trials_3.thisIndex,trials_4.thisRepN,trials_4.thisTrialN,trials_4.thisN,trials_4.thisIndex,trials_6.thisRepN,trials_6.thisTrialN,trials_6.thisN,trials_6.thisIndex,trials_9.thisRepN,trials_9.thisTrialN,trials_9.thisN,trials_9.thisIndex,trials_10.thisRepN,trials_10.thisTrialN,trials_10.thisN,trials_10.thisIndex,trials_11.thisRepN,trials_11.thisTrialN,trials_11.thisN,trials_11.thisIndex,trials_12.thisRepN,trials_12.thisTrialN,trials_12.thisN,trials_12.thisIndex,trials_25.thisRepN,trials_25.thisTrialN,trials_25.thisN,trials_25.thisIndex,trials_15.thisRepN,trials_15.thisTrialN,trials_15.thisN,trials_15.thisIndex,trials_26.thisRepN,trials_26.thisTrialN,trials_26.thisN,trials_26.thisIndex,story_list_block2,action_list_block2,textTrigger.started,textTrigger.stopped,getTrigger.keys,getTrigger.rt,getTrigger.started,getTrigger.stopped,triggerTime,text_76.started,text_76.stopped,text_77.started,text_77.stopped,startWait,endWait,image_23.started,image_23.stopped,text_55.started,text_55.stopped,text_56.started,text_56.stopped,key_resp_2.keys,key_resp_2.rt,key_resp_2.started,key_resp_2.stopped,text_82.started,text_82.stopped,text_57.started,text_57.stopped,key_resp_17.keys,key_resp_17.rt,key_resp_17.started,key_resp_17.stopped,text_83.started,text_83.stopped,text_60.started,text_60.stopped,image_2.started,image_2.stopped,text_58.started,text_58.stopped,key_resp_23.keys,key_resp_23.rt,key_resp_23.started,key_resp_23.stopped,text_62.started,text_62.stopped,key_resp_18.keys,key_resp_18.rt,key_resp_18.started,key_resp_18.stopped,text_84.started,text_84.stopped,question1_2.started,question1_2.stopped,question2_2.started,question2_2.stopped,question3_2.started,question3_2.stopped,question4_2.started,question4_2.stopped,question5_2.started,question5_2.stopped,question6_2.started,question6_2.stopped,image_15.started,image_15.stopped,key_resp.keys,key_resp.started,key_resp.stopped,text_59.started,text_59.stopped,key_resp_19.keys,key_resp_19.rt,key_resp_19.started,key_resp_19.stopped,text_85.started,text_85.stopped,text_61.started,text_61.stopped,image_17.started,image_17.stopped,text_63.started,text_63.stopped,key_resp_24.keys,key_resp_24.rt,key_resp_24.started,key_resp_24.stopped,text_64.started,text_64.stopped,key_resp_20.keys,key_resp_20.rt,key_resp_20.started,key_resp_20.stopped,storyImage_StartTime,storyImage_EndTime,clip_StartTime,clip_EndTime,text_67.started,text_67.stopped,text_68.started,text_68.stopped,participant,sA,sB,lA,lB,block_struct,play_stories,block,behavioral,random_seed,date,expName,psychopyVersion,frameRate,
0,,,,,,,,,,0,0,0,0,0,0,0,0,0,0,0,0,0,0,0,0,0,0,0,0,,,,,,,,,,,,,,,,,[11 44 42 31 13 22 33 24],[2 3 1 3 4 4 1 2],17.281263167999896,None,equal,27.85152203799953,17.281263167999896,None,27.86870553100016,17.281263167999896,None,17.281263167999896,None,0.0003354539994688821,5.9984919050002645,45.15385134099961,None,51.1650978079997,None,51.1650978079997,None,6,1.7926883240006646,51.1650978079997,None,51.1650978079997,None,52.98722207999981,None,6,0.7755105480000566,52.98722207999981,None,52.98722207999981,None,53.79835004500001,None,53.79835004500001,None,53.79835004500001,None,6,0.6643369429993982,53.79835004500001,None,54.487271576999774,None,6,0.5735189189999801,54.487271576999774,None,54.487271576999774,None,55.16562869500012,None,55.16562869500012,None,55.16562869500012,None,55.16562869500012,None,55.16562869500012,None,55.16562869500012,None,55.16562869500012,None,None,55.16562869500012,None,,,,,,,,,,,,,,,,,,,,,,,,,,,,,,,,,102121,2,3,0,3,0,1,2,0,66,2021_Oct_21_1427,listening_fmri,3.2.4,59.77799123537464,
0,,,,,,,,,,0,0,0,0,0,0,0,0,0,0,0,0,0,0,0,0,,,,,,,,,,,,,,,,,,,,,,,,,,,,,,,,,,,,,,,,,,,,,,,,,,,,,,,,,,,,,,,,,,,,,,,,,,,,,,,,,,,,,,,,,,,66.19810646499991,None,6,2.687748338000347,66.19810646499991,None,66.19810646499991,None,68.91500399100005,None,68.91500399100005,None,68.91500399100005,None,6,0.7127751729994998,68.91500399100005,None,,,,,,,,,,,,,,,102121,2,3,0,3,0,1,2,0,66,2021_Oct_21_1427,listening_fmri,3.2.4,59.77799123537464,
0,parcelated_audio/11/11_1.ogg,,,,,,,,,0,0,0,0,0,0,0,0,0,0,0,0,,,,,,,,,,,,,0,0,0,0,0,0,0,0,,,,,,,,,,,,,,,,,,,,,,,,,,,,,,,,,,,,,,,,,,,,,,,,,,,,,,,,,,,,,,,,,,,,,,,,,,,,,,,,,,,,,,,,,,,,,69.65387883899984,None,6,0.2248953900007109,69.65387883899984,None,24.757016818999546,27.759490675999587,27.770889972000077,39.85402171900023,,,,,102121,2,3,0,3,0,1,2,0,66,2021_Oct_21_1427,listening_fmri,3.2.4,59.77799123537464,
0,parcelated_audio/11/11_2.ogg,,,,,,,,,0,0,0,0,0,0,0,0,0,0,0,0,,,,,,,,,,,,,0,0,0,0,0,1,1,1,,,,,,,,,,,,,,,,,,,,,,,,,,,,,,,,,,,,,,,,,,,,,,,,,,,,,,,,,,,,,,,,,,,,,,,,,,,,,,,,,,,,,,,,,,,,,,,,,,,,,39.854374534999806,44.342566726999394,,,,,102121,2,3,0,3,0,1,2,0,66,2021_Oct_21_1427,listening_fmri,3.2.4,59.77799123537464,
0,parcelated_audio/11/11_3.ogg,,,,,,,,,0,0,0,0,0,0,0,0,0,0,0,0,,,,,,,,,,,,,0,0,0,0,0,2,2,2,,,,,,,,,,,,,,,,,,,,,,,,,,,,,,,,,,,,,,,,,,,,,,,,,,,,,,,,,,,,,,,,,,,,,,,,,,,,,,,,,,,,,,,,,,,,,,,,,,,,,44.342843589999575,49.33430128500004,,,,,102121,2,3,0,3,0,1,2,0,66,2021_Oct_21_1427,listening_fmri,3.2.4,59.77799123537464,
0,parcelated_audio/11/11_4.ogg,,,,,,,,,0,0,0,0,0,0,0,0,0,0,0,0,,,,,,,,,,,,,0,0,0,0,0,3,3,3,,,,,,,,,,,,,,,,,,,,,,,,,,,,,,,,,,,,,,,,,,,,,,,,,,,,,,,,,,,,,,,,,,,,,,,,,,,,,,,,,,,,,,,,,,,,,,,,,,,,,49.33460224299961,58.43146343499939,,,,,102121,2,3,0,3,0,1,2,0,66,2021_Oct_21_1427,listening_fmri,3.2.4,59.77799123537464,
0,parcelated_audio/11/11_5.ogg,,,,,,,,,0,0,0,0,0,0,0,0,0,0,0,0,,,,,,,,,,,,,0,0,0,0,0,4,4,4,,,,,,,,,,,,,,,,,,,,,,,,,,,,,,,,,,,,,,,,,,,,,,,,,,,,,,,,,,,,,,,,,,,,,,,,,,,,,,,,,,,,,,,,,,,,,,,,,,,,,58.4321069789994,64.18626021799992,,,,,102121,2,3,0,3,0,1,2,0,66,2021_Oct_21_1427,listening_fmri,3.2.4,59.77799123537464,
0,parcelated_audio/11/11_6.ogg,,,,,,,,,0,0,0,0,0,0,0,0,0,0,0,0,,,,,,,,,,,,,0,0,0,0,0,5,5,5,,,,,,,,,,,,,,,,,,,,,,,,,,,,,,,,,,,,,,,,,,,,,,,,,,,,,,,,,,,,,,,,,,,,,,,,,,,,,,,,,,,,,,,,,,,,,,,,,,,,,64.18650750300003,68.780839174,,,,,102121,2,3,0,3,0,1,2,0,66,2021_Oct_21_1427,listening_fmri,3.2.4,59.77799123537464,
0,parcelated_audio/11/11_7.ogg,,,,,,,,,0,0,0,0,0,0,0,0,0,0,0,0,,,,,,,,,,,,,0,0,0,0,0,6,6,6,,,,,,,,,,,,,,,,,,,,,,,,,,,,,,,,,,,,,,,,,,,,,,,,,,,,,,,,,,,,,,,,,,,,,,,,,,,,,,,,,,,,,,,,,,,,,,,,,,,,,68.7814576109995,75.33818122499997,,,,,102121,2,3,0,3,0,1,2,0,66,2021_Oct_21_1427,listening_fmri,3.2.4,59.77799123537464,
0,parcelated_audio/11/11_8.ogg,,,,,,,,,0,0,0,0,0,0,0,0,0,0,0,0,,,,,,,,,,,,,0,0,0,0,0,7,7,7,,,,,,,,,,,,,,,,,,,,,,,,,,,,,,,,,,,,,,,,,,,,,,,,,,,,,,,,,,,,,,,,,,,,,,,,,,,,,,,,,,,,,,,,,,,,,,,,,,,,,75.33857014899968,81.11555794800006,,,,,102121,2,3,0,3,0,1,2,0,66,2021_Oct_21_1427,listening_fmri,3.2.4,59.77799123537464,
0,parcelated_audio/11/11_9.ogg,,,,,,,,,0,0,0,0,0,0,0,0,0,0,0,0,,,,,,,,,,,,,0,0,0,0,0,8,8,8,,,,,,,,,,,,,,,,,,,,,,,,,,,,,,,,,,,,,,,,,,,,,,,,,,,,,,,,,,,,,,,,,,,,,,,,,,,,,,,,,,,,,,,,,,,,,,,,,,,,,81.1158807769998,85.51418072700017,,,,,102121,2,3,0,3,0,1,2,0,66,2021_Oct_21_1427,listening_fmri,3.2.4,59.77799123537464,
0,parcelated_audio/11/11_10.ogg,,,,,,,,,0,0,0,0,0,0,0,0,0,0,0,0,,,,,,,,,,,,,0,0,0,0,0,9,9,9,,,,,,,,,,,,,,,,,,,,,,,,,,,,,,,,,,,,,,,,,,,,,,,,,,,,,,,,,,,,,,,,,,,,,,,,,,,,,,,,,,,,,,,,,,,,,,,,,,,,,85.5144537719998,90.08681823400002,,,,,102121,2,3,0,3,0,1,2,0,66,2021_Oct_21_1427,listening_fmri,3.2.4,59.77799123537464,
0,parcelated_audio/11/11_11.ogg,,,,,,,,,0,0,0,0,0,0,0,0,0,0,0,0,,,,,,,,,,,,,0,0,0,0,0,10,10,10,,,,,,,,,,,,,,,,,,,,,,,,,,,,,,,,,,,,,,,,,,,,,,,,,,,,,,,,,,,,,,,,,,,,,,,,,,,,,,,,,,,,,,,,,,,,,,,,,,,,,90.08719610699973,93.26069690299937,,,,,102121,2,3,0,3,0,1,2,0,66,2021_Oct_21_1427,listening_fmri,3.2.4,59.77799123537464,
0,parcelated_audio/11/11_12.ogg,,,,,,,,,0,0,0,0,0,0,0,0,0,0,0,0,,,,,,,,,,,,,0,0,0,0,0,11,11,11,,,,,,,,,,,,,,,,,,,,,,,,,,,,,,,,,,,,,,,,,,,,,,,,,,,,,,,,,,,,,,,,,,,,,,,,,,,,,,,,,,,,,,,,,,,,,,,,,,,,,93.26099731300019,96.10651504799989,,,,,102121,2,3,0,3,0,1,2,0,66,2021_Oct_21_1427,listening_fmri,3.2.4,59.77799123537464,
0,parcelated_audio/11/11_13.ogg,,,,,,,,,0,0,0,0,0,0,0,0,0,0,0,0,,,,,,,,,,,,,0,0,0,0,0,12,12,12,,,,,,,,,,,,,,,,,,,,,,,,,,,,,,,,,,,,,,,,,,,,,,,,,,,,,,,,,,,,,,,,,,,,,,,,,,,,,,,,,,,,,,,,,,,,,,,,,,,,,96.1068586249994,99.41681226899982,,,,,102121,2,3,0,3,0,1,2,0,66,2021_Oct_21_1427,listening_fmri,3.2.4,59.77799123537464,
0,parcelated_audio/11/11_14.ogg,,,,,,,,,0,0,0,0,0,0,0,0,0,0,0,0,,,,,,,,,,,,,0,0,0,0,0,13,13,13,,,,,,,,,,,,,,,,,,,,,,,,,,,,,,,,,,,,,,,,,,,,,,,,,,,,,,,,,,,,,,,,,,,,,,,,,,,,,,,,,,,,,,,,,,,,,,,,,,,,,99.4171352229996,102.11960822099991,,,,,102121,2,3,0,3,0,1,2,0,66,2021_Oct_21_1427,listening_fmri,3.2.4,59.77799123537464,
0,parcelated_audio/11/11_15.ogg,,,,,,,,,0,0,0,0,0,0,0,0,0,0,0,0,,,,,,,,,,,,,0,0,0,0,0,14,14,14,,,,,,,,,,,,,,,,,,,,,,,,,,,,,,,,,,,,,,,,,,,,,,,,,,,,,,,,,,,,,,,,,,,,,,,,,,,,,,,,,,,,,,,,,,,,,,,,,,,,,102.11989275399992,113.28780109199943,,,,,102121,2,3,0,3,0,1,2,0,66,2021_Oct_21_1427,listening_fmri,3.2.4,59.77799123537464,
0,parcelated_audio/11/11_16.ogg,,,,,,,,,0,0,0,0,0,0,0,0,0,0,0,0,,,,,,,,,,,,,0,0,0,0,0,15,15,15,,,,,,,,,,,,,,,,,,,,,,,,,,,,,,,,,,,,,,,,,,,,,,,,,,,,,,,,,,,,,,,,,,,,,,,,,,,,,,,,,,,,,,,,,,,,,,,,,,,,,113.28814536400023,116.27964067099947,,,,,102121,2,3,0,3,0,1,2,0,66,2021_Oct_21_1427,listening_fmri,3.2.4,59.77799123537464,
0,parcelated_audio/11/11_17.ogg,,,,,,,,,0,0,0,0,0,0,0,0,0,0,0,0,,,,,,,,,,,,,0,0,0,0,0,16,16,16,,,,,,,,,,,,,,,,,,,,,,,,,,,,,,,,,,,,,,,,,,,,,,,,,,,,,,,,,,,,,,,,,,,,,,,,,,,,,,,,,,,,,,,,,,,,,,,,,,,,,116.27995230499982,123.25858945500022,,,,,102121,2,3,0,3,0,1,2,0,66,2021_Oct_21_1427,listening_fmri,3.2.4,59.77799123537464,
0,parcelated_audio/11/11_18.ogg,,,,,,,,,0,0,0,0,0,0,0,0,0,0,0,0,,,,,,,,,,,,,0,0,0,0,0,17,17,17,,,,,,,,,,,,,,,,,,,,,,,,,,,,,,,,,,,,,,,,,,,,,,,,,,,,,,,,,,,,,,,,,,,,,,,,,,,,,,,,,,,,,,,,,,,,,,,,,,,,,123.259032596,130.72731553499943,,,,,102121,2,3,0,3,0,1,2,0,66,2021_Oct_21_1427,listening_fmri,3.2.4,59.77799123537464,
0,parcelated_audio/11/11_19.ogg,,,,,,,,,0,0,0,0,0,0,0,0,0,0,0,0,,,,,,,,,,,,,0,0,0,0,0,18,18,18,,,,,,,,,,,,,,,,,,,,,,,,,,,,,,,,,,,,,,,,,,,,,,,,,,,,,,,,,,,,,,,,,,,,,,,,,,,,,,,,,,,,,,,,,,,,,,,,,,,,,130.7276648369998,135.39707702499982,,,,,102121,2,3,0,3,0,1,2,0,66,2021_Oct_21_1427,listening_fmri,3.2.4,59.77799123537464,
0,parcelated_audio/11/11_20.ogg,,,,,,,,,0,0,0,0,0,0,0,0,0,0,0,0,,,,,,,,,,,,,0,0,0,0,0,19,19,19,,,,,,,,,,,,,,,,,,,,,,,,,,,,,,,,,,,,,,,,,,,,,,,,,,,,,,,,,,,,,,,,,,,,,,,,,,,,,,,,,,,,,,,,,,,,,,,,,,,,,135.3974249490002,140.32097443099974,,,,,102121,2,3,0,3,0,1,2,0,66,2021_Oct_21_1427,listening_fmri,3.2.4,59.77799123537464,
0,parcelated_audio/11/11_21.ogg,,,,,,,,,0,0,0,0,0,0,0,0,0,0,0,0,,,,,,,,,,,,,0,0,0,0,0,20,20,20,,,,,,,,,,,,,,,,,,,,,,,,,,,,,,,,,,,,,,,,,,,,,,,,,,,,,,,,,,,,,,,,,,,,,,,,,,,,,,,,,,,,,,,,,,,,,,,,,,,,,140.32132268900023,149.0988896889994,,,,,102121,2,3,0,3,0,1,2,0,66,2021_Oct_21_1427,listening_fmri,3.2.4,59.77799123537464,
0,parcelated_audio/11/11_22.ogg,,,,,,,,,0,0,0,0,0,0,0,0,0,0,0,0,,,,,,,,,,,,,0,0,0,0,0,21,21,21,,,,,,,,,,,,,,,,,,,,,,,,,,,,,,,,,,,,,,,,,,,,,,,,,,,,,,,,,,,,,,,,,,,,,,,,,,,,,,,,,,,,,,,,,,,,,,,,,,,,,149.09930971999984,152.39295630800007,,,,,102121,2,3,0,3,0,1,2,0,66,2021_Oct_21_1427,listening_fmri,3.2.4,59.77799123537464,
0,parcelated_audio/11/11_23.ogg,,,,,,,,,0,0,0,0,0,0,0,0,0,0,0,0,,,,,,,,,,,,,0,0,0,0,0,22,22,22,,,,,,,,,,,,,,,,,,,,,,,,,,,,,,,,,,,,,,,,,,,,,,,,,,,,,,,,,,,,,,,,,,,,,,,,,,,,,,,,,,,,,,,,,,,,,,,,,,,,,152.3934031839999,157.17560461099947,,,,,102121,2,3,0,3,0,1,2,0,66,2021_Oct_21_1427,listening_fmri,3.2.4,59.77799123537464,
0,parcelated_audio/11/11_24.ogg,,,,,,,,,0,0,0,0,0,0,0,0,0,0,0,0,,,,,,,,,,,,,0,0,0,0,0,23,23,23,,,,,,,,,,,,,,,,,,,,,,,,,,,,,,,,,,,,,,,,,,,,,,,,,,,,,,,,,,,,,,,,,,,,,,,,,,,,,,,,,,,,,,,,,,,,,,,,,,,,,157.17588981799963,160.795522548,,,,,102121,2,3,0,3,0,1,2,0,66,2021_Oct_21_1427,listening_fmri,3.2.4,59.77799123537464,
0,parcelated_audio/11/11_25.ogg,,,,,,,,,0,0,0,0,0,0,0,0,0,0,0,0,,,,,,,,,,,,,0,0,0,0,0,24,24,24,,,,,,,,,,,,,,,,,,,,,,,,,,,,,,,,,,,,,,,,,,,,,,,,,,,,,,,,,,,,,,,,,,,,,,,,,,,,,,,,,,,,,,,,,,,,,,,,,,,,,160.79627772299955,165.5552148050001,,,,,102121,2,3,0,3,0,1,2,0,66,2021_Oct_21_1427,listening_fmri,3.2.4,59.77799123537464,
0,parcelated_audio/11/11_26.ogg,,,,,,,,,0,0,0,0,0,0,0,0,0,0,0,0,,,,,,,,,,,,,0,0,0,0,0,25,25,25,,,,,,,,,,,,,,,,,,,,,,,,,,,,,,,,,,,,,,,,,,,,,,,,,,,,,,,,,,,,,,,,,,,,,,,,,,,,,,,,,,,,,,,,,,,,,,,,,,,,,165.55558181800006,170.58191103299941,,,,,102121,2,3,0,3,0,1,2,0,66,2021_Oct_21_1427,listening_fmri,3.2.4,59.77799123537464,
0,parcelated_audio/11/11_27.ogg,,,,,,,,,0,0,0,0,0,0,0,0,0,0,0,0,,,,,,,,,,,,,0,0,0,0,0,26,26,26,,,,,,,,,,,,,,,,,,,,,,,,,,,,,,,,,,,,,,,,,,,,,,,,,,,,,,,,,,,,,,,,,,,,,,,,,,,,,,,,,,,,,,,,,,,,,,,,,,,,,170.58217329299987,174.5566582929996,,,,,102121,2,3,0,3,0,1,2,0,66,2021_Oct_21_1427,listening_fmri,3.2.4,59.77799123537464,
0,parcelated_audio/11/11_28.ogg,,,,,,,,,0,0,0,0,0,0,0,0,0,0,0,0,,,,,,,,,,,,,0,0,0,0,0,27,27,27,,,,,,,,,,,,,,,,,,,,,,,,,,,,,,,,,,,,,,,,,,,,,,,,,,,,,,,,,,,,,,,,,,,,,,,,,,,,,,,,,,,,,,,,,,,,,,,,,,,,,174.55694926999968,178.00495827099985,,,,,102121,2,3,0,3,0,1,2,0,66,2021_Oct_21_1427,listening_fmri,3.2.4,59.77799123537464,
0,parcelated_audio/11/11_29.ogg,,,,,,,,,0,0,0,0,0,0,0,0,0,0,0,0,,,,,,,,,,,,,0,0,0,0,0,28,28,28,,,,,,,,,,,,,,,,,,,,,,,,,,,,,,,,,,,,,,,,,,,,,,,,,,,,,,,,,,,,,,,,,,,,,,,,,,,,,,,,,,,,,,,,,,,,,,,,,,,,,178.005386025,182.1873387579999,,,,,102121,2,3,0,3,0,1,2,0,66,2021_Oct_21_1427,listening_fmri,3.2.4,59.77799123537464,
0,parcelated_audio/11/11_30.ogg,,,,,,,,,0,0,0,0,0,0,0,0,0,0,0,0,,,,,,,,,,,,,0,0,0,0,0,29,29,29,,,,,,,,,,,,,,,,,,,,,,,,,,,,,,,,,,,,,,,,,,,,,,,,,,,,,,,,,,,,,,,,,,,,,,,,,,,,,,,,,,,,,,,,,,,,,,,,,,,,,182.18768473899945,186.70679058199948,,,,,102121,2,3,0,3,0,1,2,0,66,2021_Oct_21_1427,listening_fmri,3.2.4,59.77799123537464,
0,parcelated_audio/11/11_31.ogg,,,,,,,,,0,0,0,0,0,0,0,0,0,0,0,0,,,,,,,,,,,,,0,0,0,0,0,30,30,30,,,,,,,,,,,,,,,,,,,,,,,,,,,,,,,,,,,,,,,,,,,,,,,,,,,,,,,,,,,,,,,,,,,,,,,,,,,,,,,,,,,,,,,,,,,,,,,,,,,,,186.70761392900022,191.55727801099965,,,,,102121,2,3,0,3,0,1,2,0,66,2021_Oct_21_1427,listening_fmri,3.2.4,59.77799123537464,
0,parcelated_audio/11/11_32.ogg,,,,,,,,,0,0,0,0,0,0,0,0,0,0,0,0,,,,,,,,,,,,,0,0,0,0,0,31,31,31,,,,,,,,,,,,,,,,,,,,,,,,,,,,,,,,,,,,,,,,,,,,,,,,,,,,,,,,,,,,,,,,,,,,,,,,,,,,,,,,,,,,,,,,,,,,,,,,,,,,,191.55762968999989,195.61280935499963,,,,,102121,2,3,0,3,0,1,2,0,66,2021_Oct_21_1427,listening_fmri,3.2.4,59.77799123537464,
0,parcelated_audio/11/11_33.ogg,,,,,,,,,0,0,0,0,0,0,0,0,0,0,0,0,,,,,,,,,,,,,0,0,0,0,0,32,32,32,,,,,,,,,,,,,,,,,,,,,,,,,,,,,,,,,,,,,,,,,,,,,,,,,,,,,,,,,,,,,,,,,,,,,,,,,,,,,,,,,,,,,,,,,,,,,,,,,,,,,195.61333789499986,198.13602900499973,,,,,102121,2,3,0,3,0,1,2,0,66,2021_Oct_21_1427,listening_fmri,3.2.4,59.77799123537464,
0,parcelated_audio/11/11_34.ogg,,,,,,,,,0,0,0,0,0,0,0,0,0,0,0,0,,,,,,,,,,,,,0,0,0,0,0,33,33,33,,,,,,,,,,,,,,,,,,,,,,,,,,,,,,,,,,,,,,,,,,,,,,,,,,,,,,,,,,,,,,,,,,,,,,,,,,,,,,,,,,,,,,,,,,,,,,,,,,,,,198.1363863050001,201.44514415699996,,,,,102121,2,3,0,3,0,1,2,0,66,2021_Oct_21_1427,listening_fmri,3.2.4,59.77799123537464,
0,parcelated_audio/11/11_35.ogg,,,,,,,,,0,0,0,0,0,0,0,0,0,0,0,0,,,,,,,,,,,,,0,0,0,0,0,34,34,34,,,,,,,,,,,,,,,,,,,,,,,,,,,,,,,,,,,,,,,,,,,,,,,,,,,,,,,,,,,,,,,,,,,,,,,,,,,,,,,,,,,,,,,,,,,,,,,,,,,,,201.44565445099943,205.80260996699963,,,,,102121,2,3,0,3,0,1,2,0,66,2021_Oct_21_1427,listening_fmri,3.2.4,59.77799123537464,
0,parcelated_audio/11/11_36.ogg,,,,,,,,,0,0,0,0,0,0,0,0,0,0,0,0,,,,,,,,,,,,,0,0,0,0,0,35,35,35,,,,,,,,,,,,,,,,,,,,,,,,,,,,,,,,,,,,,,,,,,,,,,,,,,,,,,,,,,,,,,,,,,,,,,,,,,,,,,,,,,,,,,,,,,,,,,,,,,,,,205.80295723200015,214.81219078899994,,,,,102121,2,3,0,3,0,1,2,0,66,2021_Oct_21_1427,listening_fmri,3.2.4,59.77799123537464,
0,parcelated_audio/11/11_37.ogg,,,,,,,,,0,0,0,0,0,0,0,0,0,0,0,0,,,,,,,,,,,,,0,0,0,0,0,36,36,36,,,,,,,,,,,,,,,,,,,,,,,,,,,,,,,,,,,,,,,,,,,,,,,,,,,,,,,,,,,,,,,,,,,,,,,,,,,,,,,,,,,,,,,,,,,,,,,,,,,,,214.81253998899956,218.99192714799938,,,,,102121,2,3,0,3,0,1,2,0,66,2021_Oct_21_1427,listening_fmri,3.2.4,59.77799123537464,
0,parcelated_audio/11/11_38.ogg,,,,,,,,,0,0,0,0,0,0,0,0,0,0,0,0,,,,,,,,,,,,,0,0,0,0,0,37,37,37,,,,,,,,,,,,,,,,,,,,,,,,,,,,,,,,,,,,,,,,,,,,,,,,,,,,,,,,,,,,,,,,,,,,,,,,,,,,,,,,,,,,,,,,,,,,,,,,,,,,,218.9923819529995,225.14904498800024,,,,,102121,2,3,0,3,0,1,2,0,66,2021_Oct_21_1427,listening_fmri,3.2.4,59.77799123537464,
0,parcelated_audio/11/11_39.ogg,,,,,,,,,0,0,0,0,0,0,0,0,0,0,0,0,,,,,,,,,,,,,0,0,0,0,0,38,38,38,,,,,,,,,,,,,,,,,,,,,,,,,,,,,,,,,,,,,,,,,,,,,,,,,,,,,,,,,,,,,,,,,,,,,,,,,,,,,,,,,,,,,,,,,,,,,,,,,,,,,225.14939587800018,230.3357320949999,,,,,102121,2,3,0,3,0,1,2,0,66,2021_Oct_21_1427,listening_fmri,3.2.4,59.77799123537464,
0,parcelated_audio/11/11_40.ogg,,,,,,,,,0,0,0,0,0,0,0,0,0,0,0,0,,,,,,,,,,,,,0,0,0,0,0,39,39,39,,,,,,,,,,,,,,,,,,,,,,,,,,,,,,,,,,,,,,,,,,,,,,,,,,,,,,,,,,,,,,,,,,,,,,,,,,,,,,,,,,,,,,,,,,,,,,,,,,,,,230.33625582100012,236.1027553189997,,,,,102121,2,3,0,3,0,1,2,0,66,2021_Oct_21_1427,listening_fmri,3.2.4,59.77799123537464,
0,parcelated_audio/11/11_41.ogg,,,,,,,,,0,0,0,0,0,0,0,0,0,0,0,0,,,,,,,,,,,,,0,0,0,0,0,40,40,40,,,,,,,,,,,,,,,,,,,,,,,,,,,,,,,,,,,,,,,,,,,,,,,,,,,,,,,,,,,,,,,,,,,,,,,,,,,,,,,,,,,,,,,,,,,,,,,,,,,,,236.10304602799988,242.26076664299944,,,,,102121,2,3,0,3,0,1,2,0,66,2021_Oct_21_1427,listening_fmri,3.2.4,59.77799123537464,
0,,,,,,,,,,0,0,0,0,0,0,0,0,0,0,0,0,,,,,,,,,,,,,0,0,0,0,,,,,,,,,,,,,,,,,,,,,,,,,,,,,,,,,,,,,,,,,,,,,,,,,,,,,,,,,,,,,,,,,,,,,,,,,,,,,,,,,,,,,,,,,,,,,,,,,,,,,,,,,,,,,,,102121,2,3,0,3,0,1,2,0,66,2021_Oct_21_1427,listening_fmri,3.2.4,59.77799123537464,
,,,,,,,,,,,,,,,,,,,,,,,,,,,,,,,,,,,,,,,,,,,,,,,,,,,,,,,,,,,242.2612549810001,248.2485716149995,287.4038272930002,None,,,,,,,,,,,,,,,,,,,,,,,,,,,,,,,,,,,,,,,,,,,,,,,,,,,,,,,,,,,,,,,,,,,,,,,,,,,,,,,,,,293.40412942199964,None,293.40412942199964,None,,,,,,,,,,,,,,,
﻿count,audio,trials_14.thisRepN,trials_14.thisTrialN,trials_14.thisN,trials_14.thisIndex,trials_3.thisRepN,trials_3.thisTrialN,trials_3.thisN,trials_3.thisIndex,trials_4.thisRepN,trials_4.thisTrialN,trials_4.thisN,trials_4.thisIndex,trials_6.thisRepN,trials_6.thisTrialN,trials_6.thisN,trials_6.thisIndex,trials_9.thisRepN,trials_9.thisTrialN,trials_9.thisN,trials_9.thisIndex,trials_10.thisRepN,trials_10.thisTrialN,trials_10.thisN,trials_10.thisIndex,trials_11.thisRepN,trials_11.thisTrialN,trials_11.thisN,trials_11.thisIndex,trials_12.thisRepN,trials_12.thisTrialN,trials_12.thisN,trials_12.thisIndex,trials_25.thisRepN,trials_25.thisTrialN,trials_25.thisN,trials_25.thisIndex,trials_15.thisRepN,trials_15.thisTrialN,trials_15.thisN,trials_15.thisIndex,trials_26.thisRepN,trials_26.thisTrialN,trials_26.thisN,trials_26.thisIndex,story_list_block2,action_list_block2,textTrigger.started,textTrigger.stopped,getTrigger.keys,getTrigger.rt,getTrigger.started,getTrigger.stopped,triggerTime,text_76.started,text_76.stopped,text_77.started,text_77.stopped,startWait,endWait,image_23.started,image_23.stopped,text_55.started,text_55.stopped,text_56.started,text_56.stopped,key_resp_2.keys,key_resp_2.rt,key_resp_2.started,key_resp_2.stopped,text_82.started,text_82.stopped,text_57.started,text_57.stopped,key_resp_17.keys,key_resp_17.rt,key_resp_17.started,key_resp_17.stopped,text_83.started,text_83.stopped,text_60.started,text_60.stopped,image_2.started,image_2.stopped,text_58.started,text_58.stopped,key_resp_23.keys,key_resp_23.rt,key_resp_23.started,key_resp_23.stopped,text_62.started,text_62.stopped,key_resp_18.keys,key_resp_18.rt,key_resp_18.started,key_resp_18.stopped,text_84.started,text_84.stopped,question1_2.started,question1_2.stopped,question2_2.started,question2_2.stopped,question3_2.started,question3_2.stopped,question4_2.started,question4_2.stopped,question5_2.started,question5_2.stopped,question6_2.started,question6_2.stopped,image_15.started,image_15.stopped,key_resp.keys,key_resp.started,key_resp.stopped,text_59.started,text_59.stopped,key_resp_19.keys,key_resp_19.rt,key_resp_19.started,key_resp_19.stopped,text_85.started,text_85.stopped,text_61.started,text_61.stopped,image_17.started,image_17.stopped,text_63.started,text_63.stopped,key_resp_24.keys,key_resp_24.rt,key_resp_24.started,key_resp_24.stopped,text_64.started,text_64.stopped,key_resp_20.keys,key_resp_20.rt,key_resp_20.started,key_resp_20.stopped,storyImage_StartTime,storyImage_EndTime,clip_StartTime,clip_EndTime,text_67.started,text_67.stopped,text_68.started,text_68.stopped,participant,sA,sB,lA,lB,block_struct,play_stories,block,behavioral,random_seed,date,expName,psychopyVersion,frameRate,
0,,,,,,,,,,0,0,0,0,0,0,0,0,0,0,0,0,0,0,0,0,0,0,0,0,,,,,,,,,,,,,,,,,[11 44 42 31 13 22 33 24],[2 3 1 3 4 4 1 2],17.281263167999896,None,equal,27.85152203799953,17.281263167999896,None,27.86870553100016,17.281263167999896,None,17.281263167999896,None,0.0003354539994688821,5.9984919050002645,45.15385134099961,None,51.1650978079997,None,51.1650978079997,None,6,1.7926883240006646,51.1650978079997,None,51.1650978079997,None,52.98722207999981,None,6,0.7755105480000566,52.98722207999981,None,52.98722207999981,None,53.79835004500001,None,53.79835004500001,None,53.79835004500001,None,6,0.6643369429993982,53.79835004500001,None,54.487271576999774,None,6,0.5735189189999801,54.487271576999774,None,54.487271576999774,None,55.16562869500012,None,55.16562869500012,None,55.16562869500012,None,55.16562869500012,None,55.16562869500012,None,55.16562869500012,None,55.16562869500012,None,None,55.16562869500012,None,,,,,,,,,,,,,,,,,,,,,,,,,,,,,,,,,102121,2,3,0,3,0,1,2,0,66,2021_Oct_21_1427,listening_fmri,3.2.4,59.77799123537464,
0,,,,,,,,,,0,0,0,0,0,0,0,0,0,0,0,0,0,0,0,0,,,,,,,,,,,,,,,,,,,,,,,,,,,,,,,,,,,,,,,,,,,,,,,,,,,,,,,,,,,,,,,,,,,,,,,,,,,,,,,,,,,,,,,,,,,66.19810646499991,None,6,2.687748338000347,66.19810646499991,None,66.19810646499991,None,68.91500399100005,None,68.91500399100005,None,68.91500399100005,None,6,0.7127751729994998,68.91500399100005,None,,,,,,,,,,,,,,,102121,2,3,0,3,0,1,2,0,66,2021_Oct_21_1427,listening_fmri,3.2.4,59.77799123537464,
0,parcelated_audio/11/11_1.ogg,,,,,,,,,0,0,0,0,0,0,0,0,0,0,0,0,,,,,,,,,,,,,0,0,0,0,0,0,0,0,,,,,,,,,,,,,,,,,,,,,,,,,,,,,,,,,,,,,,,,,,,,,,,,,,,,,,,,,,,,,,,,,,,,,,,,,,,,,,,,,,,,,,,,,,,,,69.65387883899984,None,6,0.2248953900007109,69.65387883899984,None,24.757016818999546,27.759490675999587,27.770889972000077,39.85402171900023,,,,,102121,2,3,0,3,0,1,2,0,66,2021_Oct_21_1427,listening_fmri,3.2.4,59.77799123537464,
0,parcelated_audio/11/11_2.ogg,,,,,,,,,0,0,0,0,0,0,0,0,0,0,0,0,,,,,,,,,,,,,0,0,0,0,0,1,1,1,,,,,,,,,,,,,,,,,,,,,,,,,,,,,,,,,,,,,,,,,,,,,,,,,,,,,,,,,,,,,,,,,,,,,,,,,,,,,,,,,,,,,,,,,,,,,,,,,,,,,39.854374534999806,44.342566726999394,,,,,102121,2,3,0,3,0,1,2,0,66,2021_Oct_21_1427,listening_fmri,3.2.4,59.77799123537464,
0,parcelated_audio/11/11_3.ogg,,,,,,,,,0,0,0,0,0,0,0,0,0,0,0,0,,,,,,,,,,,,,0,0,0,0,0,2,2,2,,,,,,,,,,,,,,,,,,,,,,,,,,,,,,,,,,,,,,,,,,,,,,,,,,,,,,,,,,,,,,,,,,,,,,,,,,,,,,,,,,,,,,,,,,,,,,,,,,,,,44.342843589999575,49.33430128500004,,,,,102121,2,3,0,3,0,1,2,0,66,2021_Oct_21_1427,listening_fmri,3.2.4,59.77799123537464,
0,parcelated_audio/11/11_4.ogg,,,,,,,,,0,0,0,0,0,0,0,0,0,0,0,0,,,,,,,,,,,,,0,0,0,0,0,3,3,3,,,,,,,,,,,,,,,,,,,,,,,,,,,,,,,,,,,,,,,,,,,,,,,,,,,,,,,,,,,,,,,,,,,,,,,,,,,,,,,,,,,,,,,,,,,,,,,,,,,,,49.33460224299961,58.43146343499939,,,,,102121,2,3,0,3,0,1,2,0,66,2021_Oct_21_1427,listening_fmri,3.2.4,59.77799123537464,
0,parcelated_audio/11/11_5.ogg,,,,,,,,,0,0,0,0,0,0,0,0,0,0,0,0,,,,,,,,,,,,,0,0,0,0,0,4,4,4,,,,,,,,,,,,,,,,,,,,,,,,,,,,,,,,,,,,,,,,,,,,,,,,,,,,,,,,,,,,,,,,,,,,,,,,,,,,,,,,,,,,,,,,,,,,,,,,,,,,,58.4321069789994,64.18626021799992,,,,,102121,2,3,0,3,0,1,2,0,66,2021_Oct_21_1427,listening_fmri,3.2.4,59.77799123537464,
0,parcelated_audio/11/11_6.ogg,,,,,,,,,0,0,0,0,0,0,0,0,0,0,0,0,,,,,,,,,,,,,0,0,0,0,0,5,5,5,,,,,,,,,,,,,,,,,,,,,,,,,,,,,,,,,,,,,,,,,,,,,,,,,,,,,,,,,,,,,,,,,,,,,,,,,,,,,,,,,,,,,,,,,,,,,,,,,,,,,64.18650750300003,68.780839174,,,,,102121,2,3,0,3,0,1,2,0,66,2021_Oct_21_1427,listening_fmri,3.2.4,59.77799123537464,
0,parcelated_audio/11/11_7.ogg,,,,,,,,,0,0,0,0,0,0,0,0,0,0,0,0,,,,,,,,,,,,,0,0,0,0,0,6,6,6,,,,,,,,,,,,,,,,,,,,,,,,,,,,,,,,,,,,,,,,,,,,,,,,,,,,,,,,,,,,,,,,,,,,,,,,,,,,,,,,,,,,,,,,,,,,,,,,,,,,,68.7814576109995,75.33818122499997,,,,,102121,2,3,0,3,0,1,2,0,66,2021_Oct_21_1427,listening_fmri,3.2.4,59.77799123537464,
0,parcelated_audio/11/11_8.ogg,,,,,,,,,0,0,0,0,0,0,0,0,0,0,0,0,,,,,,,,,,,,,0,0,0,0,0,7,7,7,,,,,,,,,,,,,,,,,,,,,,,,,,,,,,,,,,,,,,,,,,,,,,,,,,,,,,,,,,,,,,,,,,,,,,,,,,,,,,,,,,,,,,,,,,,,,,,,,,,,,75.33857014899968,81.11555794800006,,,,,102121,2,3,0,3,0,1,2,0,66,2021_Oct_21_1427,listening_fmri,3.2.4,59.77799123537464,
0,parcelated_audio/11/11_9.ogg,,,,,,,,,0,0,0,0,0,0,0,0,0,0,0,0,,,,,,,,,,,,,0,0,0,0,0,8,8,8,,,,,,,,,,,,,,,,,,,,,,,,,,,,,,,,,,,,,,,,,,,,,,,,,,,,,,,,,,,,,,,,,,,,,,,,,,,,,,,,,,,,,,,,,,,,,,,,,,,,,81.1158807769998,85.51418072700017,,,,,102121,2,3,0,3,0,1,2,0,66,2021_Oct_21_1427,listening_fmri,3.2.4,59.77799123537464,
0,parcelated_audio/11/11_10.ogg,,,,,,,,,0,0,0,0,0,0,0,0,0,0,0,0,,,,,,,,,,,,,0,0,0,0,0,9,9,9,,,,,,,,,,,,,,,,,,,,,,,,,,,,,,,,,,,,,,,,,,,,,,,,,,,,,,,,,,,,,,,,,,,,,,,,,,,,,,,,,,,,,,,,,,,,,,,,,,,,,85.5144537719998,90.08681823400002,,,,,102121,2,3,0,3,0,1,2,0,66,2021_Oct_21_1427,listening_fmri,3.2.4,59.77799123537464,
0,parcelated_audio/11/11_11.ogg,,,,,,,,,0,0,0,0,0,0,0,0,0,0,0,0,,,,,,,,,,,,,0,0,0,0,0,10,10,10,,,,,,,,,,,,,,,,,,,,,,,,,,,,,,,,,,,,,,,,,,,,,,,,,,,,,,,,,,,,,,,,,,,,,,,,,,,,,,,,,,,,,,,,,,,,,,,,,,,,,90.08719610699973,93.26069690299937,,,,,102121,2,3,0,3,0,1,2,0,66,2021_Oct_21_1427,listening_fmri,3.2.4,59.77799123537464,
0,parcelated_audio/11/11_12.ogg,,,,,,,,,0,0,0,0,0,0,0,0,0,0,0,0,,,,,,,,,,,,,0,0,0,0,0,11,11,11,,,,,,,,,,,,,,,,,,,,,,,,,,,,,,,,,,,,,,,,,,,,,,,,,,,,,,,,,,,,,,,,,,,,,,,,,,,,,,,,,,,,,,,,,,,,,,,,,,,,,93.26099731300019,96.10651504799989,,,,,102121,2,3,0,3,0,1,2,0,66,2021_Oct_21_1427,listening_fmri,3.2.4,59.77799123537464,
0,parcelated_audio/11/11_13.ogg,,,,,,,,,0,0,0,0,0,0,0,0,0,0,0,0,,,,,,,,,,,,,0,0,0,0,0,12,12,12,,,,,,,,,,,,,,,,,,,,,,,,,,,,,,,,,,,,,,,,,,,,,,,,,,,,,,,,,,,,,,,,,,,,,,,,,,,,,,,,,,,,,,,,,,,,,,,,,,,,,96.1068586249994,99.41681226899982,,,,,102121,2,3,0,3,0,1,2,0,66,2021_Oct_21_1427,listening_fmri,3.2.4,59.77799123537464,
0,parcelated_audio/11/11_14.ogg,,,,,,,,,0,0,0,0,0,0,0,0,0,0,0,0,,,,,,,,,,,,,0,0,0,0,0,13,13,13,,,,,,,,,,,,,,,,,,,,,,,,,,,,,,,,,,,,,,,,,,,,,,,,,,,,,,,,,,,,,,,,,,,,,,,,,,,,,,,,,,,,,,,,,,,,,,,,,,,,,99.4171352229996,102.11960822099991,,,,,102121,2,3,0,3,0,1,2,0,66,2021_Oct_21_1427,listening_fmri,3.2.4,59.77799123537464,
0,parcelated_audio/11/11_15.ogg,,,,,,,,,0,0,0,0,0,0,0,0,0,0,0,0,,,,,,,,,,,,,0,0,0,0,0,14,14,14,,,,,,,,,,,,,,,,,,,,,,,,,,,,,,,,,,,,,,,,,,,,,,,,,,,,,,,,,,,,,,,,,,,,,,,,,,,,,,,,,,,,,,,,,,,,,,,,,,,,,102.11989275399992,113.28780109199943,,,,,102121,2,3,0,3,0,1,2,0,66,2021_Oct_21_1427,listening_fmri,3.2.4,59.77799123537464,
0,parcelated_audio/11/11_16.ogg,,,,,,,,,0,0,0,0,0,0,0,0,0,0,0,0,,,,,,,,,,,,,0,0,0,0,0,15,15,15,,,,,,,,,,,,,,,,,,,,,,,,,,,,,,,,,,,,,,,,,,,,,,,,,,,,,,,,,,,,,,,,,,,,,,,,,,,,,,,,,,,,,,,,,,,,,,,,,,,,,113.28814536400023,116.27964067099947,,,,,102121,2,3,0,3,0,1,2,0,66,2021_Oct_21_1427,listening_fmri,3.2.4,59.77799123537464,
0,parcelated_audio/11/11_17.ogg,,,,,,,,,0,0,0,0,0,0,0,0,0,0,0,0,,,,,,,,,,,,,0,0,0,0,0,16,16,16,,,,,,,,,,,,,,,,,,,,,,,,,,,,,,,,,,,,,,,,,,,,,,,,,,,,,,,,,,,,,,,,,,,,,,,,,,,,,,,,,,,,,,,,,,,,,,,,,,,,,116.27995230499982,123.25858945500022,,,,,102121,2,3,0,3,0,1,2,0,66,2021_Oct_21_1427,listening_fmri,3.2.4,59.77799123537464,
0,parcelated_audio/11/11_18.ogg,,,,,,,,,0,0,0,0,0,0,0,0,0,0,0,0,,,,,,,,,,,,,0,0,0,0,0,17,17,17,,,,,,,,,,,,,,,,,,,,,,,,,,,,,,,,,,,,,,,,,,,,,,,,,,,,,,,,,,,,,,,,,,,,,,,,,,,,,,,,,,,,,,,,,,,,,,,,,,,,,123.259032596,130.72731553499943,,,,,102121,2,3,0,3,0,1,2,0,66,2021_Oct_21_1427,listening_fmri,3.2.4,59.77799123537464,
0,parcelated_audio/11/11_19.ogg,,,,,,,,,0,0,0,0,0,0,0,0,0,0,0,0,,,,,,,,,,,,,0,0,0,0,0,18,18,18,,,,,,,,,,,,,,,,,,,,,,,,,,,,,,,,,,,,,,,,,,,,,,,,,,,,,,,,,,,,,,,,,,,,,,,,,,,,,,,,,,,,,,,,,,,,,,,,,,,,,130.7276648369998,135.39707702499982,,,,,102121,2,3,0,3,0,1,2,0,66,2021_Oct_21_1427,listening_fmri,3.2.4,59.77799123537464,
0,parcelated_audio/11/11_20.ogg,,,,,,,,,0,0,0,0,0,0,0,0,0,0,0,0,,,,,,,,,,,,,0,0,0,0,0,19,19,19,,,,,,,,,,,,,,,,,,,,,,,,,,,,,,,,,,,,,,,,,,,,,,,,,,,,,,,,,,,,,,,,,,,,,,,,,,,,,,,,,,,,,,,,,,,,,,,,,,,,,135.3974249490002,140.32097443099974,,,,,102121,2,3,0,3,0,1,2,0,66,2021_Oct_21_1427,listening_fmri,3.2.4,59.77799123537464,
0,parcelated_audio/11/11_21.ogg,,,,,,,,,0,0,0,0,0,0,0,0,0,0,0,0,,,,,,,,,,,,,0,0,0,0,0,20,20,20,,,,,,,,,,,,,,,,,,,,,,,,,,,,,,,,,,,,,,,,,,,,,,,,,,,,,,,,,,,,,,,,,,,,,,,,,,,,,,,,,,,,,,,,,,,,,,,,,,,,,140.32132268900023,149.0988896889994,,,,,102121,2,3,0,3,0,1,2,0,66,2021_Oct_21_1427,listening_fmri,3.2.4,59.77799123537464,
0,parcelated_audio/11/11_22.ogg,,,,,,,,,0,0,0,0,0,0,0,0,0,0,0,0,,,,,,,,,,,,,0,0,0,0,0,21,21,21,,,,,,,,,,,,,,,,,,,,,,,,,,,,,,,,,,,,,,,,,,,,,,,,,,,,,,,,,,,,,,,,,,,,,,,,,,,,,,,,,,,,,,,,,,,,,,,,,,,,,149.09930971999984,152.39295630800007,,,,,102121,2,3,0,3,0,1,2,0,66,2021_Oct_21_1427,listening_fmri,3.2.4,59.77799123537464,
0,parcelated_audio/11/11_23.ogg,,,,,,,,,0,0,0,0,0,0,0,0,0,0,0,0,,,,,,,,,,,,,0,0,0,0,0,22,22,22,,,,,,,,,,,,,,,,,,,,,,,,,,,,,,,,,,,,,,,,,,,,,,,,,,,,,,,,,,,,,,,,,,,,,,,,,,,,,,,,,,,,,,,,,,,,,,,,,,,,,152.3934031839999,157.17560461099947,,,,,102121,2,3,0,3,0,1,2,0,66,2021_Oct_21_1427,listening_fmri,3.2.4,59.77799123537464,
0,parcelated_audio/11/11_24.ogg,,,,,,,,,0,0,0,0,0,0,0,0,0,0,0,0,,,,,,,,,,,,,0,0,0,0,0,23,23,23,,,,,,,,,,,,,,,,,,,,,,,,,,,,,,,,,,,,,,,,,,,,,,,,,,,,,,,,,,,,,,,,,,,,,,,,,,,,,,,,,,,,,,,,,,,,,,,,,,,,,157.17588981799963,160.795522548,,,,,102121,2,3,0,3,0,1,2,0,66,2021_Oct_21_1427,listening_fmri,3.2.4,59.77799123537464,
0,parcelated_audio/11/11_25.ogg,,,,,,,,,0,0,0,0,0,0,0,0,0,0,0,0,,,,,,,,,,,,,0,0,0,0,0,24,24,24,,,,,,,,,,,,,,,,,,,,,,,,,,,,,,,,,,,,,,,,,,,,,,,,,,,,,,,,,,,,,,,,,,,,,,,,,,,,,,,,,,,,,,,,,,,,,,,,,,,,,160.79627772299955,165.5552148050001,,,,,102121,2,3,0,3,0,1,2,0,66,2021_Oct_21_1427,listening_fmri,3.2.4,59.77799123537464,
0,parcelated_audio/11/11_26.ogg,,,,,,,,,0,0,0,0,0,0,0,0,0,0,0,0,,,,,,,,,,,,,0,0,0,0,0,25,25,25,,,,,,,,,,,,,,,,,,,,,,,,,,,,,,,,,,,,,,,,,,,,,,,,,,,,,,,,,,,,,,,,,,,,,,,,,,,,,,,,,,,,,,,,,,,,,,,,,,,,,165.55558181800006,170.58191103299941,,,,,102121,2,3,0,3,0,1,2,0,66,2021_Oct_21_1427,listening_fmri,3.2.4,59.77799123537464,
0,parcelated_audio/11/11_27.ogg,,,,,,,,,0,0,0,0,0,0,0,0,0,0,0,0,,,,,,,,,,,,,0,0,0,0,0,26,26,26,,,,,,,,,,,,,,,,,,,,,,,,,,,,,,,,,,,,,,,,,,,,,,,,,,,,,,,,,,,,,,,,,,,,,,,,,,,,,,,,,,,,,,,,,,,,,,,,,,,,,170.58217329299987,174.5566582929996,,,,,102121,2,3,0,3,0,1,2,0,66,2021_Oct_21_1427,listening_fmri,3.2.4,59.77799123537464,
0,parcelated_audio/11/11_28.ogg,,,,,,,,,0,0,0,0,0,0,0,0,0,0,0,0,,,,,,,,,,,,,0,0,0,0,0,27,27,27,,,,,,,,,,,,,,,,,,,,,,,,,,,,,,,,,,,,,,,,,,,,,,,,,,,,,,,,,,,,,,,,,,,,,,,,,,,,,,,,,,,,,,,,,,,,,,,,,,,,,174.55694926999968,178.00495827099985,,,,,102121,2,3,0,3,0,1,2,0,66,2021_Oct_21_1427,listening_fmri,3.2.4,59.77799123537464,
0,parcelated_audio/11/11_29.ogg,,,,,,,,,0,0,0,0,0,0,0,0,0,0,0,0,,,,,,,,,,,,,0,0,0,0,0,28,28,28,,,,,,,,,,,,,,,,,,,,,,,,,,,,,,,,,,,,,,,,,,,,,,,,,,,,,,,,,,,,,,,,,,,,,,,,,,,,,,,,,,,,,,,,,,,,,,,,,,,,,178.005386025,182.1873387579999,,,,,102121,2,3,0,3,0,1,2,0,66,2021_Oct_21_1427,listening_fmri,3.2.4,59.77799123537464,
0,parcelated_audio/11/11_30.ogg,,,,,,,,,0,0,0,0,0,0,0,0,0,0,0,0,,,,,,,,,,,,,0,0,0,0,0,29,29,29,,,,,,,,,,,,,,,,,,,,,,,,,,,,,,,,,,,,,,,,,,,,,,,,,,,,,,,,,,,,,,,,,,,,,,,,,,,,,,,,,,,,,,,,,,,,,,,,,,,,,182.18768473899945,186.70679058199948,,,,,102121,2,3,0,3,0,1,2,0,66,2021_Oct_21_1427,listening_fmri,3.2.4,59.77799123537464,
0,parcelated_audio/11/11_31.ogg,,,,,,,,,0,0,0,0,0,0,0,0,0,0,0,0,,,,,,,,,,,,,0,0,0,0,0,30,30,30,,,,,,,,,,,,,,,,,,,,,,,,,,,,,,,,,,,,,,,,,,,,,,,,,,,,,,,,,,,,,,,,,,,,,,,,,,,,,,,,,,,,,,,,,,,,,,,,,,,,,186.70761392900022,191.55727801099965,,,,,102121,2,3,0,3,0,1,2,0,66,2021_Oct_21_1427,listening_fmri,3.2.4,59.77799123537464,
0,parcelated_audio/11/11_32.ogg,,,,,,,,,0,0,0,0,0,0,0,0,0,0,0,0,,,,,,,,,,,,,0,0,0,0,0,31,31,31,,,,,,,,,,,,,,,,,,,,,,,,,,,,,,,,,,,,,,,,,,,,,,,,,,,,,,,,,,,,,,,,,,,,,,,,,,,,,,,,,,,,,,,,,,,,,,,,,,,,,191.55762968999989,195.61280935499963,,,,,102121,2,3,0,3,0,1,2,0,66,2021_Oct_21_1427,listening_fmri,3.2.4,59.77799123537464,
0,parcelated_audio/11/11_33.ogg,,,,,,,,,0,0,0,0,0,0,0,0,0,0,0,0,,,,,,,,,,,,,0,0,0,0,0,32,32,32,,,,,,,,,,,,,,,,,,,,,,,,,,,,,,,,,,,,,,,,,,,,,,,,,,,,,,,,,,,,,,,,,,,,,,,,,,,,,,,,,,,,,,,,,,,,,,,,,,,,,195.61333789499986,198.13602900499973,,,,,102121,2,3,0,3,0,1,2,0,66,2021_Oct_21_1427,listening_fmri,3.2.4,59.77799123537464,
0,parcelated_audio/11/11_34.ogg,,,,,,,,,0,0,0,0,0,0,0,0,0,0,0,0,,,,,,,,,,,,,0,0,0,0,0,33,33,33,,,,,,,,,,,,,,,,,,,,,,,,,,,,,,,,,,,,,,,,,,,,,,,,,,,,,,,,,,,,,,,,,,,,,,,,,,,,,,,,,,,,,,,,,,,,,,,,,,,,,198.1363863050001,201.44514415699996,,,,,102121,2,3,0,3,0,1,2,0,66,2021_Oct_21_1427,listening_fmri,3.2.4,59.77799123537464,
0,parcelated_audio/11/11_35.ogg,,,,,,,,,0,0,0,0,0,0,0,0,0,0,0,0,,,,,,,,,,,,,0,0,0,0,0,34,34,34,,,,,,,,,,,,,,,,,,,,,,,,,,,,,,,,,,,,,,,,,,,,,,,,,,,,,,,,,,,,,,,,,,,,,,,,,,,,,,,,,,,,,,,,,,,,,,,,,,,,,201.44565445099943,205.80260996699963,,,,,102121,2,3,0,3,0,1,2,0,66,2021_Oct_21_1427,listening_fmri,3.2.4,59.77799123537464,
0,parcelated_audio/11/11_36.ogg,,,,,,,,,0,0,0,0,0,0,0,0,0,0,0,0,,,,,,,,,,,,,0,0,0,0,0,35,35,35,,,,,,,,,,,,,,,,,,,,,,,,,,,,,,,,,,,,,,,,,,,,,,,,,,,,,,,,,,,,,,,,,,,,,,,,,,,,,,,,,,,,,,,,,,,,,,,,,,,,,205.80295723200015,214.81219078899994,,,,,102121,2,3,0,3,0,1,2,0,66,2021_Oct_21_1427,listening_fmri,3.2.4,59.77799123537464,
0,parcelated_audio/11/11_37.ogg,,,,,,,,,0,0,0,0,0,0,0,0,0,0,0,0,,,,,,,,,,,,,0,0,0,0,0,36,36,36,,,,,,,,,,,,,,,,,,,,,,,,,,,,,,,,,,,,,,,,,,,,,,,,,,,,,,,,,,,,,,,,,,,,,,,,,,,,,,,,,,,,,,,,,,,,,,,,,,,,,214.81253998899956,218.99192714799938,,,,,102121,2,3,0,3,0,1,2,0,66,2021_Oct_21_1427,listening_fmri,3.2.4,59.77799123537464,
0,parcelated_audio/11/11_38.ogg,,,,,,,,,0,0,0,0,0,0,0,0,0,0,0,0,,,,,,,,,,,,,0,0,0,0,0,37,37,37,,,,,,,,,,,,,,,,,,,,,,,,,,,,,,,,,,,,,,,,,,,,,,,,,,,,,,,,,,,,,,,,,,,,,,,,,,,,,,,,,,,,,,,,,,,,,,,,,,,,,218.9923819529995,225.14904498800024,,,,,102121,2,3,0,3,0,1,2,0,66,2021_Oct_21_1427,listening_fmri,3.2.4,59.77799123537464,
0,parcelated_audio/11/11_39.ogg,,,,,,,,,0,0,0,0,0,0,0,0,0,0,0,0,,,,,,,,,,,,,0,0,0,0,0,38,38,38,,,,,,,,,,,,,,,,,,,,,,,,,,,,,,,,,,,,,,,,,,,,,,,,,,,,,,,,,,,,,,,,,,,,,,,,,,,,,,,,,,,,,,,,,,,,,,,,,,,,,225.14939587800018,230.3357320949999,,,,,102121,2,3,0,3,0,1,2,0,66,2021_Oct_21_1427,listening_fmri,3.2.4,59.77799123537464,
0,parcelated_audio/11/11_40.ogg,,,,,,,,,0,0,0,0,0,0,0,0,0,0,0,0,,,,,,,,,,,,,0,0,0,0,0,39,39,39,,,,,,,,,,,,,,,,,,,,,,,,,,,,,,,,,,,,,,,,,,,,,,,,,,,,,,,,,,,,,,,,,,,,,,,,,,,,,,,,,,,,,,,,,,,,,,,,,,,,,230.33625582100012,236.1027553189997,,,,,102121,2,3,0,3,0,1,2,0,66,2021_Oct_21_1427,listening_fmri,3.2.4,59.77799123537464,
0,parcelated_audio/11/11_41.ogg,,,,,,,,,0,0,0,0,0,0,0,0,0,0,0,0,,,,,,,,,,,,,0,0,0,0,0,40,40,40,,,,,,,,,,,,,,,,,,,,,,,,,,,,,,,,,,,,,,,,,,,,,,,,,,,,,,,,,,,,,,,,,,,,,,,,,,,,,,,,,,,,,,,,,,,,,,,,,,,,,236.10304602799988,242.26076664299944,,,,,102121,2,3,0,3,0,1,2,0,66,2021_Oct_21_1427,listening_fmri,3.2.4,59.77799123537464,
0,,,,,,,,,,0,0,0,0,0,0,0,0,0,0,0,0,,,,,,,,,,,,,0,0,0,0,,,,,,,,,,,,,,,,,,,,,,,,,,,,,,,,,,,,,,,,,,,,,,,,,,,,,,,,,,,,,,,,,,,,,,,,,,,,,,,,,,,,,,,,,,,,,,,,,,,,,,,,,,,,,,,102121,2,3,0,3,0,1,2,0,66,2021_Oct_21_1427,listening_fmri,3.2.4,59.77799123537464,
0,,,,,,,,,,0,0,0,0,0,0,0,0,0,0,0,0,,,,,,,,,,,,,,,,,,,,,,,,,,,,,,,,,,,,,,242.2612549810001,248.2485716149995,287.4038272930002,None,,,,,,,,,,,,,,,,,,,,,,,,,,,,,,,,,,,,,,,,,,,,,,,,,,,,,,,,,,,,,,,,,,,,,,,,,,,,,,,,,,293.40412942199964,None,293.40412942199964,None,102121,2,3,0,3,0,1,2,0,66,2021_Oct_21_1427,listening_fmri,3.2.4,59.77799123537464,
0,,,,,,,,,,0,0,0,0,0,0,0,0,,,,,,,,,,,,,,,,,,,,,,,,,,,,,,,,,,,,,,,,,,,,,,,,,,,,,,,,,,,,,,,,,,,,,,,,,,,,,,,,,,,,,,,,,,,,,,,,,,,,,,,,,,,,,,,,,,,,,,,,,,,,,,,,,,,102121,2,3,0,3,0,1,2,0,66,2021_Oct_21_1427,listening_fmri,3.2.4,59.77799123537464,
1,,,,,,,,,,0,0,0,0,0,1,1,1,,,,,,,,,,,,,,,,,,,,,,,,,,,,,,,,,,,,,,,,,,,,,,,,,,,,,,,,,,,,,,,,,,,,,,,,,,,,,,,,,,,,,,,,,,,,,,,,,,,,,,,,,,,,,,,,,,,,,,,,,,,,,,,,,,,102121,2,3,0,3,0,1,2,0,66,2021_Oct_21_1427,listening_fmri,3.2.4,59.77799123537464,
2,,,,,,,,,,0,0,0,0,0,2,2,2,0,0,0,0,0,0,0,0,0,0,0,0,,,,,,,,,,,,,,,,,,,,,,,,,,,,,,,,,,294.4121661199997,None,294.4121661199997,None,6,0.34449261400004616,294.4121661199997,None,294.4121661199997,None,294.7875136849998,None,6,0.9132485460004318,294.7875136849998,None,294.7875136849998,None,295.7454918359999,None,295.7454918359999,None,295.7454918359999,None,6,0.5751467050004067,295.7454918359999,None,296.33748173999993,None,6,0.47716158799994446,296.33748173999993,None,296.33748173999993,None,296.9206188039998,None,296.9206188039998,None,296.9206188039998,None,296.9206188039998,None,296.9206188039998,None,296.9206188039998,None,296.9206188039998,None,None,296.9206188039998,None,,,,,,,,,,,,,,,,,,,,,,,,,,,,,,,,,102121,2,3,0,3,0,1,2,0,66,2021_Oct_21_1427,listening_fmri,3.2.4,59.77799123537464,
2,,,,,,,,,,0,0,0,0,0,2,2,2,0,0,0,0,0,0,0,0,1,0,1,0,,,,,,,,,,,,,,,,,,,,,,,,,,,,,,,,,,,,,,,,,,,,,,,,,,,,303.21186133799984,None,303.21186133799984,None,303.21186133799984,None,6,1.1769204810007068,303.21186133799984,None,304.412507041,None,6,0.764158062000206,304.412507041,None,304.412507041,None,305.304744262,None,305.304744262,None,305.304744262,None,305.304744262,None,305.304744262,None,305.304744262,None,305.304744262,None,None,305.304744262,None,,,,,,,,,,,,,,,,,,,,,,,,,,,,,,,,,102121,2,3,0,3,0,1,2,0,66,2021_Oct_21_1427,listening_fmri,3.2.4,59.77799123537464,
2,,,,,,,,,,0,0,0,0,0,2,2,2,0,0,0,0,0,0,0,0,2,0,2,0,,,,,,,,,,,,,,,,,,,,,,,,,,,,,,,,,,,,,,,,,,,,,,,,,,,,318.4284384620005,None,318.4284384620005,None,318.4284384620005,None,7,0.855353596999521,318.4284384620005,None,319.3044535480003,None,7,0.4912659560004613,319.3044535480003,None,319.3044535480003,None,319.895357032,None,319.895357032,None,319.895357032,None,319.895357032,None,319.895357032,None,319.895357032,None,319.895357032,None,None,319.895357032,None,,,,,,,,,,,,,,,,,,,,,,,,,,,,,,,,,102121,2,3,0,3,0,1,2,0,66,2021_Oct_21_1427,listening_fmri,3.2.4,59.77799123537464,
2,,,,,,,,,,0,0,0,0,0,2,2,2,0,0,0,0,0,0,0,0,3,0,3,0,,,,,,,,,,,,,,,,,,,,,,,,,,,,,,,,,,,,,,,,,,,,,,,,,,,,339.0708210189996,None,339.0708210189996,None,339.0708210189996,None,6,0.2518596489999254,339.0708210189996,None,339.3548679020005,None,6,0.5089274120000482,339.3548679020005,None,339.3548679020005,None,339.9615869959998,None,339.9615869959998,None,339.9615869959998,None,339.9615869959998,None,339.9615869959998,None,339.9615869959998,None,339.9615869959998,None,None,339.9615869959998,None,,,,,,,,,,,,,,,,,,,,,,,,,,,,,,,,,102121,2,3,0,3,0,1,2,0,66,2021_Oct_21_1427,listening_fmri,3.2.4,59.77799123537464,
2,,,,,,,,,,0,0,0,0,0,2,2,2,0,0,0,0,0,0,0,0,,,,,,,,,,,,,,,,,,,,,,,,,,,,,,,,,,,,,,,,,,,,,,,,,,,,,,,,,,,,,,,,,,,,,,,,,,,,,,,,,,,,,,,,,,,352.0712453650003,None,7,0.37544950599931326,352.0712453650003,None,352.0712453650003,None,352.4884068069996,None,352.4884068069996,None,352.4884068069996,None,7,0.4152420800000982,352.4884068069996,None,,,,,,,,,,,,,,,102121,2,3,0,3,0,1,2,0,66,2021_Oct_21_1427,listening_fmri,3.2.4,59.77799123537464,
2,parcelated_audio/42/42_1.ogg,,,,,,,,,0,0,0,0,0,2,2,2,0,0,0,0,,,,,,,,,,,,,0,0,0,0,0,0,0,0,,,,,,,,,,,,,,,,,,,,,,,,,,,,,,,,,,,,,,,,,,,,,,,,,,,,,,,,,,,,,,,,,,,,,,,,,,,,,,,,,,,,,,,,,,,,,352.92097842099975,None,7,0.42781940900022164,352.92097842099975,None,308.2308064409999,311.2321494379994,311.23985878999974,319.6071445589996,,,,,102121,2,3,0,3,0,1,2,0,66,2021_Oct_21_1427,listening_fmri,3.2.4,59.77799123537464,
2,parcelated_audio/42/42_2.ogg,,,,,,,,,0,0,0,0,0,2,2,2,0,0,0,0,,,,,,,,,,,,,0,0,0,0,0,1,1,1,,,,,,,,,,,,,,,,,,,,,,,,,,,,,,,,,,,,,,,,,,,,,,,,,,,,,,,,,,,,,,,,,,,,,,,,,,,,,,,,,,,,,,,,,,,,,,,,,,,,,319.6074927439995,332.3388038100002,,,,,102121,2,3,0,3,0,1,2,0,66,2021_Oct_21_1427,listening_fmri,3.2.4,59.77799123537464,
2,parcelated_audio/42/42_3.ogg,,,,,,,,,0,0,0,0,0,2,2,2,0,0,0,0,,,,,,,,,,,,,0,0,0,0,0,2,2,2,,,,,,,,,,,,,,,,,,,,,,,,,,,,,,,,,,,,,,,,,,,,,,,,,,,,,,,,,,,,,,,,,,,,,,,,,,,,,,,,,,,,,,,,,,,,,,,,,,,,,332.3396514779997,342.72584228399955,,,,,102121,2,3,0,3,0,1,2,0,66,2021_Oct_21_1427,listening_fmri,3.2.4,59.77799123537464,
2,parcelated_audio/42/42_4.ogg,,,,,,,,,0,0,0,0,0,2,2,2,0,0,0,0,,,,,,,,,,,,,0,0,0,0,0,3,3,3,,,,,,,,,,,,,,,,,,,,,,,,,,,,,,,,,,,,,,,,,,,,,,,,,,,,,,,,,,,,,,,,,,,,,,,,,,,,,,,,,,,,,,,,,,,,,,,,,,,,,342.7261299769998,356.4268253399996,,,,,102121,2,3,0,3,0,1,2,0,66,2021_Oct_21_1427,listening_fmri,3.2.4,59.77799123537464,
2,parcelated_audio/42/42_5.ogg,,,,,,,,,0,0,0,0,0,2,2,2,0,0,0,0,,,,,,,,,,,,,0,0,0,0,0,4,4,4,,,,,,,,,,,,,,,,,,,,,,,,,,,,,,,,,,,,,,,,,,,,,,,,,,,,,,,,,,,,,,,,,,,,,,,,,,,,,,,,,,,,,,,,,,,,,,,,,,,,,356.42715640200004,367.86594281199996,,,,,102121,2,3,0,3,0,1,2,0,66,2021_Oct_21_1427,listening_fmri,3.2.4,59.77799123537464,
2,parcelated_audio/42/42_6.ogg,,,,,,,,,0,0,0,0,0,2,2,2,0,0,0,0,,,,,,,,,,,,,0,0,0,0,0,5,5,5,,,,,,,,,,,,,,,,,,,,,,,,,,,,,,,,,,,,,,,,,,,,,,,,,,,,,,,,,,,,,,,,,,,,,,,,,,,,,,,,,,,,,,,,,,,,,,,,,,,,,367.8663379889995,374.3496746709998,,,,,102121,2,3,0,3,0,1,2,0,66,2021_Oct_21_1427,listening_fmri,3.2.4,59.77799123537464,
2,parcelated_audio/42/42_7.ogg,,,,,,,,,0,0,0,0,0,2,2,2,0,0,0,0,,,,,,,,,,,,,0,0,0,0,0,6,6,6,,,,,,,,,,,,,,,,,,,,,,,,,,,,,,,,,,,,,,,,,,,,,,,,,,,,,,,,,,,,,,,,,,,,,,,,,,,,,,,,,,,,,,,,,,,,,,,,,,,,,374.34996646699983,379.5468096599998,,,,,102121,2,3,0,3,0,1,2,0,66,2021_Oct_21_1427,listening_fmri,3.2.4,59.77799123537464,
2,parcelated_audio/42/42_8.ogg,,,,,,,,,0,0,0,0,0,2,2,2,0,0,0,0,,,,,,,,,,,,,0,0,0,0,0,7,7,7,,,,,,,,,,,,,,,,,,,,,,,,,,,,,,,,,,,,,,,,,,,,,,,,,,,,,,,,,,,,,,,,,,,,,,,,,,,,,,,,,,,,,,,,,,,,,,,,,,,,,379.5472233569999,382.7116512749999,,,,,102121,2,3,0,3,0,1,2,0,66,2021_Oct_21_1427,listening_fmri,3.2.4,59.77799123537464,
2,parcelated_audio/42/42_9.ogg,,,,,,,,,0,0,0,0,0,2,2,2,0,0,0,0,,,,,,,,,,,,,0,0,0,0,0,8,8,8,,,,,,,,,,,,,,,,,,,,,,,,,,,,,,,,,,,,,,,,,,,,,,,,,,,,,,,,,,,,,,,,,,,,,,,,,,,,,,,,,,,,,,,,,,,,,,,,,,,,,382.7122718800001,391.2607598610002,,,,,102121,2,3,0,3,0,1,2,0,66,2021_Oct_21_1427,listening_fmri,3.2.4,59.77799123537464,
2,parcelated_audio/42/42_10.ogg,,,,,,,,,0,0,0,0,0,2,2,2,0,0,0,0,,,,,,,,,,,,,0,0,0,0,0,9,9,9,,,,,,,,,,,,,,,,,,,,,,,,,,,,,,,,,,,,,,,,,,,,,,,,,,,,,,,,,,,,,,,,,,,,,,,,,,,,,,,,,,,,,,,,,,,,,,,,,,,,,391.26104883100015,395.58426913199946,,,,,102121,2,3,0,3,0,1,2,0,66,2021_Oct_21_1427,listening_fmri,3.2.4,59.77799123537464,
2,parcelated_audio/42/42_11.ogg,,,,,,,,,0,0,0,0,0,2,2,2,0,0,0,0,,,,,,,,,,,,,0,0,0,0,0,10,10,10,,,,,,,,,,,,,,,,,,,,,,,,,,,,,,,,,,,,,,,,,,,,,,,,,,,,,,,,,,,,,,,,,,,,,,,,,,,,,,,,,,,,,,,,,,,,,,,,,,,,,395.5845449560002,400.5772282600001,,,,,102121,2,3,0,3,0,1,2,0,66,2021_Oct_21_1427,listening_fmri,3.2.4,59.77799123537464,
2,parcelated_audio/42/42_12.ogg,,,,,,,,,0,0,0,0,0,2,2,2,0,0,0,0,,,,,,,,,,,,,0,0,0,0,0,11,11,11,,,,,,,,,,,,,,,,,,,,,,,,,,,,,,,,,,,,,,,,,,,,,,,,,,,,,,,,,,,,,,,,,,,,,,,,,,,,,,,,,,,,,,,,,,,,,,,,,,,,,400.5781153480002,406.54920415499964,,,,,102121,2,3,0,3,0,1,2,0,66,2021_Oct_21_1427,listening_fmri,3.2.4,59.77799123537464,
2,parcelated_audio/42/42_13.ogg,,,,,,,,,0,0,0,0,0,2,2,2,0,0,0,0,,,,,,,,,,,,,0,0,0,0,0,12,12,12,,,,,,,,,,,,,,,,,,,,,,,,,,,,,,,,,,,,,,,,,,,,,,,,,,,,,,,,,,,,,,,,,,,,,,,,,,,,,,,,,,,,,,,,,,,,,,,,,,,,,406.54955249900013,413.70417732999977,,,,,102121,2,3,0,3,0,1,2,0,66,2021_Oct_21_1427,listening_fmri,3.2.4,59.77799123537464,
2,parcelated_audio/42/42_14.ogg,,,,,,,,,0,0,0,0,0,2,2,2,0,0,0,0,,,,,,,,,,,,,0,0,0,0,0,13,13,13,,,,,,,,,,,,,,,,,,,,,,,,,,,,,,,,,,,,,,,,,,,,,,,,,,,,,,,,,,,,,,,,,,,,,,,,,,,,,,,,,,,,,,,,,,,,,,,,,,,,,413.70457641899975,418.41186854700027,,,,,102121,2,3,0,3,0,1,2,0,66,2021_Oct_21_1427,listening_fmri,3.2.4,59.77799123537464,
2,parcelated_audio/42/42_15.ogg,,,,,,,,,0,0,0,0,0,2,2,2,0,0,0,0,,,,,,,,,,,,,0,0,0,0,0,14,14,14,,,,,,,,,,,,,,,,,,,,,,,,,,,,,,,,,,,,,,,,,,,,,,,,,,,,,,,,,,,,,,,,,,,,,,,,,,,,,,,,,,,,,,,,,,,,,,,,,,,,,418.41221768499963,424.2660338529995,,,,,102121,2,3,0,3,0,1,2,0,66,2021_Oct_21_1427,listening_fmri,3.2.4,59.77799123537464,
2,parcelated_audio/42/42_16.ogg,,,,,,,,,0,0,0,0,0,2,2,2,0,0,0,0,,,,,,,,,,,,,0,0,0,0,0,15,15,15,,,,,,,,,,,,,,,,,,,,,,,,,,,,,,,,,,,,,,,,,,,,,,,,,,,,,,,,,,,,,,,,,,,,,,,,,,,,,,,,,,,,,,,,,,,,,,,,,,,,,424.26638402000026,429.83720457399977,,,,,102121,2,3,0,3,0,1,2,0,66,2021_Oct_21_1427,listening_fmri,3.2.4,59.77799123537464,
2,parcelated_audio/42/42_17.ogg,,,,,,,,,0,0,0,0,0,2,2,2,0,0,0,0,,,,,,,,,,,,,0,0,0,0,0,16,16,16,,,,,,,,,,,,,,,,,,,,,,,,,,,,,,,,,,,,,,,,,,,,,,,,,,,,,,,,,,,,,,,,,,,,,,,,,,,,,,,,,,,,,,,,,,,,,,,,,,,,,429.83755132900023,439.51411061399995,,,,,102121,2,3,0,3,0,1,2,0,66,2021_Oct_21_1427,listening_fmri,3.2.4,59.77799123537464,
2,parcelated_audio/42/42_18.ogg,,,,,,,,,0,0,0,0,0,2,2,2,0,0,0,0,,,,,,,,,,,,,0,0,0,0,0,17,17,17,,,,,,,,,,,,,,,,,,,,,,,,,,,,,,,,,,,,,,,,,,,,,,,,,,,,,,,,,,,,,,,,,,,,,,,,,,,,,,,,,,,,,,,,,,,,,,,,,,,,,439.51465838399963,444.96620089499993,,,,,102121,2,3,0,3,0,1,2,0,66,2021_Oct_21_1427,listening_fmri,3.2.4,59.77799123537464,
2,parcelated_audio/42/42_19.ogg,,,,,,,,,0,0,0,0,0,2,2,2,0,0,0,0,,,,,,,,,,,,,0,0,0,0,0,18,18,18,,,,,,,,,,,,,,,,,,,,,,,,,,,,,,,,,,,,,,,,,,,,,,,,,,,,,,,,,,,,,,,,,,,,,,,,,,,,,,,,,,,,,,,,,,,,,,,,,,,,,444.9667581619997,454.11441364500024,,,,,102121,2,3,0,3,0,1,2,0,66,2021_Oct_21_1427,listening_fmri,3.2.4,59.77799123537464,
2,parcelated_audio/42/42_20.ogg,,,,,,,,,0,0,0,0,0,2,2,2,0,0,0,0,,,,,,,,,,,,,0,0,0,0,0,19,19,19,,,,,,,,,,,,,,,,,,,,,,,,,,,,,,,,,,,,,,,,,,,,,,,,,,,,,,,,,,,,,,,,,,,,,,,,,,,,,,,,,,,,,,,,,,,,,,,,,,,,,454.1147202860002,458.76581163599985,,,,,102121,2,3,0,3,0,1,2,0,66,2021_Oct_21_1427,listening_fmri,3.2.4,59.77799123537464,
2,parcelated_audio/42/42_21.ogg,,,,,,,,,0,0,0,0,0,2,2,2,0,0,0,0,,,,,,,,,,,,,0,0,0,0,0,20,20,20,,,,,,,,,,,,,,,,,,,,,,,,,,,,,,,,,,,,,,,,,,,,,,,,,,,,,,,,,,,,,,,,,,,,,,,,,,,,,,,,,,,,,,,,,,,,,,,,,,,,,458.7661417519994,468.66635406800015,,,,,102121,2,3,0,3,0,1,2,0,66,2021_Oct_21_1427,listening_fmri,3.2.4,59.77799123537464,
2,parcelated_audio/42/42_22.ogg,,,,,,,,,0,0,0,0,0,2,2,2,0,0,0,0,,,,,,,,,,,,,0,0,0,0,0,21,21,21,,,,,,,,,,,,,,,,,,,,,,,,,,,,,,,,,,,,,,,,,,,,,,,,,,,,,,,,,,,,,,,,,,,,,,,,,,,,,,,,,,,,,,,,,,,,,,,,,,,,,468.6667870269994,473.4208082129999,,,,,102121,2,3,0,3,0,1,2,0,66,2021_Oct_21_1427,listening_fmri,3.2.4,59.77799123537464,
2,parcelated_audio/42/42_23.ogg,,,,,,,,,0,0,0,0,0,2,2,2,0,0,0,0,,,,,,,,,,,,,0,0,0,0,0,22,22,22,,,,,,,,,,,,,,,,,,,,,,,,,,,,,,,,,,,,,,,,,,,,,,,,,,,,,,,,,,,,,,,,,,,,,,,,,,,,,,,,,,,,,,,,,,,,,,,,,,,,,473.42108307499984,479.65073103800023,,,,,102121,2,3,0,3,0,1,2,0,66,2021_Oct_21_1427,listening_fmri,3.2.4,59.77799123537464,
2,parcelated_audio/42/42_24.ogg,,,,,,,,,0,0,0,0,0,2,2,2,0,0,0,0,,,,,,,,,,,,,0,0,0,0,0,23,23,23,,,,,,,,,,,,,,,,,,,,,,,,,,,,,,,,,,,,,,,,,,,,,,,,,,,,,,,,,,,,,,,,,,,,,,,,,,,,,,,,,,,,,,,,,,,,,,,,,,,,,479.65114021499994,488.1221507399996,,,,,102121,2,3,0,3,0,1,2,0,66,2021_Oct_21_1427,listening_fmri,3.2.4,59.77799123537464,
2,parcelated_audio/42/42_25.ogg,,,,,,,,,0,0,0,0,0,2,2,2,0,0,0,0,,,,,,,,,,,,,0,0,0,0,0,24,24,24,,,,,,,,,,,,,,,,,,,,,,,,,,,,,,,,,,,,,,,,,,,,,,,,,,,,,,,,,,,,,,,,,,,,,,,,,,,,,,,,,,,,,,,,,,,,,,,,,,,,,488.12242478400003,494.38071477299945,,,,,102121,2,3,0,3,0,1,2,0,66,2021_Oct_21_1427,listening_fmri,3.2.4,59.77799123537464,
2,parcelated_audio/42/42_26.ogg,,,,,,,,,0,0,0,0,0,2,2,2,0,0,0,0,,,,,,,,,,,,,0,0,0,0,0,25,25,25,,,,,,,,,,,,,,,,,,,,,,,,,,,,,,,,,,,,,,,,,,,,,,,,,,,,,,,,,,,,,,,,,,,,,,,,,,,,,,,,,,,,,,,,,,,,,,,,,,,,,494.38102037299996,500.2707747249997,,,,,102121,2,3,0,3,0,1,2,0,66,2021_Oct_21_1427,listening_fmri,3.2.4,59.77799123537464,
2,parcelated_audio/42/42_27.ogg,,,,,,,,,0,0,0,0,0,2,2,2,0,0,0,0,,,,,,,,,,,,,0,0,0,0,0,26,26,26,,,,,,,,,,,,,,,,,,,,,,,,,,,,,,,,,,,,,,,,,,,,,,,,,,,,,,,,,,,,,,,,,,,,,,,,,,,,,,,,,,,,,,,,,,,,,,,,,,,,,500.2710853970002,507.9381926750002,,,,,102121,2,3,0,3,0,1,2,0,66,2021_Oct_21_1427,listening_fmri,3.2.4,59.77799123537464,
2,parcelated_audio/42/42_28.ogg,,,,,,,,,0,0,0,0,0,2,2,2,0,0,0,0,,,,,,,,,,,,,0,0,0,0,0,27,27,27,,,,,,,,,,,,,,,,,,,,,,,,,,,,,,,,,,,,,,,,,,,,,,,,,,,,,,,,,,,,,,,,,,,,,,,,,,,,,,,,,,,,,,,,,,,,,,,,,,,,,507.9384690319994,513.5967844469997,,,,,102121,2,3,0,3,0,1,2,0,66,2021_Oct_21_1427,listening_fmri,3.2.4,59.77799123537464,
2,parcelated_audio/42/42_29.ogg,,,,,,,,,0,0,0,0,0,2,2,2,0,0,0,0,,,,,,,,,,,,,0,0,0,0,0,28,28,28,,,,,,,,,,,,,,,,,,,,,,,,,,,,,,,,,,,,,,,,,,,,,,,,,,,,,,,,,,,,,,,,,,,,,,,,,,,,,,,,,,,,,,,,,,,,,,,,,,,,,513.5970693519994,520.484746999,,,,,102121,2,3,0,3,0,1,2,0,66,2021_Oct_21_1427,listening_fmri,3.2.4,59.77799123537464,
2,parcelated_audio/42/42_30.ogg,,,,,,,,,0,0,0,0,0,2,2,2,0,0,0,0,,,,,,,,,,,,,0,0,0,0,0,29,29,29,,,,,,,,,,,,,,,,,,,,,,,,,,,,,,,,,,,,,,,,,,,,,,,,,,,,,,,,,,,,,,,,,,,,,,,,,,,,,,,,,,,,,,,,,,,,,,,,,,,,,520.485070105,531.3680027769997,,,,,102121,2,3,0,3,0,1,2,0,66,2021_Oct_21_1427,listening_fmri,3.2.4,59.77799123537464,
2,parcelated_audio/42/42_31.ogg,,,,,,,,,0,0,0,0,0,2,2,2,0,0,0,0,,,,,,,,,,,,,0,0,0,0,0,30,30,30,,,,,,,,,,,,,,,,,,,,,,,,,,,,,,,,,,,,,,,,,,,,,,,,,,,,,,,,,,,,,,,,,,,,,,,,,,,,,,,,,,,,,,,,,,,,,,,,,,,,,531.3683955799997,537.5609952799996,,,,,102121,2,3,0,3,0,1,2,0,66,2021_Oct_21_1427,listening_fmri,3.2.4,59.77799123537464,
2,parcelated_audio/42/42_32.ogg,,,,,,,,,0,0,0,0,0,2,2,2,0,0,0,0,,,,,,,,,,,,,0,0,0,0,0,31,31,31,,,,,,,,,,,,,,,,,,,,,,,,,,,,,,,,,,,,,,,,,,,,,,,,,,,,,,,,,,,,,,,,,,,,,,,,,,,,,,,,,,,,,,,,,,,,,,,,,,,,,537.5613475709997,545.7170515030002,,,,,102121,2,3,0,3,0,1,2,0,66,2021_Oct_21_1427,listening_fmri,3.2.4,59.77799123537464,
2,parcelated_audio/42/42_33.ogg,,,,,,,,,0,0,0,0,0,2,2,2,0,0,0,0,,,,,,,,,,,,,0,0,0,0,0,32,32,32,,,,,,,,,,,,,,,,,,,,,,,,,,,,,,,,,,,,,,,,,,,,,,,,,,,,,,,,,,,,,,,,,,,,,,,,,,,,,,,,,,,,,,,,,,,,,,,,,,,,,545.7176151029998,552.7664049719997,,,,,102121,2,3,0,3,0,1,2,0,66,2021_Oct_21_1427,listening_fmri,3.2.4,59.77799123537464,
2,parcelated_audio/42/42_34.ogg,,,,,,,,,0,0,0,0,0,2,2,2,0,0,0,0,,,,,,,,,,,,,0,0,0,0,0,33,33,33,,,,,,,,,,,,,,,,,,,,,,,,,,,,,,,,,,,,,,,,,,,,,,,,,,,,,,,,,,,,,,,,,,,,,,,,,,,,,,,,,,,,,,,,,,,,,,,,,,,,,552.7667575059995,563.4709986629996,,,,,102121,2,3,0,3,0,1,2,0,66,2021_Oct_21_1427,listening_fmri,3.2.4,59.77799123537464,
2,parcelated_audio/42/42_35.ogg,,,,,,,,,0,0,0,0,0,2,2,2,0,0,0,0,,,,,,,,,,,,,0,0,0,0,0,34,34,34,,,,,,,,,,,,,,,,,,,,,,,,,,,,,,,,,,,,,,,,,,,,,,,,,,,,,,,,,,,,,,,,,,,,,,,,,,,,,,,,,,,,,,,,,,,,,,,,,,,,,563.4713633949996,573.2220351699998,,,,,102121,2,3,0,3,0,1,2,0,66,2021_Oct_21_1427,listening_fmri,3.2.4,59.77799123537464,
2,,,,,,,,,,0,0,0,0,0,2,2,2,0,0,0,0,,,,,,,,,,,,,0,0,0,0,,,,,,,,,,,,,,,,,,,,,,,,,,,,,,,,,,,,,,,,,,,,,,,,,,,,,,,,,,,,,,,,,,,,,,,,,,,,,,,,,,,,,,,,,,,,,,,,,,,,,,,,,,,,,,,102121,2,3,0,3,0,1,2,0,66,2021_Oct_21_1427,listening_fmri,3.2.4,59.77799123537464,
,,,,,,,,,,,,,,,,,,,,,,,,,,,,,,,,,,,,,,,,,,,,,,,,,,,,,,,,,,,573.2225259770003,579.2164925699999,618.3713403689999,None,,,,,,,,,,,,,,,,,,,,,,,,,,,,,,,,,,,,,,,,,,,,,,,,,,,,,,,,,,,,,,,,,,,,,,,,,,,,,,,,,,624.3739315880002,None,624.3739315880002,None,,,,,,,,,,,,,,,
﻿count,audio,trials_14.thisRepN,trials_14.thisTrialN,trials_14.thisN,trials_14.thisIndex,trials_3.thisRepN,trials_3.thisTrialN,trials_3.thisN,trials_3.thisIndex,trials_4.thisRepN,trials_4.thisTrialN,trials_4.thisN,trials_4.thisIndex,trials_6.thisRepN,trials_6.thisTrialN,trials_6.thisN,trials_6.thisIndex,trials_9.thisRepN,trials_9.thisTrialN,trials_9.thisN,trials_9.thisIndex,trials_10.thisRepN,trials_10.thisTrialN,trials_10.thisN,trials_10.thisIndex,trials_11.thisRepN,trials_11.thisTrialN,trials_11.thisN,trials_11.thisIndex,trials_12.thisRepN,trials_12.thisTrialN,trials_12.thisN,trials_12.thisIndex,trials_25.thisRepN,trials_25.thisTrialN,trials_25.thisN,trials_25.thisIndex,trials_15.thisRepN,trials_15.thisTrialN,trials_15.thisN,trials_15.thisIndex,trials_26.thisRepN,trials_26.thisTrialN,trials_26.thisN,trials_26.thisIndex,story_list_block2,action_list_block2,textTrigger.started,textTrigger.stopped,getTrigger.keys,getTrigger.rt,getTrigger.started,getTrigger.stopped,triggerTime,text_76.started,text_76.stopped,text_77.started,text_77.stopped,startWait,endWait,image_23.started,image_23.stopped,text_55.started,text_55.stopped,text_56.started,text_56.stopped,key_resp_2.keys,key_resp_2.rt,key_resp_2.started,key_resp_2.stopped,text_82.started,text_82.stopped,text_57.started,text_57.stopped,key_resp_17.keys,key_resp_17.rt,key_resp_17.started,key_resp_17.stopped,text_83.started,text_83.stopped,text_60.started,text_60.stopped,image_2.started,image_2.stopped,text_58.started,text_58.stopped,key_resp_23.keys,key_resp_23.rt,key_resp_23.started,key_resp_23.stopped,text_62.started,text_62.stopped,key_resp_18.keys,key_resp_18.rt,key_resp_18.started,key_resp_18.stopped,text_84.started,text_84.stopped,question1_2.started,question1_2.stopped,question2_2.started,question2_2.stopped,question3_2.started,question3_2.stopped,question4_2.started,question4_2.stopped,question5_2.started,question5_2.stopped,question6_2.started,question6_2.stopped,image_15.started,image_15.stopped,key_resp.keys,key_resp.started,key_resp.stopped,text_59.started,text_59.stopped,key_resp_19.keys,key_resp_19.rt,key_resp_19.started,key_resp_19.stopped,text_85.started,text_85.stopped,text_61.started,text_61.stopped,image_17.started,image_17.stopped,text_63.started,text_63.stopped,key_resp_24.keys,key_resp_24.rt,key_resp_24.started,key_resp_24.stopped,text_64.started,text_64.stopped,key_resp_20.keys,key_resp_20.rt,key_resp_20.started,key_resp_20.stopped,storyImage_StartTime,storyImage_EndTime,clip_StartTime,clip_EndTime,text_67.started,text_67.stopped,text_68.started,text_68.stopped,participant,sA,sB,lA,lB,block_struct,play_stories,block,behavioral,random_seed,date,expName,psychopyVersion,frameRate,
0,,,,,,,,,,0,0,0,0,0,0,0,0,0,0,0,0,0,0,0,0,0,0,0,0,,,,,,,,,,,,,,,,,[11 44 42 31 13 22 33 24],[2 3 1 3 4 4 1 2],17.281263167999896,None,equal,27.85152203799953,17.281263167999896,None,27.86870553100016,17.281263167999896,None,17.281263167999896,None,0.0003354539994688821,5.9984919050002645,45.15385134099961,None,51.1650978079997,None,51.1650978079997,None,6,1.7926883240006646,51.1650978079997,None,51.1650978079997,None,52.98722207999981,None,6,0.7755105480000566,52.98722207999981,None,52.98722207999981,None,53.79835004500001,None,53.79835004500001,None,53.79835004500001,None,6,0.6643369429993982,53.79835004500001,None,54.487271576999774,None,6,0.5735189189999801,54.487271576999774,None,54.487271576999774,None,55.16562869500012,None,55.16562869500012,None,55.16562869500012,None,55.16562869500012,None,55.16562869500012,None,55.16562869500012,None,55.16562869500012,None,None,55.16562869500012,None,,,,,,,,,,,,,,,,,,,,,,,,,,,,,,,,,102121,2,3,0,3,0,1,2,0,66,2021_Oct_21_1427,listening_fmri,3.2.4,59.77799123537464,
0,,,,,,,,,,0,0,0,0,0,0,0,0,0,0,0,0,0,0,0,0,,,,,,,,,,,,,,,,,,,,,,,,,,,,,,,,,,,,,,,,,,,,,,,,,,,,,,,,,,,,,,,,,,,,,,,,,,,,,,,,,,,,,,,,,,,66.19810646499991,None,6,2.687748338000347,66.19810646499991,None,66.19810646499991,None,68.91500399100005,None,68.91500399100005,None,68.91500399100005,None,6,0.7127751729994998,68.91500399100005,None,,,,,,,,,,,,,,,102121,2,3,0,3,0,1,2,0,66,2021_Oct_21_1427,listening_fmri,3.2.4,59.77799123537464,
0,parcelated_audio/11/11_1.ogg,,,,,,,,,0,0,0,0,0,0,0,0,0,0,0,0,,,,,,,,,,,,,0,0,0,0,0,0,0,0,,,,,,,,,,,,,,,,,,,,,,,,,,,,,,,,,,,,,,,,,,,,,,,,,,,,,,,,,,,,,,,,,,,,,,,,,,,,,,,,,,,,,,,,,,,,,69.65387883899984,None,6,0.2248953900007109,69.65387883899984,None,24.757016818999546,27.759490675999587,27.770889972000077,39.85402171900023,,,,,102121,2,3,0,3,0,1,2,0,66,2021_Oct_21_1427,listening_fmri,3.2.4,59.77799123537464,
0,parcelated_audio/11/11_2.ogg,,,,,,,,,0,0,0,0,0,0,0,0,0,0,0,0,,,,,,,,,,,,,0,0,0,0,0,1,1,1,,,,,,,,,,,,,,,,,,,,,,,,,,,,,,,,,,,,,,,,,,,,,,,,,,,,,,,,,,,,,,,,,,,,,,,,,,,,,,,,,,,,,,,,,,,,,,,,,,,,,39.854374534999806,44.342566726999394,,,,,102121,2,3,0,3,0,1,2,0,66,2021_Oct_21_1427,listening_fmri,3.2.4,59.77799123537464,
0,parcelated_audio/11/11_3.ogg,,,,,,,,,0,0,0,0,0,0,0,0,0,0,0,0,,,,,,,,,,,,,0,0,0,0,0,2,2,2,,,,,,,,,,,,,,,,,,,,,,,,,,,,,,,,,,,,,,,,,,,,,,,,,,,,,,,,,,,,,,,,,,,,,,,,,,,,,,,,,,,,,,,,,,,,,,,,,,,,,44.342843589999575,49.33430128500004,,,,,102121,2,3,0,3,0,1,2,0,66,2021_Oct_21_1427,listening_fmri,3.2.4,59.77799123537464,
0,parcelated_audio/11/11_4.ogg,,,,,,,,,0,0,0,0,0,0,0,0,0,0,0,0,,,,,,,,,,,,,0,0,0,0,0,3,3,3,,,,,,,,,,,,,,,,,,,,,,,,,,,,,,,,,,,,,,,,,,,,,,,,,,,,,,,,,,,,,,,,,,,,,,,,,,,,,,,,,,,,,,,,,,,,,,,,,,,,,49.33460224299961,58.43146343499939,,,,,102121,2,3,0,3,0,1,2,0,66,2021_Oct_21_1427,listening_fmri,3.2.4,59.77799123537464,
0,parcelated_audio/11/11_5.ogg,,,,,,,,,0,0,0,0,0,0,0,0,0,0,0,0,,,,,,,,,,,,,0,0,0,0,0,4,4,4,,,,,,,,,,,,,,,,,,,,,,,,,,,,,,,,,,,,,,,,,,,,,,,,,,,,,,,,,,,,,,,,,,,,,,,,,,,,,,,,,,,,,,,,,,,,,,,,,,,,,58.4321069789994,64.18626021799992,,,,,102121,2,3,0,3,0,1,2,0,66,2021_Oct_21_1427,listening_fmri,3.2.4,59.77799123537464,
0,parcelated_audio/11/11_6.ogg,,,,,,,,,0,0,0,0,0,0,0,0,0,0,0,0,,,,,,,,,,,,,0,0,0,0,0,5,5,5,,,,,,,,,,,,,,,,,,,,,,,,,,,,,,,,,,,,,,,,,,,,,,,,,,,,,,,,,,,,,,,,,,,,,,,,,,,,,,,,,,,,,,,,,,,,,,,,,,,,,64.18650750300003,68.780839174,,,,,102121,2,3,0,3,0,1,2,0,66,2021_Oct_21_1427,listening_fmri,3.2.4,59.77799123537464,
0,parcelated_audio/11/11_7.ogg,,,,,,,,,0,0,0,0,0,0,0,0,0,0,0,0,,,,,,,,,,,,,0,0,0,0,0,6,6,6,,,,,,,,,,,,,,,,,,,,,,,,,,,,,,,,,,,,,,,,,,,,,,,,,,,,,,,,,,,,,,,,,,,,,,,,,,,,,,,,,,,,,,,,,,,,,,,,,,,,,68.7814576109995,75.33818122499997,,,,,102121,2,3,0,3,0,1,2,0,66,2021_Oct_21_1427,listening_fmri,3.2.4,59.77799123537464,
0,parcelated_audio/11/11_8.ogg,,,,,,,,,0,0,0,0,0,0,0,0,0,0,0,0,,,,,,,,,,,,,0,0,0,0,0,7,7,7,,,,,,,,,,,,,,,,,,,,,,,,,,,,,,,,,,,,,,,,,,,,,,,,,,,,,,,,,,,,,,,,,,,,,,,,,,,,,,,,,,,,,,,,,,,,,,,,,,,,,75.33857014899968,81.11555794800006,,,,,102121,2,3,0,3,0,1,2,0,66,2021_Oct_21_1427,listening_fmri,3.2.4,59.77799123537464,
0,parcelated_audio/11/11_9.ogg,,,,,,,,,0,0,0,0,0,0,0,0,0,0,0,0,,,,,,,,,,,,,0,0,0,0,0,8,8,8,,,,,,,,,,,,,,,,,,,,,,,,,,,,,,,,,,,,,,,,,,,,,,,,,,,,,,,,,,,,,,,,,,,,,,,,,,,,,,,,,,,,,,,,,,,,,,,,,,,,,81.1158807769998,85.51418072700017,,,,,102121,2,3,0,3,0,1,2,0,66,2021_Oct_21_1427,listening_fmri,3.2.4,59.77799123537464,
0,parcelated_audio/11/11_10.ogg,,,,,,,,,0,0,0,0,0,0,0,0,0,0,0,0,,,,,,,,,,,,,0,0,0,0,0,9,9,9,,,,,,,,,,,,,,,,,,,,,,,,,,,,,,,,,,,,,,,,,,,,,,,,,,,,,,,,,,,,,,,,,,,,,,,,,,,,,,,,,,,,,,,,,,,,,,,,,,,,,85.5144537719998,90.08681823400002,,,,,102121,2,3,0,3,0,1,2,0,66,2021_Oct_21_1427,listening_fmri,3.2.4,59.77799123537464,
0,parcelated_audio/11/11_11.ogg,,,,,,,,,0,0,0,0,0,0,0,0,0,0,0,0,,,,,,,,,,,,,0,0,0,0,0,10,10,10,,,,,,,,,,,,,,,,,,,,,,,,,,,,,,,,,,,,,,,,,,,,,,,,,,,,,,,,,,,,,,,,,,,,,,,,,,,,,,,,,,,,,,,,,,,,,,,,,,,,,90.08719610699973,93.26069690299937,,,,,102121,2,3,0,3,0,1,2,0,66,2021_Oct_21_1427,listening_fmri,3.2.4,59.77799123537464,
0,parcelated_audio/11/11_12.ogg,,,,,,,,,0,0,0,0,0,0,0,0,0,0,0,0,,,,,,,,,,,,,0,0,0,0,0,11,11,11,,,,,,,,,,,,,,,,,,,,,,,,,,,,,,,,,,,,,,,,,,,,,,,,,,,,,,,,,,,,,,,,,,,,,,,,,,,,,,,,,,,,,,,,,,,,,,,,,,,,,93.26099731300019,96.10651504799989,,,,,102121,2,3,0,3,0,1,2,0,66,2021_Oct_21_1427,listening_fmri,3.2.4,59.77799123537464,
0,parcelated_audio/11/11_13.ogg,,,,,,,,,0,0,0,0,0,0,0,0,0,0,0,0,,,,,,,,,,,,,0,0,0,0,0,12,12,12,,,,,,,,,,,,,,,,,,,,,,,,,,,,,,,,,,,,,,,,,,,,,,,,,,,,,,,,,,,,,,,,,,,,,,,,,,,,,,,,,,,,,,,,,,,,,,,,,,,,,96.1068586249994,99.41681226899982,,,,,102121,2,3,0,3,0,1,2,0,66,2021_Oct_21_1427,listening_fmri,3.2.4,59.77799123537464,
0,parcelated_audio/11/11_14.ogg,,,,,,,,,0,0,0,0,0,0,0,0,0,0,0,0,,,,,,,,,,,,,0,0,0,0,0,13,13,13,,,,,,,,,,,,,,,,,,,,,,,,,,,,,,,,,,,,,,,,,,,,,,,,,,,,,,,,,,,,,,,,,,,,,,,,,,,,,,,,,,,,,,,,,,,,,,,,,,,,,99.4171352229996,102.11960822099991,,,,,102121,2,3,0,3,0,1,2,0,66,2021_Oct_21_1427,listening_fmri,3.2.4,59.77799123537464,
0,parcelated_audio/11/11_15.ogg,,,,,,,,,0,0,0,0,0,0,0,0,0,0,0,0,,,,,,,,,,,,,0,0,0,0,0,14,14,14,,,,,,,,,,,,,,,,,,,,,,,,,,,,,,,,,,,,,,,,,,,,,,,,,,,,,,,,,,,,,,,,,,,,,,,,,,,,,,,,,,,,,,,,,,,,,,,,,,,,,102.11989275399992,113.28780109199943,,,,,102121,2,3,0,3,0,1,2,0,66,2021_Oct_21_1427,listening_fmri,3.2.4,59.77799123537464,
0,parcelated_audio/11/11_16.ogg,,,,,,,,,0,0,0,0,0,0,0,0,0,0,0,0,,,,,,,,,,,,,0,0,0,0,0,15,15,15,,,,,,,,,,,,,,,,,,,,,,,,,,,,,,,,,,,,,,,,,,,,,,,,,,,,,,,,,,,,,,,,,,,,,,,,,,,,,,,,,,,,,,,,,,,,,,,,,,,,,113.28814536400023,116.27964067099947,,,,,102121,2,3,0,3,0,1,2,0,66,2021_Oct_21_1427,listening_fmri,3.2.4,59.77799123537464,
0,parcelated_audio/11/11_17.ogg,,,,,,,,,0,0,0,0,0,0,0,0,0,0,0,0,,,,,,,,,,,,,0,0,0,0,0,16,16,16,,,,,,,,,,,,,,,,,,,,,,,,,,,,,,,,,,,,,,,,,,,,,,,,,,,,,,,,,,,,,,,,,,,,,,,,,,,,,,,,,,,,,,,,,,,,,,,,,,,,,116.27995230499982,123.25858945500022,,,,,102121,2,3,0,3,0,1,2,0,66,2021_Oct_21_1427,listening_fmri,3.2.4,59.77799123537464,
0,parcelated_audio/11/11_18.ogg,,,,,,,,,0,0,0,0,0,0,0,0,0,0,0,0,,,,,,,,,,,,,0,0,0,0,0,17,17,17,,,,,,,,,,,,,,,,,,,,,,,,,,,,,,,,,,,,,,,,,,,,,,,,,,,,,,,,,,,,,,,,,,,,,,,,,,,,,,,,,,,,,,,,,,,,,,,,,,,,,123.259032596,130.72731553499943,,,,,102121,2,3,0,3,0,1,2,0,66,2021_Oct_21_1427,listening_fmri,3.2.4,59.77799123537464,
0,parcelated_audio/11/11_19.ogg,,,,,,,,,0,0,0,0,0,0,0,0,0,0,0,0,,,,,,,,,,,,,0,0,0,0,0,18,18,18,,,,,,,,,,,,,,,,,,,,,,,,,,,,,,,,,,,,,,,,,,,,,,,,,,,,,,,,,,,,,,,,,,,,,,,,,,,,,,,,,,,,,,,,,,,,,,,,,,,,,130.7276648369998,135.39707702499982,,,,,102121,2,3,0,3,0,1,2,0,66,2021_Oct_21_1427,listening_fmri,3.2.4,59.77799123537464,
0,parcelated_audio/11/11_20.ogg,,,,,,,,,0,0,0,0,0,0,0,0,0,0,0,0,,,,,,,,,,,,,0,0,0,0,0,19,19,19,,,,,,,,,,,,,,,,,,,,,,,,,,,,,,,,,,,,,,,,,,,,,,,,,,,,,,,,,,,,,,,,,,,,,,,,,,,,,,,,,,,,,,,,,,,,,,,,,,,,,135.3974249490002,140.32097443099974,,,,,102121,2,3,0,3,0,1,2,0,66,2021_Oct_21_1427,listening_fmri,3.2.4,59.77799123537464,
0,parcelated_audio/11/11_21.ogg,,,,,,,,,0,0,0,0,0,0,0,0,0,0,0,0,,,,,,,,,,,,,0,0,0,0,0,20,20,20,,,,,,,,,,,,,,,,,,,,,,,,,,,,,,,,,,,,,,,,,,,,,,,,,,,,,,,,,,,,,,,,,,,,,,,,,,,,,,,,,,,,,,,,,,,,,,,,,,,,,140.32132268900023,149.0988896889994,,,,,102121,2,3,0,3,0,1,2,0,66,2021_Oct_21_1427,listening_fmri,3.2.4,59.77799123537464,
0,parcelated_audio/11/11_22.ogg,,,,,,,,,0,0,0,0,0,0,0,0,0,0,0,0,,,,,,,,,,,,,0,0,0,0,0,21,21,21,,,,,,,,,,,,,,,,,,,,,,,,,,,,,,,,,,,,,,,,,,,,,,,,,,,,,,,,,,,,,,,,,,,,,,,,,,,,,,,,,,,,,,,,,,,,,,,,,,,,,149.09930971999984,152.39295630800007,,,,,102121,2,3,0,3,0,1,2,0,66,2021_Oct_21_1427,listening_fmri,3.2.4,59.77799123537464,
0,parcelated_audio/11/11_23.ogg,,,,,,,,,0,0,0,0,0,0,0,0,0,0,0,0,,,,,,,,,,,,,0,0,0,0,0,22,22,22,,,,,,,,,,,,,,,,,,,,,,,,,,,,,,,,,,,,,,,,,,,,,,,,,,,,,,,,,,,,,,,,,,,,,,,,,,,,,,,,,,,,,,,,,,,,,,,,,,,,,152.3934031839999,157.17560461099947,,,,,102121,2,3,0,3,0,1,2,0,66,2021_Oct_21_1427,listening_fmri,3.2.4,59.77799123537464,
0,parcelated_audio/11/11_24.ogg,,,,,,,,,0,0,0,0,0,0,0,0,0,0,0,0,,,,,,,,,,,,,0,0,0,0,0,23,23,23,,,,,,,,,,,,,,,,,,,,,,,,,,,,,,,,,,,,,,,,,,,,,,,,,,,,,,,,,,,,,,,,,,,,,,,,,,,,,,,,,,,,,,,,,,,,,,,,,,,,,157.17588981799963,160.795522548,,,,,102121,2,3,0,3,0,1,2,0,66,2021_Oct_21_1427,listening_fmri,3.2.4,59.77799123537464,
0,parcelated_audio/11/11_25.ogg,,,,,,,,,0,0,0,0,0,0,0,0,0,0,0,0,,,,,,,,,,,,,0,0,0,0,0,24,24,24,,,,,,,,,,,,,,,,,,,,,,,,,,,,,,,,,,,,,,,,,,,,,,,,,,,,,,,,,,,,,,,,,,,,,,,,,,,,,,,,,,,,,,,,,,,,,,,,,,,,,160.79627772299955,165.5552148050001,,,,,102121,2,3,0,3,0,1,2,0,66,2021_Oct_21_1427,listening_fmri,3.2.4,59.77799123537464,
0,parcelated_audio/11/11_26.ogg,,,,,,,,,0,0,0,0,0,0,0,0,0,0,0,0,,,,,,,,,,,,,0,0,0,0,0,25,25,25,,,,,,,,,,,,,,,,,,,,,,,,,,,,,,,,,,,,,,,,,,,,,,,,,,,,,,,,,,,,,,,,,,,,,,,,,,,,,,,,,,,,,,,,,,,,,,,,,,,,,165.55558181800006,170.58191103299941,,,,,102121,2,3,0,3,0,1,2,0,66,2021_Oct_21_1427,listening_fmri,3.2.4,59.77799123537464,
0,parcelated_audio/11/11_27.ogg,,,,,,,,,0,0,0,0,0,0,0,0,0,0,0,0,,,,,,,,,,,,,0,0,0,0,0,26,26,26,,,,,,,,,,,,,,,,,,,,,,,,,,,,,,,,,,,,,,,,,,,,,,,,,,,,,,,,,,,,,,,,,,,,,,,,,,,,,,,,,,,,,,,,,,,,,,,,,,,,,170.58217329299987,174.5566582929996,,,,,102121,2,3,0,3,0,1,2,0,66,2021_Oct_21_1427,listening_fmri,3.2.4,59.77799123537464,
0,parcelated_audio/11/11_28.ogg,,,,,,,,,0,0,0,0,0,0,0,0,0,0,0,0,,,,,,,,,,,,,0,0,0,0,0,27,27,27,,,,,,,,,,,,,,,,,,,,,,,,,,,,,,,,,,,,,,,,,,,,,,,,,,,,,,,,,,,,,,,,,,,,,,,,,,,,,,,,,,,,,,,,,,,,,,,,,,,,,174.55694926999968,178.00495827099985,,,,,102121,2,3,0,3,0,1,2,0,66,2021_Oct_21_1427,listening_fmri,3.2.4,59.77799123537464,
0,parcelated_audio/11/11_29.ogg,,,,,,,,,0,0,0,0,0,0,0,0,0,0,0,0,,,,,,,,,,,,,0,0,0,0,0,28,28,28,,,,,,,,,,,,,,,,,,,,,,,,,,,,,,,,,,,,,,,,,,,,,,,,,,,,,,,,,,,,,,,,,,,,,,,,,,,,,,,,,,,,,,,,,,,,,,,,,,,,,178.005386025,182.1873387579999,,,,,102121,2,3,0,3,0,1,2,0,66,2021_Oct_21_1427,listening_fmri,3.2.4,59.77799123537464,
0,parcelated_audio/11/11_30.ogg,,,,,,,,,0,0,0,0,0,0,0,0,0,0,0,0,,,,,,,,,,,,,0,0,0,0,0,29,29,29,,,,,,,,,,,,,,,,,,,,,,,,,,,,,,,,,,,,,,,,,,,,,,,,,,,,,,,,,,,,,,,,,,,,,,,,,,,,,,,,,,,,,,,,,,,,,,,,,,,,,182.18768473899945,186.70679058199948,,,,,102121,2,3,0,3,0,1,2,0,66,2021_Oct_21_1427,listening_fmri,3.2.4,59.77799123537464,
0,parcelated_audio/11/11_31.ogg,,,,,,,,,0,0,0,0,0,0,0,0,0,0,0,0,,,,,,,,,,,,,0,0,0,0,0,30,30,30,,,,,,,,,,,,,,,,,,,,,,,,,,,,,,,,,,,,,,,,,,,,,,,,,,,,,,,,,,,,,,,,,,,,,,,,,,,,,,,,,,,,,,,,,,,,,,,,,,,,,186.70761392900022,191.55727801099965,,,,,102121,2,3,0,3,0,1,2,0,66,2021_Oct_21_1427,listening_fmri,3.2.4,59.77799123537464,
0,parcelated_audio/11/11_32.ogg,,,,,,,,,0,0,0,0,0,0,0,0,0,0,0,0,,,,,,,,,,,,,0,0,0,0,0,31,31,31,,,,,,,,,,,,,,,,,,,,,,,,,,,,,,,,,,,,,,,,,,,,,,,,,,,,,,,,,,,,,,,,,,,,,,,,,,,,,,,,,,,,,,,,,,,,,,,,,,,,,191.55762968999989,195.61280935499963,,,,,102121,2,3,0,3,0,1,2,0,66,2021_Oct_21_1427,listening_fmri,3.2.4,59.77799123537464,
0,parcelated_audio/11/11_33.ogg,,,,,,,,,0,0,0,0,0,0,0,0,0,0,0,0,,,,,,,,,,,,,0,0,0,0,0,32,32,32,,,,,,,,,,,,,,,,,,,,,,,,,,,,,,,,,,,,,,,,,,,,,,,,,,,,,,,,,,,,,,,,,,,,,,,,,,,,,,,,,,,,,,,,,,,,,,,,,,,,,195.61333789499986,198.13602900499973,,,,,102121,2,3,0,3,0,1,2,0,66,2021_Oct_21_1427,listening_fmri,3.2.4,59.77799123537464,
0,parcelated_audio/11/11_34.ogg,,,,,,,,,0,0,0,0,0,0,0,0,0,0,0,0,,,,,,,,,,,,,0,0,0,0,0,33,33,33,,,,,,,,,,,,,,,,,,,,,,,,,,,,,,,,,,,,,,,,,,,,,,,,,,,,,,,,,,,,,,,,,,,,,,,,,,,,,,,,,,,,,,,,,,,,,,,,,,,,,198.1363863050001,201.44514415699996,,,,,102121,2,3,0,3,0,1,2,0,66,2021_Oct_21_1427,listening_fmri,3.2.4,59.77799123537464,
0,parcelated_audio/11/11_35.ogg,,,,,,,,,0,0,0,0,0,0,0,0,0,0,0,0,,,,,,,,,,,,,0,0,0,0,0,34,34,34,,,,,,,,,,,,,,,,,,,,,,,,,,,,,,,,,,,,,,,,,,,,,,,,,,,,,,,,,,,,,,,,,,,,,,,,,,,,,,,,,,,,,,,,,,,,,,,,,,,,,201.44565445099943,205.80260996699963,,,,,102121,2,3,0,3,0,1,2,0,66,2021_Oct_21_1427,listening_fmri,3.2.4,59.77799123537464,
0,parcelated_audio/11/11_36.ogg,,,,,,,,,0,0,0,0,0,0,0,0,0,0,0,0,,,,,,,,,,,,,0,0,0,0,0,35,35,35,,,,,,,,,,,,,,,,,,,,,,,,,,,,,,,,,,,,,,,,,,,,,,,,,,,,,,,,,,,,,,,,,,,,,,,,,,,,,,,,,,,,,,,,,,,,,,,,,,,,,205.80295723200015,214.81219078899994,,,,,102121,2,3,0,3,0,1,2,0,66,2021_Oct_21_1427,listening_fmri,3.2.4,59.77799123537464,
0,parcelated_audio/11/11_37.ogg,,,,,,,,,0,0,0,0,0,0,0,0,0,0,0,0,,,,,,,,,,,,,0,0,0,0,0,36,36,36,,,,,,,,,,,,,,,,,,,,,,,,,,,,,,,,,,,,,,,,,,,,,,,,,,,,,,,,,,,,,,,,,,,,,,,,,,,,,,,,,,,,,,,,,,,,,,,,,,,,,214.81253998899956,218.99192714799938,,,,,102121,2,3,0,3,0,1,2,0,66,2021_Oct_21_1427,listening_fmri,3.2.4,59.77799123537464,
0,parcelated_audio/11/11_38.ogg,,,,,,,,,0,0,0,0,0,0,0,0,0,0,0,0,,,,,,,,,,,,,0,0,0,0,0,37,37,37,,,,,,,,,,,,,,,,,,,,,,,,,,,,,,,,,,,,,,,,,,,,,,,,,,,,,,,,,,,,,,,,,,,,,,,,,,,,,,,,,,,,,,,,,,,,,,,,,,,,,218.9923819529995,225.14904498800024,,,,,102121,2,3,0,3,0,1,2,0,66,2021_Oct_21_1427,listening_fmri,3.2.4,59.77799123537464,
0,parcelated_audio/11/11_39.ogg,,,,,,,,,0,0,0,0,0,0,0,0,0,0,0,0,,,,,,,,,,,,,0,0,0,0,0,38,38,38,,,,,,,,,,,,,,,,,,,,,,,,,,,,,,,,,,,,,,,,,,,,,,,,,,,,,,,,,,,,,,,,,,,,,,,,,,,,,,,,,,,,,,,,,,,,,,,,,,,,,225.14939587800018,230.3357320949999,,,,,102121,2,3,0,3,0,1,2,0,66,2021_Oct_21_1427,listening_fmri,3.2.4,59.77799123537464,
0,parcelated_audio/11/11_40.ogg,,,,,,,,,0,0,0,0,0,0,0,0,0,0,0,0,,,,,,,,,,,,,0,0,0,0,0,39,39,39,,,,,,,,,,,,,,,,,,,,,,,,,,,,,,,,,,,,,,,,,,,,,,,,,,,,,,,,,,,,,,,,,,,,,,,,,,,,,,,,,,,,,,,,,,,,,,,,,,,,,230.33625582100012,236.1027553189997,,,,,102121,2,3,0,3,0,1,2,0,66,2021_Oct_21_1427,listening_fmri,3.2.4,59.77799123537464,
0,parcelated_audio/11/11_41.ogg,,,,,,,,,0,0,0,0,0,0,0,0,0,0,0,0,,,,,,,,,,,,,0,0,0,0,0,40,40,40,,,,,,,,,,,,,,,,,,,,,,,,,,,,,,,,,,,,,,,,,,,,,,,,,,,,,,,,,,,,,,,,,,,,,,,,,,,,,,,,,,,,,,,,,,,,,,,,,,,,,236.10304602799988,242.26076664299944,,,,,102121,2,3,0,3,0,1,2,0,66,2021_Oct_21_1427,listening_fmri,3.2.4,59.77799123537464,
0,,,,,,,,,,0,0,0,0,0,0,0,0,0,0,0,0,,,,,,,,,,,,,0,0,0,0,,,,,,,,,,,,,,,,,,,,,,,,,,,,,,,,,,,,,,,,,,,,,,,,,,,,,,,,,,,,,,,,,,,,,,,,,,,,,,,,,,,,,,,,,,,,,,,,,,,,,,,,,,,,,,,102121,2,3,0,3,0,1,2,0,66,2021_Oct_21_1427,listening_fmri,3.2.4,59.77799123537464,
0,,,,,,,,,,0,0,0,0,0,0,0,0,0,0,0,0,,,,,,,,,,,,,,,,,,,,,,,,,,,,,,,,,,,,,,242.2612549810001,248.2485716149995,287.4038272930002,None,,,,,,,,,,,,,,,,,,,,,,,,,,,,,,,,,,,,,,,,,,,,,,,,,,,,,,,,,,,,,,,,,,,,,,,,,,,,,,,,,,293.40412942199964,None,293.40412942199964,None,102121,2,3,0,3,0,1,2,0,66,2021_Oct_21_1427,listening_fmri,3.2.4,59.77799123537464,
0,,,,,,,,,,0,0,0,0,0,0,0,0,,,,,,,,,,,,,,,,,,,,,,,,,,,,,,,,,,,,,,,,,,,,,,,,,,,,,,,,,,,,,,,,,,,,,,,,,,,,,,,,,,,,,,,,,,,,,,,,,,,,,,,,,,,,,,,,,,,,,,,,,,,,,,,,,,,102121,2,3,0,3,0,1,2,0,66,2021_Oct_21_1427,listening_fmri,3.2.4,59.77799123537464,
1,,,,,,,,,,0,0,0,0,0,1,1,1,,,,,,,,,,,,,,,,,,,,,,,,,,,,,,,,,,,,,,,,,,,,,,,,,,,,,,,,,,,,,,,,,,,,,,,,,,,,,,,,,,,,,,,,,,,,,,,,,,,,,,,,,,,,,,,,,,,,,,,,,,,,,,,,,,,102121,2,3,0,3,0,1,2,0,66,2021_Oct_21_1427,listening_fmri,3.2.4,59.77799123537464,
2,,,,,,,,,,0,0,0,0,0,2,2,2,0,0,0,0,0,0,0,0,0,0,0,0,,,,,,,,,,,,,,,,,,,,,,,,,,,,,,,,,,294.4121661199997,None,294.4121661199997,None,6,0.34449261400004616,294.4121661199997,None,294.4121661199997,None,294.7875136849998,None,6,0.9132485460004318,294.7875136849998,None,294.7875136849998,None,295.7454918359999,None,295.7454918359999,None,295.7454918359999,None,6,0.5751467050004067,295.7454918359999,None,296.33748173999993,None,6,0.47716158799994446,296.33748173999993,None,296.33748173999993,None,296.9206188039998,None,296.9206188039998,None,296.9206188039998,None,296.9206188039998,None,296.9206188039998,None,296.9206188039998,None,296.9206188039998,None,None,296.9206188039998,None,,,,,,,,,,,,,,,,,,,,,,,,,,,,,,,,,102121,2,3,0,3,0,1,2,0,66,2021_Oct_21_1427,listening_fmri,3.2.4,59.77799123537464,
2,,,,,,,,,,0,0,0,0,0,2,2,2,0,0,0,0,0,0,0,0,1,0,1,0,,,,,,,,,,,,,,,,,,,,,,,,,,,,,,,,,,,,,,,,,,,,,,,,,,,,303.21186133799984,None,303.21186133799984,None,303.21186133799984,None,6,1.1769204810007068,303.21186133799984,None,304.412507041,None,6,0.764158062000206,304.412507041,None,304.412507041,None,305.304744262,None,305.304744262,None,305.304744262,None,305.304744262,None,305.304744262,None,305.304744262,None,305.304744262,None,None,305.304744262,None,,,,,,,,,,,,,,,,,,,,,,,,,,,,,,,,,102121,2,3,0,3,0,1,2,0,66,2021_Oct_21_1427,listening_fmri,3.2.4,59.77799123537464,
2,,,,,,,,,,0,0,0,0,0,2,2,2,0,0,0,0,0,0,0,0,2,0,2,0,,,,,,,,,,,,,,,,,,,,,,,,,,,,,,,,,,,,,,,,,,,,,,,,,,,,318.4284384620005,None,318.4284384620005,None,318.4284384620005,None,7,0.855353596999521,318.4284384620005,None,319.3044535480003,None,7,0.4912659560004613,319.3044535480003,None,319.3044535480003,None,319.895357032,None,319.895357032,None,319.895357032,None,319.895357032,None,319.895357032,None,319.895357032,None,319.895357032,None,None,319.895357032,None,,,,,,,,,,,,,,,,,,,,,,,,,,,,,,,,,102121,2,3,0,3,0,1,2,0,66,2021_Oct_21_1427,listening_fmri,3.2.4,59.77799123537464,
2,,,,,,,,,,0,0,0,0,0,2,2,2,0,0,0,0,0,0,0,0,3,0,3,0,,,,,,,,,,,,,,,,,,,,,,,,,,,,,,,,,,,,,,,,,,,,,,,,,,,,339.0708210189996,None,339.0708210189996,None,339.0708210189996,None,6,0.2518596489999254,339.0708210189996,None,339.3548679020005,None,6,0.5089274120000482,339.3548679020005,None,339.3548679020005,None,339.9615869959998,None,339.9615869959998,None,339.9615869959998,None,339.9615869959998,None,339.9615869959998,None,339.9615869959998,None,339.9615869959998,None,None,339.9615869959998,None,,,,,,,,,,,,,,,,,,,,,,,,,,,,,,,,,102121,2,3,0,3,0,1,2,0,66,2021_Oct_21_1427,listening_fmri,3.2.4,59.77799123537464,
2,,,,,,,,,,0,0,0,0,0,2,2,2,0,0,0,0,0,0,0,0,,,,,,,,,,,,,,,,,,,,,,,,,,,,,,,,,,,,,,,,,,,,,,,,,,,,,,,,,,,,,,,,,,,,,,,,,,,,,,,,,,,,,,,,,,,352.0712453650003,None,7,0.37544950599931326,352.0712453650003,None,352.0712453650003,None,352.4884068069996,None,352.4884068069996,None,352.4884068069996,None,7,0.4152420800000982,352.4884068069996,None,,,,,,,,,,,,,,,102121,2,3,0,3,0,1,2,0,66,2021_Oct_21_1427,listening_fmri,3.2.4,59.77799123537464,
2,parcelated_audio/42/42_1.ogg,,,,,,,,,0,0,0,0,0,2,2,2,0,0,0,0,,,,,,,,,,,,,0,0,0,0,0,0,0,0,,,,,,,,,,,,,,,,,,,,,,,,,,,,,,,,,,,,,,,,,,,,,,,,,,,,,,,,,,,,,,,,,,,,,,,,,,,,,,,,,,,,,,,,,,,,,352.92097842099975,None,7,0.42781940900022164,352.92097842099975,None,308.2308064409999,311.2321494379994,311.23985878999974,319.6071445589996,,,,,102121,2,3,0,3,0,1,2,0,66,2021_Oct_21_1427,listening_fmri,3.2.4,59.77799123537464,
2,parcelated_audio/42/42_2.ogg,,,,,,,,,0,0,0,0,0,2,2,2,0,0,0,0,,,,,,,,,,,,,0,0,0,0,0,1,1,1,,,,,,,,,,,,,,,,,,,,,,,,,,,,,,,,,,,,,,,,,,,,,,,,,,,,,,,,,,,,,,,,,,,,,,,,,,,,,,,,,,,,,,,,,,,,,,,,,,,,,319.6074927439995,332.3388038100002,,,,,102121,2,3,0,3,0,1,2,0,66,2021_Oct_21_1427,listening_fmri,3.2.4,59.77799123537464,
2,parcelated_audio/42/42_3.ogg,,,,,,,,,0,0,0,0,0,2,2,2,0,0,0,0,,,,,,,,,,,,,0,0,0,0,0,2,2,2,,,,,,,,,,,,,,,,,,,,,,,,,,,,,,,,,,,,,,,,,,,,,,,,,,,,,,,,,,,,,,,,,,,,,,,,,,,,,,,,,,,,,,,,,,,,,,,,,,,,,332.3396514779997,342.72584228399955,,,,,102121,2,3,0,3,0,1,2,0,66,2021_Oct_21_1427,listening_fmri,3.2.4,59.77799123537464,
2,parcelated_audio/42/42_4.ogg,,,,,,,,,0,0,0,0,0,2,2,2,0,0,0,0,,,,,,,,,,,,,0,0,0,0,0,3,3,3,,,,,,,,,,,,,,,,,,,,,,,,,,,,,,,,,,,,,,,,,,,,,,,,,,,,,,,,,,,,,,,,,,,,,,,,,,,,,,,,,,,,,,,,,,,,,,,,,,,,,342.7261299769998,356.4268253399996,,,,,102121,2,3,0,3,0,1,2,0,66,2021_Oct_21_1427,listening_fmri,3.2.4,59.77799123537464,
2,parcelated_audio/42/42_5.ogg,,,,,,,,,0,0,0,0,0,2,2,2,0,0,0,0,,,,,,,,,,,,,0,0,0,0,0,4,4,4,,,,,,,,,,,,,,,,,,,,,,,,,,,,,,,,,,,,,,,,,,,,,,,,,,,,,,,,,,,,,,,,,,,,,,,,,,,,,,,,,,,,,,,,,,,,,,,,,,,,,356.42715640200004,367.86594281199996,,,,,102121,2,3,0,3,0,1,2,0,66,2021_Oct_21_1427,listening_fmri,3.2.4,59.77799123537464,
2,parcelated_audio/42/42_6.ogg,,,,,,,,,0,0,0,0,0,2,2,2,0,0,0,0,,,,,,,,,,,,,0,0,0,0,0,5,5,5,,,,,,,,,,,,,,,,,,,,,,,,,,,,,,,,,,,,,,,,,,,,,,,,,,,,,,,,,,,,,,,,,,,,,,,,,,,,,,,,,,,,,,,,,,,,,,,,,,,,,367.8663379889995,374.3496746709998,,,,,102121,2,3,0,3,0,1,2,0,66,2021_Oct_21_1427,listening_fmri,3.2.4,59.77799123537464,
2,parcelated_audio/42/42_7.ogg,,,,,,,,,0,0,0,0,0,2,2,2,0,0,0,0,,,,,,,,,,,,,0,0,0,0,0,6,6,6,,,,,,,,,,,,,,,,,,,,,,,,,,,,,,,,,,,,,,,,,,,,,,,,,,,,,,,,,,,,,,,,,,,,,,,,,,,,,,,,,,,,,,,,,,,,,,,,,,,,,374.34996646699983,379.5468096599998,,,,,102121,2,3,0,3,0,1,2,0,66,2021_Oct_21_1427,listening_fmri,3.2.4,59.77799123537464,
2,parcelated_audio/42/42_8.ogg,,,,,,,,,0,0,0,0,0,2,2,2,0,0,0,0,,,,,,,,,,,,,0,0,0,0,0,7,7,7,,,,,,,,,,,,,,,,,,,,,,,,,,,,,,,,,,,,,,,,,,,,,,,,,,,,,,,,,,,,,,,,,,,,,,,,,,,,,,,,,,,,,,,,,,,,,,,,,,,,,379.5472233569999,382.7116512749999,,,,,102121,2,3,0,3,0,1,2,0,66,2021_Oct_21_1427,listening_fmri,3.2.4,59.77799123537464,
2,parcelated_audio/42/42_9.ogg,,,,,,,,,0,0,0,0,0,2,2,2,0,0,0,0,,,,,,,,,,,,,0,0,0,0,0,8,8,8,,,,,,,,,,,,,,,,,,,,,,,,,,,,,,,,,,,,,,,,,,,,,,,,,,,,,,,,,,,,,,,,,,,,,,,,,,,,,,,,,,,,,,,,,,,,,,,,,,,,,382.7122718800001,391.2607598610002,,,,,102121,2,3,0,3,0,1,2,0,66,2021_Oct_21_1427,listening_fmri,3.2.4,59.77799123537464,
2,parcelated_audio/42/42_10.ogg,,,,,,,,,0,0,0,0,0,2,2,2,0,0,0,0,,,,,,,,,,,,,0,0,0,0,0,9,9,9,,,,,,,,,,,,,,,,,,,,,,,,,,,,,,,,,,,,,,,,,,,,,,,,,,,,,,,,,,,,,,,,,,,,,,,,,,,,,,,,,,,,,,,,,,,,,,,,,,,,,391.26104883100015,395.58426913199946,,,,,102121,2,3,0,3,0,1,2,0,66,2021_Oct_21_1427,listening_fmri,3.2.4,59.77799123537464,
2,parcelated_audio/42/42_11.ogg,,,,,,,,,0,0,0,0,0,2,2,2,0,0,0,0,,,,,,,,,,,,,0,0,0,0,0,10,10,10,,,,,,,,,,,,,,,,,,,,,,,,,,,,,,,,,,,,,,,,,,,,,,,,,,,,,,,,,,,,,,,,,,,,,,,,,,,,,,,,,,,,,,,,,,,,,,,,,,,,,395.5845449560002,400.5772282600001,,,,,102121,2,3,0,3,0,1,2,0,66,2021_Oct_21_1427,listening_fmri,3.2.4,59.77799123537464,
2,parcelated_audio/42/42_12.ogg,,,,,,,,,0,0,0,0,0,2,2,2,0,0,0,0,,,,,,,,,,,,,0,0,0,0,0,11,11,11,,,,,,,,,,,,,,,,,,,,,,,,,,,,,,,,,,,,,,,,,,,,,,,,,,,,,,,,,,,,,,,,,,,,,,,,,,,,,,,,,,,,,,,,,,,,,,,,,,,,,400.5781153480002,406.54920415499964,,,,,102121,2,3,0,3,0,1,2,0,66,2021_Oct_21_1427,listening_fmri,3.2.4,59.77799123537464,
2,parcelated_audio/42/42_13.ogg,,,,,,,,,0,0,0,0,0,2,2,2,0,0,0,0,,,,,,,,,,,,,0,0,0,0,0,12,12,12,,,,,,,,,,,,,,,,,,,,,,,,,,,,,,,,,,,,,,,,,,,,,,,,,,,,,,,,,,,,,,,,,,,,,,,,,,,,,,,,,,,,,,,,,,,,,,,,,,,,,406.54955249900013,413.70417732999977,,,,,102121,2,3,0,3,0,1,2,0,66,2021_Oct_21_1427,listening_fmri,3.2.4,59.77799123537464,
2,parcelated_audio/42/42_14.ogg,,,,,,,,,0,0,0,0,0,2,2,2,0,0,0,0,,,,,,,,,,,,,0,0,0,0,0,13,13,13,,,,,,,,,,,,,,,,,,,,,,,,,,,,,,,,,,,,,,,,,,,,,,,,,,,,,,,,,,,,,,,,,,,,,,,,,,,,,,,,,,,,,,,,,,,,,,,,,,,,,413.70457641899975,418.41186854700027,,,,,102121,2,3,0,3,0,1,2,0,66,2021_Oct_21_1427,listening_fmri,3.2.4,59.77799123537464,
2,parcelated_audio/42/42_15.ogg,,,,,,,,,0,0,0,0,0,2,2,2,0,0,0,0,,,,,,,,,,,,,0,0,0,0,0,14,14,14,,,,,,,,,,,,,,,,,,,,,,,,,,,,,,,,,,,,,,,,,,,,,,,,,,,,,,,,,,,,,,,,,,,,,,,,,,,,,,,,,,,,,,,,,,,,,,,,,,,,,418.41221768499963,424.2660338529995,,,,,102121,2,3,0,3,0,1,2,0,66,2021_Oct_21_1427,listening_fmri,3.2.4,59.77799123537464,
2,parcelated_audio/42/42_16.ogg,,,,,,,,,0,0,0,0,0,2,2,2,0,0,0,0,,,,,,,,,,,,,0,0,0,0,0,15,15,15,,,,,,,,,,,,,,,,,,,,,,,,,,,,,,,,,,,,,,,,,,,,,,,,,,,,,,,,,,,,,,,,,,,,,,,,,,,,,,,,,,,,,,,,,,,,,,,,,,,,,424.26638402000026,429.83720457399977,,,,,102121,2,3,0,3,0,1,2,0,66,2021_Oct_21_1427,listening_fmri,3.2.4,59.77799123537464,
2,parcelated_audio/42/42_17.ogg,,,,,,,,,0,0,0,0,0,2,2,2,0,0,0,0,,,,,,,,,,,,,0,0,0,0,0,16,16,16,,,,,,,,,,,,,,,,,,,,,,,,,,,,,,,,,,,,,,,,,,,,,,,,,,,,,,,,,,,,,,,,,,,,,,,,,,,,,,,,,,,,,,,,,,,,,,,,,,,,,429.83755132900023,439.51411061399995,,,,,102121,2,3,0,3,0,1,2,0,66,2021_Oct_21_1427,listening_fmri,3.2.4,59.77799123537464,
2,parcelated_audio/42/42_18.ogg,,,,,,,,,0,0,0,0,0,2,2,2,0,0,0,0,,,,,,,,,,,,,0,0,0,0,0,17,17,17,,,,,,,,,,,,,,,,,,,,,,,,,,,,,,,,,,,,,,,,,,,,,,,,,,,,,,,,,,,,,,,,,,,,,,,,,,,,,,,,,,,,,,,,,,,,,,,,,,,,,439.51465838399963,444.96620089499993,,,,,102121,2,3,0,3,0,1,2,0,66,2021_Oct_21_1427,listening_fmri,3.2.4,59.77799123537464,
2,parcelated_audio/42/42_19.ogg,,,,,,,,,0,0,0,0,0,2,2,2,0,0,0,0,,,,,,,,,,,,,0,0,0,0,0,18,18,18,,,,,,,,,,,,,,,,,,,,,,,,,,,,,,,,,,,,,,,,,,,,,,,,,,,,,,,,,,,,,,,,,,,,,,,,,,,,,,,,,,,,,,,,,,,,,,,,,,,,,444.9667581619997,454.11441364500024,,,,,102121,2,3,0,3,0,1,2,0,66,2021_Oct_21_1427,listening_fmri,3.2.4,59.77799123537464,
2,parcelated_audio/42/42_20.ogg,,,,,,,,,0,0,0,0,0,2,2,2,0,0,0,0,,,,,,,,,,,,,0,0,0,0,0,19,19,19,,,,,,,,,,,,,,,,,,,,,,,,,,,,,,,,,,,,,,,,,,,,,,,,,,,,,,,,,,,,,,,,,,,,,,,,,,,,,,,,,,,,,,,,,,,,,,,,,,,,,454.1147202860002,458.76581163599985,,,,,102121,2,3,0,3,0,1,2,0,66,2021_Oct_21_1427,listening_fmri,3.2.4,59.77799123537464,
2,parcelated_audio/42/42_21.ogg,,,,,,,,,0,0,0,0,0,2,2,2,0,0,0,0,,,,,,,,,,,,,0,0,0,0,0,20,20,20,,,,,,,,,,,,,,,,,,,,,,,,,,,,,,,,,,,,,,,,,,,,,,,,,,,,,,,,,,,,,,,,,,,,,,,,,,,,,,,,,,,,,,,,,,,,,,,,,,,,,458.7661417519994,468.66635406800015,,,,,102121,2,3,0,3,0,1,2,0,66,2021_Oct_21_1427,listening_fmri,3.2.4,59.77799123537464,
2,parcelated_audio/42/42_22.ogg,,,,,,,,,0,0,0,0,0,2,2,2,0,0,0,0,,,,,,,,,,,,,0,0,0,0,0,21,21,21,,,,,,,,,,,,,,,,,,,,,,,,,,,,,,,,,,,,,,,,,,,,,,,,,,,,,,,,,,,,,,,,,,,,,,,,,,,,,,,,,,,,,,,,,,,,,,,,,,,,,468.6667870269994,473.4208082129999,,,,,102121,2,3,0,3,0,1,2,0,66,2021_Oct_21_1427,listening_fmri,3.2.4,59.77799123537464,
2,parcelated_audio/42/42_23.ogg,,,,,,,,,0,0,0,0,0,2,2,2,0,0,0,0,,,,,,,,,,,,,0,0,0,0,0,22,22,22,,,,,,,,,,,,,,,,,,,,,,,,,,,,,,,,,,,,,,,,,,,,,,,,,,,,,,,,,,,,,,,,,,,,,,,,,,,,,,,,,,,,,,,,,,,,,,,,,,,,,473.42108307499984,479.65073103800023,,,,,102121,2,3,0,3,0,1,2,0,66,2021_Oct_21_1427,listening_fmri,3.2.4,59.77799123537464,
2,parcelated_audio/42/42_24.ogg,,,,,,,,,0,0,0,0,0,2,2,2,0,0,0,0,,,,,,,,,,,,,0,0,0,0,0,23,23,23,,,,,,,,,,,,,,,,,,,,,,,,,,,,,,,,,,,,,,,,,,,,,,,,,,,,,,,,,,,,,,,,,,,,,,,,,,,,,,,,,,,,,,,,,,,,,,,,,,,,,479.65114021499994,488.1221507399996,,,,,102121,2,3,0,3,0,1,2,0,66,2021_Oct_21_1427,listening_fmri,3.2.4,59.77799123537464,
2,parcelated_audio/42/42_25.ogg,,,,,,,,,0,0,0,0,0,2,2,2,0,0,0,0,,,,,,,,,,,,,0,0,0,0,0,24,24,24,,,,,,,,,,,,,,,,,,,,,,,,,,,,,,,,,,,,,,,,,,,,,,,,,,,,,,,,,,,,,,,,,,,,,,,,,,,,,,,,,,,,,,,,,,,,,,,,,,,,,488.12242478400003,494.38071477299945,,,,,102121,2,3,0,3,0,1,2,0,66,2021_Oct_21_1427,listening_fmri,3.2.4,59.77799123537464,
2,parcelated_audio/42/42_26.ogg,,,,,,,,,0,0,0,0,0,2,2,2,0,0,0,0,,,,,,,,,,,,,0,0,0,0,0,25,25,25,,,,,,,,,,,,,,,,,,,,,,,,,,,,,,,,,,,,,,,,,,,,,,,,,,,,,,,,,,,,,,,,,,,,,,,,,,,,,,,,,,,,,,,,,,,,,,,,,,,,,494.38102037299996,500.2707747249997,,,,,102121,2,3,0,3,0,1,2,0,66,2021_Oct_21_1427,listening_fmri,3.2.4,59.77799123537464,
2,parcelated_audio/42/42_27.ogg,,,,,,,,,0,0,0,0,0,2,2,2,0,0,0,0,,,,,,,,,,,,,0,0,0,0,0,26,26,26,,,,,,,,,,,,,,,,,,,,,,,,,,,,,,,,,,,,,,,,,,,,,,,,,,,,,,,,,,,,,,,,,,,,,,,,,,,,,,,,,,,,,,,,,,,,,,,,,,,,,500.2710853970002,507.9381926750002,,,,,102121,2,3,0,3,0,1,2,0,66,2021_Oct_21_1427,listening_fmri,3.2.4,59.77799123537464,
2,parcelated_audio/42/42_28.ogg,,,,,,,,,0,0,0,0,0,2,2,2,0,0,0,0,,,,,,,,,,,,,0,0,0,0,0,27,27,27,,,,,,,,,,,,,,,,,,,,,,,,,,,,,,,,,,,,,,,,,,,,,,,,,,,,,,,,,,,,,,,,,,,,,,,,,,,,,,,,,,,,,,,,,,,,,,,,,,,,,507.9384690319994,513.5967844469997,,,,,102121,2,3,0,3,0,1,2,0,66,2021_Oct_21_1427,listening_fmri,3.2.4,59.77799123537464,
2,parcelated_audio/42/42_29.ogg,,,,,,,,,0,0,0,0,0,2,2,2,0,0,0,0,,,,,,,,,,,,,0,0,0,0,0,28,28,28,,,,,,,,,,,,,,,,,,,,,,,,,,,,,,,,,,,,,,,,,,,,,,,,,,,,,,,,,,,,,,,,,,,,,,,,,,,,,,,,,,,,,,,,,,,,,,,,,,,,,513.5970693519994,520.484746999,,,,,102121,2,3,0,3,0,1,2,0,66,2021_Oct_21_1427,listening_fmri,3.2.4,59.77799123537464,
2,parcelated_audio/42/42_30.ogg,,,,,,,,,0,0,0,0,0,2,2,2,0,0,0,0,,,,,,,,,,,,,0,0,0,0,0,29,29,29,,,,,,,,,,,,,,,,,,,,,,,,,,,,,,,,,,,,,,,,,,,,,,,,,,,,,,,,,,,,,,,,,,,,,,,,,,,,,,,,,,,,,,,,,,,,,,,,,,,,,520.485070105,531.3680027769997,,,,,102121,2,3,0,3,0,1,2,0,66,2021_Oct_21_1427,listening_fmri,3.2.4,59.77799123537464,
2,parcelated_audio/42/42_31.ogg,,,,,,,,,0,0,0,0,0,2,2,2,0,0,0,0,,,,,,,,,,,,,0,0,0,0,0,30,30,30,,,,,,,,,,,,,,,,,,,,,,,,,,,,,,,,,,,,,,,,,,,,,,,,,,,,,,,,,,,,,,,,,,,,,,,,,,,,,,,,,,,,,,,,,,,,,,,,,,,,,531.3683955799997,537.5609952799996,,,,,102121,2,3,0,3,0,1,2,0,66,2021_Oct_21_1427,listening_fmri,3.2.4,59.77799123537464,
2,parcelated_audio/42/42_32.ogg,,,,,,,,,0,0,0,0,0,2,2,2,0,0,0,0,,,,,,,,,,,,,0,0,0,0,0,31,31,31,,,,,,,,,,,,,,,,,,,,,,,,,,,,,,,,,,,,,,,,,,,,,,,,,,,,,,,,,,,,,,,,,,,,,,,,,,,,,,,,,,,,,,,,,,,,,,,,,,,,,537.5613475709997,545.7170515030002,,,,,102121,2,3,0,3,0,1,2,0,66,2021_Oct_21_1427,listening_fmri,3.2.4,59.77799123537464,
2,parcelated_audio/42/42_33.ogg,,,,,,,,,0,0,0,0,0,2,2,2,0,0,0,0,,,,,,,,,,,,,0,0,0,0,0,32,32,32,,,,,,,,,,,,,,,,,,,,,,,,,,,,,,,,,,,,,,,,,,,,,,,,,,,,,,,,,,,,,,,,,,,,,,,,,,,,,,,,,,,,,,,,,,,,,,,,,,,,,545.7176151029998,552.7664049719997,,,,,102121,2,3,0,3,0,1,2,0,66,2021_Oct_21_1427,listening_fmri,3.2.4,59.77799123537464,
2,parcelated_audio/42/42_34.ogg,,,,,,,,,0,0,0,0,0,2,2,2,0,0,0,0,,,,,,,,,,,,,0,0,0,0,0,33,33,33,,,,,,,,,,,,,,,,,,,,,,,,,,,,,,,,,,,,,,,,,,,,,,,,,,,,,,,,,,,,,,,,,,,,,,,,,,,,,,,,,,,,,,,,,,,,,,,,,,,,,552.7667575059995,563.4709986629996,,,,,102121,2,3,0,3,0,1,2,0,66,2021_Oct_21_1427,listening_fmri,3.2.4,59.77799123537464,
2,parcelated_audio/42/42_35.ogg,,,,,,,,,0,0,0,0,0,2,2,2,0,0,0,0,,,,,,,,,,,,,0,0,0,0,0,34,34,34,,,,,,,,,,,,,,,,,,,,,,,,,,,,,,,,,,,,,,,,,,,,,,,,,,,,,,,,,,,,,,,,,,,,,,,,,,,,,,,,,,,,,,,,,,,,,,,,,,,,,563.4713633949996,573.2220351699998,,,,,102121,2,3,0,3,0,1,2,0,66,2021_Oct_21_1427,listening_fmri,3.2.4,59.77799123537464,
2,,,,,,,,,,0,0,0,0,0,2,2,2,0,0,0,0,,,,,,,,,,,,,0,0,0,0,,,,,,,,,,,,,,,,,,,,,,,,,,,,,,,,,,,,,,,,,,,,,,,,,,,,,,,,,,,,,,,,,,,,,,,,,,,,,,,,,,,,,,,,,,,,,,,,,,,,,,,,,,,,,,,102121,2,3,0,3,0,1,2,0,66,2021_Oct_21_1427,listening_fmri,3.2.4,59.77799123537464,
2,,,,,,,,,,0,0,0,0,0,2,2,2,0,0,0,0,,,,,,,,,,,,,,,,,,,,,,,,,,,,,,,,,,,,,,573.2225259770003,579.2164925699999,618.3713403689999,None,,,,,,,,,,,,,,,,,,,,,,,,,,,,,,,,,,,,,,,,,,,,,,,,,,,,,,,,,,,,,,,,,,,,,,,,,,,,,,,,,,624.3739315880002,None,624.3739315880002,None,102121,2,3,0,3,0,1,2,0,66,2021_Oct_21_1427,listening_fmri,3.2.4,59.77799123537464,
2,,,,,,,,,,0,0,0,0,0,2,2,2,,,,,,,,,,,,,,,,,,,,,,,,,,,,,,,,,,,,,,,,,,,,,,,,,,,,,,,,,,,,,,,,,,,,,,,,,,,,,,,,,,,,,,,,,,,,,,,,,,,,,,,,,,,,,,,,,,,,,,,,,,,,,,,,,,,102121,2,3,0,3,0,1,2,0,66,2021_Oct_21_1427,listening_fmri,3.2.4,59.77799123537464,
3,,,,,,,,,,0,0,0,0,0,3,3,3,,,,,,,,,,,,,,,,,,,,,,,,,,,,,,,,,,,,,,,,,,,,,,,,,,,,,,,,,,,,,,,,,,,,,,,,,,,,,,,,,,,,,,,,,,,,,,,,,,,,,,,,,,,,,,,,,,,,,,,,,,,,,,,,,,,102121,2,3,0,3,0,1,2,0,66,2021_Oct_21_1427,listening_fmri,3.2.4,59.77799123537464,
4,parcelated_audio/13/13_1.ogg,,,,,,,,,0,0,0,0,0,4,4,4,0,0,0,0,,,,,,,,,,,,,0,0,0,0,0,0,0,0,,,,,,,,,,,,,,,,,,,,,,625.4052485290003,None,625.4052485290003,None,6,0.5195234539996818,625.4052485290003,None,625.4052485290003,None,,,,,,,,,,,,,,,,,,,,,,,,,,,,,,,,,,,,,,,,,,,,,,,,,,,,,,,,,,,,,,625.955251292,None,6,0.5645603209995897,625.955251292,None,581.390031594,584.3991915649995,584.4073726830002,596.0856684439996,,,,,102121,2,3,0,3,0,1,2,0,66,2021_Oct_21_1427,listening_fmri,3.2.4,59.77799123537464,
4,parcelated_audio/13/13_2.ogg,,,,,,,,,0,0,0,0,0,4,4,4,0,0,0,0,,,,,,,,,,,,,0,0,0,0,0,1,1,1,,,,,,,,,,,,,,,,,,,,,,,,,,,,,,,,,,,,,,,,,,,,,,,,,,,,,,,,,,,,,,,,,,,,,,,,,,,,,,,,,,,,,,,,,,,,,,,,,,,,,596.0859598340003,602.182157315,,,,,102121,2,3,0,3,0,1,2,0,66,2021_Oct_21_1427,listening_fmri,3.2.4,59.77799123537464,
4,parcelated_audio/13/13_3.ogg,,,,,,,,,0,0,0,0,0,4,4,4,0,0,0,0,,,,,,,,,,,,,0,0,0,0,0,2,2,2,,,,,,,,,,,,,,,,,,,,,,,,,,,,,,,,,,,,,,,,,,,,,,,,,,,,,,,,,,,,,,,,,,,,,,,,,,,,,,,,,,,,,,,,,,,,,,,,,,,,,602.1824315879994,610.5365673329998,,,,,102121,2,3,0,3,0,1,2,0,66,2021_Oct_21_1427,listening_fmri,3.2.4,59.77799123537464,
4,parcelated_audio/13/13_4.ogg,,,,,,,,,0,0,0,0,0,4,4,4,0,0,0,0,,,,,,,,,,,,,0,0,0,0,0,3,3,3,,,,,,,,,,,,,,,,,,,,,,,,,,,,,,,,,,,,,,,,,,,,,,,,,,,,,,,,,,,,,,,,,,,,,,,,,,,,,,,,,,,,,,,,,,,,,,,,,,,,,610.5368407879996,620.7703200389997,,,,,102121,2,3,0,3,0,1,2,0,66,2021_Oct_21_1427,listening_fmri,3.2.4,59.77799123537464,
4,parcelated_audio/13/13_5.ogg,,,,,,,,,0,0,0,0,0,4,4,4,0,0,0,0,,,,,,,,,,,,,0,0,0,0,0,4,4,4,,,,,,,,,,,,,,,,,,,,,,,,,,,,,,,,,,,,,,,,,,,,,,,,,,,,,,,,,,,,,,,,,,,,,,,,,,,,,,,,,,,,,,,,,,,,,,,,,,,,,620.7705963540002,626.815599693,,,,,102121,2,3,0,3,0,1,2,0,66,2021_Oct_21_1427,listening_fmri,3.2.4,59.77799123537464,
4,parcelated_audio/13/13_6.ogg,,,,,,,,,0,0,0,0,0,4,4,4,0,0,0,0,,,,,,,,,,,,,0,0,0,0,0,5,5,5,,,,,,,,,,,,,,,,,,,,,,,,,,,,,,,,,,,,,,,,,,,,,,,,,,,,,,,,,,,,,,,,,,,,,,,,,,,,,,,,,,,,,,,,,,,,,,,,,,,,,626.8160587479997,631.5094271190001,,,,,102121,2,3,0,3,0,1,2,0,66,2021_Oct_21_1427,listening_fmri,3.2.4,59.77799123537464,
4,parcelated_audio/13/13_7.ogg,,,,,,,,,0,0,0,0,0,4,4,4,0,0,0,0,,,,,,,,,,,,,0,0,0,0,0,6,6,6,,,,,,,,,,,,,,,,,,,,,,,,,,,,,,,,,,,,,,,,,,,,,,,,,,,,,,,,,,,,,,,,,,,,,,,,,,,,,,,,,,,,,,,,,,,,,,,,,,,,,631.509700226,639.1569093239996,,,,,102121,2,3,0,3,0,1,2,0,66,2021_Oct_21_1427,listening_fmri,3.2.4,59.77799123537464,
4,parcelated_audio/13/13_8.ogg,,,,,,,,,0,0,0,0,0,4,4,4,0,0,0,0,,,,,,,,,,,,,0,0,0,0,0,7,7,7,,,,,,,,,,,,,,,,,,,,,,,,,,,,,,,,,,,,,,,,,,,,,,,,,,,,,,,,,,,,,,,,,,,,,,,,,,,,,,,,,,,,,,,,,,,,,,,,,,,,,639.1572020839994,644.4496224539998,,,,,102121,2,3,0,3,0,1,2,0,66,2021_Oct_21_1427,listening_fmri,3.2.4,59.77799123537464,
4,parcelated_audio/13/13_9.ogg,,,,,,,,,0,0,0,0,0,4,4,4,0,0,0,0,,,,,,,,,,,,,0,0,0,0,0,8,8,8,,,,,,,,,,,,,,,,,,,,,,,,,,,,,,,,,,,,,,,,,,,,,,,,,,,,,,,,,,,,,,,,,,,,,,,,,,,,,,,,,,,,,,,,,,,,,,,,,,,,,644.4505212100003,649.0506450249995,,,,,102121,2,3,0,3,0,1,2,0,66,2021_Oct_21_1427,listening_fmri,3.2.4,59.77799123537464,
4,parcelated_audio/13/13_10.ogg,,,,,,,,,0,0,0,0,0,4,4,4,0,0,0,0,,,,,,,,,,,,,0,0,0,0,0,9,9,9,,,,,,,,,,,,,,,,,,,,,,,,,,,,,,,,,,,,,,,,,,,,,,,,,,,,,,,,,,,,,,,,,,,,,,,,,,,,,,,,,,,,,,,,,,,,,,,,,,,,,649.0510010609996,654.8521840610001,,,,,102121,2,3,0,3,0,1,2,0,66,2021_Oct_21_1427,listening_fmri,3.2.4,59.77799123537464,
4,parcelated_audio/13/13_11.ogg,,,,,,,,,0,0,0,0,0,4,4,4,0,0,0,0,,,,,,,,,,,,,0,0,0,0,0,10,10,10,,,,,,,,,,,,,,,,,,,,,,,,,,,,,,,,,,,,,,,,,,,,,,,,,,,,,,,,,,,,,,,,,,,,,,,,,,,,,,,,,,,,,,,,,,,,,,,,,,,,,654.8527345279999,659.4599641939994,,,,,102121,2,3,0,3,0,1,2,0,66,2021_Oct_21_1427,listening_fmri,3.2.4,59.77799123537464,
4,parcelated_audio/13/13_12.ogg,,,,,,,,,0,0,0,0,0,4,4,4,0,0,0,0,,,,,,,,,,,,,0,0,0,0,0,11,11,11,,,,,,,,,,,,,,,,,,,,,,,,,,,,,,,,,,,,,,,,,,,,,,,,,,,,,,,,,,,,,,,,,,,,,,,,,,,,,,,,,,,,,,,,,,,,,,,,,,,,,659.4603143719996,667.9199906009999,,,,,102121,2,3,0,3,0,1,2,0,66,2021_Oct_21_1427,listening_fmri,3.2.4,59.77799123537464,
4,parcelated_audio/13/13_13.ogg,,,,,,,,,0,0,0,0,0,4,4,4,0,0,0,0,,,,,,,,,,,,,0,0,0,0,0,12,12,12,,,,,,,,,,,,,,,,,,,,,,,,,,,,,,,,,,,,,,,,,,,,,,,,,,,,,,,,,,,,,,,,,,,,,,,,,,,,,,,,,,,,,,,,,,,,,,,,,,,,,667.9203416029995,677.8158497300001,,,,,102121,2,3,0,3,0,1,2,0,66,2021_Oct_21_1427,listening_fmri,3.2.4,59.77799123537464,
4,parcelated_audio/13/13_14.ogg,,,,,,,,,0,0,0,0,0,4,4,4,0,0,0,0,,,,,,,,,,,,,0,0,0,0,0,13,13,13,,,,,,,,,,,,,,,,,,,,,,,,,,,,,,,,,,,,,,,,,,,,,,,,,,,,,,,,,,,,,,,,,,,,,,,,,,,,,,,,,,,,,,,,,,,,,,,,,,,,,677.8163333659995,686.0003100009999,,,,,102121,2,3,0,3,0,1,2,0,66,2021_Oct_21_1427,listening_fmri,3.2.4,59.77799123537464,
4,parcelated_audio/13/13_15.ogg,,,,,,,,,0,0,0,0,0,4,4,4,0,0,0,0,,,,,,,,,,,,,0,0,0,0,0,14,14,14,,,,,,,,,,,,,,,,,,,,,,,,,,,,,,,,,,,,,,,,,,,,,,,,,,,,,,,,,,,,,,,,,,,,,,,,,,,,,,,,,,,,,,,,,,,,,,,,,,,,,686.0005915189995,694.6690743449999,,,,,102121,2,3,0,3,0,1,2,0,66,2021_Oct_21_1427,listening_fmri,3.2.4,59.77799123537464,
4,parcelated_audio/13/13_16.ogg,,,,,,,,,0,0,0,0,0,4,4,4,0,0,0,0,,,,,,,,,,,,,0,0,0,0,0,15,15,15,,,,,,,,,,,,,,,,,,,,,,,,,,,,,,,,,,,,,,,,,,,,,,,,,,,,,,,,,,,,,,,,,,,,,,,,,,,,,,,,,,,,,,,,,,,,,,,,,,,,,694.669353063,696.9749851659999,,,,,102121,2,3,0,3,0,1,2,0,66,2021_Oct_21_1427,listening_fmri,3.2.4,59.77799123537464,
4,parcelated_audio/13/13_17.ogg,,,,,,,,,0,0,0,0,0,4,4,4,0,0,0,0,,,,,,,,,,,,,0,0,0,0,0,16,16,16,,,,,,,,,,,,,,,,,,,,,,,,,,,,,,,,,,,,,,,,,,,,,,,,,,,,,,,,,,,,,,,,,,,,,,,,,,,,,,,,,,,,,,,,,,,,,,,,,,,,,696.9753386679995,704.5450757259996,,,,,102121,2,3,0,3,0,1,2,0,66,2021_Oct_21_1427,listening_fmri,3.2.4,59.77799123537464,
4,parcelated_audio/13/13_18.ogg,,,,,,,,,0,0,0,0,0,4,4,4,0,0,0,0,,,,,,,,,,,,,0,0,0,0,0,17,17,17,,,,,,,,,,,,,,,,,,,,,,,,,,,,,,,,,,,,,,,,,,,,,,,,,,,,,,,,,,,,,,,,,,,,,,,,,,,,,,,,,,,,,,,,,,,,,,,,,,,,,704.5454287120001,714.740356667,,,,,102121,2,3,0,3,0,1,2,0,66,2021_Oct_21_1427,listening_fmri,3.2.4,59.77799123537464,
4,parcelated_audio/13/13_19.ogg,,,,,,,,,0,0,0,0,0,4,4,4,0,0,0,0,,,,,,,,,,,,,0,0,0,0,0,18,18,18,,,,,,,,,,,,,,,,,,,,,,,,,,,,,,,,,,,,,,,,,,,,,,,,,,,,,,,,,,,,,,,,,,,,,,,,,,,,,,,,,,,,,,,,,,,,,,,,,,,,,714.7406586899997,722.6890687919995,,,,,102121,2,3,0,3,0,1,2,0,66,2021_Oct_21_1427,listening_fmri,3.2.4,59.77799123537464,
4,parcelated_audio/13/13_20.ogg,,,,,,,,,0,0,0,0,0,4,4,4,0,0,0,0,,,,,,,,,,,,,0,0,0,0,0,19,19,19,,,,,,,,,,,,,,,,,,,,,,,,,,,,,,,,,,,,,,,,,,,,,,,,,,,,,,,,,,,,,,,,,,,,,,,,,,,,,,,,,,,,,,,,,,,,,,,,,,,,,722.6893893910001,727.8596834519994,,,,,102121,2,3,0,3,0,1,2,0,66,2021_Oct_21_1427,listening_fmri,3.2.4,59.77799123537464,
4,parcelated_audio/13/13_21.ogg,,,,,,,,,0,0,0,0,0,4,4,4,0,0,0,0,,,,,,,,,,,,,0,0,0,0,0,20,20,20,,,,,,,,,,,,,,,,,,,,,,,,,,,,,,,,,,,,,,,,,,,,,,,,,,,,,,,,,,,,,,,,,,,,,,,,,,,,,,,,,,,,,,,,,,,,,,,,,,,,,727.8599707929998,731.1739717519995,,,,,102121,2,3,0,3,0,1,2,0,66,2021_Oct_21_1427,listening_fmri,3.2.4,59.77799123537464,
4,parcelated_audio/13/13_22.ogg,,,,,,,,,0,0,0,0,0,4,4,4,0,0,0,0,,,,,,,,,,,,,0,0,0,0,0,21,21,21,,,,,,,,,,,,,,,,,,,,,,,,,,,,,,,,,,,,,,,,,,,,,,,,,,,,,,,,,,,,,,,,,,,,,,,,,,,,,,,,,,,,,,,,,,,,,,,,,,,,,731.1743851359997,734.5967953479994,,,,,102121,2,3,0,3,0,1,2,0,66,2021_Oct_21_1427,listening_fmri,3.2.4,59.77799123537464,
4,parcelated_audio/13/13_23.ogg,,,,,,,,,0,0,0,0,0,4,4,4,0,0,0,0,,,,,,,,,,,,,0,0,0,0,0,22,22,22,,,,,,,,,,,,,,,,,,,,,,,,,,,,,,,,,,,,,,,,,,,,,,,,,,,,,,,,,,,,,,,,,,,,,,,,,,,,,,,,,,,,,,,,,,,,,,,,,,,,,734.5971823620002,739.8875901269994,,,,,102121,2,3,0,3,0,1,2,0,66,2021_Oct_21_1427,listening_fmri,3.2.4,59.77799123537464,
4,parcelated_audio/13/13_24.ogg,,,,,,,,,0,0,0,0,0,4,4,4,0,0,0,0,,,,,,,,,,,,,0,0,0,0,0,23,23,23,,,,,,,,,,,,,,,,,,,,,,,,,,,,,,,,,,,,,,,,,,,,,,,,,,,,,,,,,,,,,,,,,,,,,,,,,,,,,,,,,,,,,,,,,,,,,,,,,,,,,739.8882401430001,749.6018336119996,,,,,102121,2,3,0,3,0,1,2,0,66,2021_Oct_21_1427,listening_fmri,3.2.4,59.77799123537464,
4,parcelated_audio/13/13_25.ogg,,,,,,,,,0,0,0,0,0,4,4,4,0,0,0,0,,,,,,,,,,,,,0,0,0,0,0,24,24,24,,,,,,,,,,,,,,,,,,,,,,,,,,,,,,,,,,,,,,,,,,,,,,,,,,,,,,,,,,,,,,,,,,,,,,,,,,,,,,,,,,,,,,,,,,,,,,,,,,,,,749.602082077,756.868759637,,,,,102121,2,3,0,3,0,1,2,0,66,2021_Oct_21_1427,listening_fmri,3.2.4,59.77799123537464,
4,parcelated_audio/13/13_26.ogg,,,,,,,,,0,0,0,0,0,4,4,4,0,0,0,0,,,,,,,,,,,,,0,0,0,0,0,25,25,25,,,,,,,,,,,,,,,,,,,,,,,,,,,,,,,,,,,,,,,,,,,,,,,,,,,,,,,,,,,,,,,,,,,,,,,,,,,,,,,,,,,,,,,,,,,,,,,,,,,,,756.8692327809995,763.0608940769998,,,,,102121,2,3,0,3,0,1,2,0,66,2021_Oct_21_1427,listening_fmri,3.2.4,59.77799123537464,
4,parcelated_audio/13/13_27.ogg,,,,,,,,,0,0,0,0,0,4,4,4,0,0,0,0,,,,,,,,,,,,,0,0,0,0,0,26,26,26,,,,,,,,,,,,,,,,,,,,,,,,,,,,,,,,,,,,,,,,,,,,,,,,,,,,,,,,,,,,,,,,,,,,,,,,,,,,,,,,,,,,,,,,,,,,,,,,,,,,,763.0632878669994,768.3295783019994,,,,,102121,2,3,0,3,0,1,2,0,66,2021_Oct_21_1427,listening_fmri,3.2.4,59.77799123537464,
4,parcelated_audio/13/13_28.ogg,,,,,,,,,0,0,0,0,0,4,4,4,0,0,0,0,,,,,,,,,,,,,0,0,0,0,0,27,27,27,,,,,,,,,,,,,,,,,,,,,,,,,,,,,,,,,,,,,,,,,,,,,,,,,,,,,,,,,,,,,,,,,,,,,,,,,,,,,,,,,,,,,,,,,,,,,,,,,,,,,768.3298888789996,773.7760956269994,,,,,102121,2,3,0,3,0,1,2,0,66,2021_Oct_21_1427,listening_fmri,3.2.4,59.77799123537464,
4,parcelated_audio/13/13_29.ogg,,,,,,,,,0,0,0,0,0,4,4,4,0,0,0,0,,,,,,,,,,,,,0,0,0,0,0,28,28,28,,,,,,,,,,,,,,,,,,,,,,,,,,,,,,,,,,,,,,,,,,,,,,,,,,,,,,,,,,,,,,,,,,,,,,,,,,,,,,,,,,,,,,,,,,,,,,,,,,,,,773.776493118,777.0629208789996,,,,,102121,2,3,0,3,0,1,2,0,66,2021_Oct_21_1427,listening_fmri,3.2.4,59.77799123537464,
4,parcelated_audio/13/13_30.ogg,,,,,,,,,0,0,0,0,0,4,4,4,0,0,0,0,,,,,,,,,,,,,0,0,0,0,0,29,29,29,,,,,,,,,,,,,,,,,,,,,,,,,,,,,,,,,,,,,,,,,,,,,,,,,,,,,,,,,,,,,,,,,,,,,,,,,,,,,,,,,,,,,,,,,,,,,,,,,,,,,777.0631981529996,780.522670202,,,,,102121,2,3,0,3,0,1,2,0,66,2021_Oct_21_1427,listening_fmri,3.2.4,59.77799123537464,
4,parcelated_audio/13/13_31.ogg,,,,,,,,,0,0,0,0,0,4,4,4,0,0,0,0,,,,,,,,,,,,,0,0,0,0,0,30,30,30,,,,,,,,,,,,,,,,,,,,,,,,,,,,,,,,,,,,,,,,,,,,,,,,,,,,,,,,,,,,,,,,,,,,,,,,,,,,,,,,,,,,,,,,,,,,,,,,,,,,,780.5230482569996,786.4691575179995,,,,,102121,2,3,0,3,0,1,2,0,66,2021_Oct_21_1427,listening_fmri,3.2.4,59.77799123537464,
4,,,,,,,,,,0,0,0,0,0,4,4,4,0,0,0,0,,,,,,,,,,,,,0,0,0,0,,,,,,,,,,,,,,,,,,,,,,,,,,,,,,,,,,,,,,,,,,,,,,,,,,,,,,,,,,,,,,,,,,,,,,,,,,,,,,,,,,,,,,,,,,,,,,,,,,,,,,,,,,,,,,,102121,2,3,0,3,0,1,2,0,66,2021_Oct_21_1427,listening_fmri,3.2.4,59.77799123537464,
,,,,,,,,,,,,,,,,,,,,,,,,,,,,,,,,,,,,,,,,,,,,,,,,,,,,,,,,,,,786.4696873699995,792.4660704749995,831.6215501099996,None,,,,,,,,,,,,,,,,,,,,,,,,,,,,,,,,,,,,,,,,,,,,,,,,,,,,,,,,,,,,,,,,,,,,,,,,,,,,,,,,,,837.6219760849999,None,837.6219760849999,None,,,,,,,,,,,,,,,
﻿count,audio,trials_14.thisRepN,trials_14.thisTrialN,trials_14.thisN,trials_14.thisIndex,trials_3.thisRepN,trials_3.thisTrialN,trials_3.thisN,trials_3.thisIndex,trials_4.thisRepN,trials_4.thisTrialN,trials_4.thisN,trials_4.thisIndex,trials_6.thisRepN,trials_6.thisTrialN,trials_6.thisN,trials_6.thisIndex,trials_9.thisRepN,trials_9.thisTrialN,trials_9.thisN,trials_9.thisIndex,trials_10.thisRepN,trials_10.thisTrialN,trials_10.thisN,trials_10.thisIndex,trials_11.thisRepN,trials_11.thisTrialN,trials_11.thisN,trials_11.thisIndex,trials_12.thisRepN,trials_12.thisTrialN,trials_12.thisN,trials_12.thisIndex,trials_25.thisRepN,trials_25.thisTrialN,trials_25.thisN,trials_25.thisIndex,trials_15.thisRepN,trials_15.thisTrialN,trials_15.thisN,trials_15.thisIndex,trials_26.thisRepN,trials_26.thisTrialN,trials_26.thisN,trials_26.thisIndex,story_list_block2,action_list_block2,textTrigger.started,textTrigger.stopped,getTrigger.keys,getTrigger.rt,getTrigger.started,getTrigger.stopped,triggerTime,text_76.started,text_76.stopped,text_77.started,text_77.stopped,startWait,endWait,image_23.started,image_23.stopped,text_55.started,text_55.stopped,text_56.started,text_56.stopped,key_resp_2.keys,key_resp_2.rt,key_resp_2.started,key_resp_2.stopped,text_82.started,text_82.stopped,text_57.started,text_57.stopped,key_resp_17.keys,key_resp_17.rt,key_resp_17.started,key_resp_17.stopped,text_83.started,text_83.stopped,text_60.started,text_60.stopped,image_2.started,image_2.stopped,text_58.started,text_58.stopped,key_resp_23.keys,key_resp_23.rt,key_resp_23.started,key_resp_23.stopped,text_62.started,text_62.stopped,key_resp_18.keys,key_resp_18.rt,key_resp_18.started,key_resp_18.stopped,text_84.started,text_84.stopped,question1_2.started,question1_2.stopped,question2_2.started,question2_2.stopped,question3_2.started,question3_2.stopped,question4_2.started,question4_2.stopped,question5_2.started,question5_2.stopped,question6_2.started,question6_2.stopped,image_15.started,image_15.stopped,key_resp.keys,key_resp.started,key_resp.stopped,text_59.started,text_59.stopped,key_resp_19.keys,key_resp_19.rt,key_resp_19.started,key_resp_19.stopped,text_85.started,text_85.stopped,text_61.started,text_61.stopped,image_17.started,image_17.stopped,text_63.started,text_63.stopped,key_resp_24.keys,key_resp_24.rt,key_resp_24.started,key_resp_24.stopped,text_64.started,text_64.stopped,key_resp_20.keys,key_resp_20.rt,key_resp_20.started,key_resp_20.stopped,storyImage_StartTime,storyImage_EndTime,clip_StartTime,clip_EndTime,text_67.started,text_67.stopped,text_68.started,text_68.stopped,participant,sA,sB,lA,lB,block_struct,play_stories,block,behavioral,random_seed,date,expName,psychopyVersion,frameRate,
0,,,,,,,,,,0,0,0,0,0,0,0,0,0,0,0,0,0,0,0,0,0,0,0,0,,,,,,,,,,,,,,,,,[11 44 42 31 13 22 33 24],[2 3 1 3 4 4 1 2],17.281263167999896,None,equal,27.85152203799953,17.281263167999896,None,27.86870553100016,17.281263167999896,None,17.281263167999896,None,0.0003354539994688821,5.9984919050002645,45.15385134099961,None,51.1650978079997,None,51.1650978079997,None,6,1.7926883240006646,51.1650978079997,None,51.1650978079997,None,52.98722207999981,None,6,0.7755105480000566,52.98722207999981,None,52.98722207999981,None,53.79835004500001,None,53.79835004500001,None,53.79835004500001,None,6,0.6643369429993982,53.79835004500001,None,54.487271576999774,None,6,0.5735189189999801,54.487271576999774,None,54.487271576999774,None,55.16562869500012,None,55.16562869500012,None,55.16562869500012,None,55.16562869500012,None,55.16562869500012,None,55.16562869500012,None,55.16562869500012,None,None,55.16562869500012,None,,,,,,,,,,,,,,,,,,,,,,,,,,,,,,,,,102121,2,3,0,3,0,1,2,0,66,2021_Oct_21_1427,listening_fmri,3.2.4,59.77799123537464,
0,,,,,,,,,,0,0,0,0,0,0,0,0,0,0,0,0,0,0,0,0,,,,,,,,,,,,,,,,,,,,,,,,,,,,,,,,,,,,,,,,,,,,,,,,,,,,,,,,,,,,,,,,,,,,,,,,,,,,,,,,,,,,,,,,,,,66.19810646499991,None,6,2.687748338000347,66.19810646499991,None,66.19810646499991,None,68.91500399100005,None,68.91500399100005,None,68.91500399100005,None,6,0.7127751729994998,68.91500399100005,None,,,,,,,,,,,,,,,102121,2,3,0,3,0,1,2,0,66,2021_Oct_21_1427,listening_fmri,3.2.4,59.77799123537464,
0,parcelated_audio/11/11_1.ogg,,,,,,,,,0,0,0,0,0,0,0,0,0,0,0,0,,,,,,,,,,,,,0,0,0,0,0,0,0,0,,,,,,,,,,,,,,,,,,,,,,,,,,,,,,,,,,,,,,,,,,,,,,,,,,,,,,,,,,,,,,,,,,,,,,,,,,,,,,,,,,,,,,,,,,,,,69.65387883899984,None,6,0.2248953900007109,69.65387883899984,None,24.757016818999546,27.759490675999587,27.770889972000077,39.85402171900023,,,,,102121,2,3,0,3,0,1,2,0,66,2021_Oct_21_1427,listening_fmri,3.2.4,59.77799123537464,
0,parcelated_audio/11/11_2.ogg,,,,,,,,,0,0,0,0,0,0,0,0,0,0,0,0,,,,,,,,,,,,,0,0,0,0,0,1,1,1,,,,,,,,,,,,,,,,,,,,,,,,,,,,,,,,,,,,,,,,,,,,,,,,,,,,,,,,,,,,,,,,,,,,,,,,,,,,,,,,,,,,,,,,,,,,,,,,,,,,,39.854374534999806,44.342566726999394,,,,,102121,2,3,0,3,0,1,2,0,66,2021_Oct_21_1427,listening_fmri,3.2.4,59.77799123537464,
